avg_accX,min_accX,max_accX,var_accX,std_accX,avg_accY,min_accY,max_accY,var_accY,std_accY,avg_accZ,min_accZ,max_accZ,var_accZ,std_accZ,avg_magnitude,min_magnitude,max_magnitude,var_magnitude,std_magnitude,avg_pressure,min_pressure,max_pressure,var_pressure,range_pressure,std_pressure,slope_pressure,kurtosis_pressure,Pressure_below_avg,Pressure_above_avg,skew_pressure,Label
-0.8791805967955867,-0.98742675781,-0.73669433593,0.0018395322286215,0.0428350270732364,0.487977631233852,0.23693847656,0.65954589843,0.0045172516471223,0.0671247200812172,0.1458413260288265,-0.14221191406,0.31469726562,0.0043136309354944,0.0655944111563228,1.021123330885587,0.95755950984,1.08696063302,0.0003014893380867,0.0173412869370324,974.1001402090004,973.95043189202,974.15912583967,0.0006369520263173,0.2086939476499765,0.0252056967509177,5.506351436499168e-05,11.563892450433697,0.52,0.48,-1.5843600602988153,Null
-0.91585174560215,-1.56457519531,-0.46728515625,0.0529648600393059,0.2298531006734685,0.4779104614219499,0.01037597656,0.94116210937,0.0390183963825728,0.1972836799930913,0.0351376342761499,-0.65295410156,0.37841796875,0.0399455991927744,0.1996139654302588,1.076379070345725,0.6527302562,1.6122637766,0.0415284338838795,0.20353037316128,974.050014782855,973.51835001375,974.57428611485,0.0354387506068392,1.0559361010999735,0.1880163655917274,-0.0006216338595619,0.7637273395449502,0.56,0.44,-0.1024832363468761,Null
-1.10684448241835,-1.55944824218,-0.69958496093,0.040788829432825,0.2017098345625294,0.258188476559275,-0.02673339843,0.52819824218,0.0168497960310328,0.1296444042022458,0.0879244995092,-0.18688964843,0.423828125,0.0108906243597595,0.104227624931494,1.1529897421436253,0.73881937024,1.62033959276,0.038565710789125,0.1961359133666047,973.920857834585,973.78085498728,974.06431301134,0.0061323152744149,0.2834580240599962,0.0782111532086628,-0.0006135395409634,-1.407087942832539,0.47,0.53,-0.130043845396446,stairs up
-1.1015453242734925,-1.63037109375,-0.59814453125,0.0617594896893006,0.2482021657683336,0.2475196416613316,-0.01135253906,0.59094238281,0.0179780540925868,0.1339137151392808,0.0672782246176381,-0.23889160156,0.47814941406,0.0172156635557235,0.1310435352074032,1.1478345202490452,0.68805522606,1.65612341289,0.0585270071659224,0.2416194412378658,973.6268233896664,973.4691531524,973.87308983252,0.0091830768100953,0.4039366801199548,0.0957079085174445,-0.0007421429867536,-0.2320965352779436,0.54,0.46,0.5263467729448681,stairs up
-1.141154393009275,-1.70373535156,-0.53881835937,0.0869596374582256,0.294506966680518,0.2544283693907512,-0.09313964843,0.50903320312,0.0258667348008468,0.1606229203274658,0.051519680515829,-0.13330078125,0.38720703125,0.0140646415117484,0.118440721952546,1.188725308087798,0.55195695102,1.72253456464,0.0847686980134656,0.290773262160612,973.4344479651688,973.36861966661,973.60156546124,0.0029012298852735,0.2329457946300408,0.0537932500010403,-0.000114855194644,0.9957067993606938,0.62,0.38,1.178027540603234,stairs up
-1.15448014322544,-1.6005859375,-0.8037109375,0.038895446179439,0.1969561499157293,0.2319231770798666,-0.15759277343,0.50903320312,0.0175224742335332,0.1321958684512385,0.0804195963519466,-0.14343261718,0.37866210937,0.0111418988211202,0.1054143590358099,1.19273114907392,0.84257199917,1.61633446443,0.0379533473164165,0.1945562602185789,973.3184571975262,973.16940385079,973.5156143456,0.0074454035641489,0.3462104948100659,0.0861716261575961,-0.0007113997928432,-0.649439143262664,0.55,0.45,0.4094701755064478,stairs up
-1.1029152519336785,-1.61669921875,-0.59484863281,0.0501206651391187,0.2235712337695915,0.2316179405408446,-0.00708007812,0.486328125,0.0154327410266285,0.1240592195733992,0.0637722587047956,-0.19775390625,0.37023925781,0.0131372259582946,0.114461476935594,1.1421468578286649,0.62735086819,1.62262865042,0.048244050871345,0.2193458358206489,973.0852488377086,972.9432928906,973.26937960981,0.005424514801988,0.3260867192100249,0.0735508946764397,-0.000581786134742,-0.5237552186390819,0.46,0.54,0.1229283576783148,stairs up
-0.373411744504478,-1.53405761718,1.10266113281,0.9129377509847708,0.9541643884783728,0.4157765147413736,-0.22509765625,1.49084472656,0.0728816547825486,0.2695949377422041,0.1090798849564835,-0.27111816406,0.45458984375,0.0220110800850656,0.1481573828225647,1.117735676702747,0.32172651569,1.83629057309,0.0787361106117168,0.2802138515768462,972.979969271238,972.83894616513,973.11687109525,0.0040501923482904,0.2779249301199797,0.0635536422735527,-0.0001320316932992,-0.2008477813728029,0.54,0.46,0.1949445781336197,stairs up
-1.0779906544565645,-1.35461425781,-0.65258789062,0.0271415705598983,0.1645167350666601,0.2269505335598044,-0.14733886718,0.46362304687,0.016010823059305,0.1263570341922668,0.091241420977905,-0.14184570312,0.37182617187,0.0103920871212906,0.1017991107278162,1.1169730122660055,0.6551991746,1.42432654909,0.0271812159617876,0.1646368451396491,972.851157335072,972.69301065514,972.98680279836,0.005861246414646,0.2937921432200028,0.0764517770752069,-0.0006699072657896,-0.9803045511041651,0.47,0.53,-0.1144102161712834,stairs up
-1.074446451352722,-1.60205078125,-0.68603515625,0.0577796384464128,0.2400293330889539,0.2845997632712034,-0.01245117187,0.59619140625,0.0156609422878286,0.1249642690039502,0.0679253083575931,-0.15686035156,0.32775878906,0.01338777820216,0.1155396806563239,1.1265085622756446,0.68640970343,1.66055063387,0.05776960474468,0.2400084910815801,972.6134507350102,972.47509227654,972.826812395,0.0067657022514041,0.3517201184600935,0.0821359621911607,-0.000506895368099,-0.4033675156853844,0.53,0.47,0.347105320487515,stairs up
-1.0966456796379178,-1.65051269531,-0.73095703125,0.0521118792776262,0.2279452972036959,0.2620717157682111,-0.05029296875,0.53796386718,0.0195761790601541,0.1397095949117943,0.0986557230553665,-0.10180664062,0.36499023437,0.0128736658997398,0.1132956892993587,1.1461841400747506,0.73386666783,1.68216943345,0.0501327495565824,0.2235748928115871,972.5354941602172,972.44772994021,972.70738430719,0.0020464548550252,0.2596543669799303,0.0451713794469408,-0.0001639945141837,3.226177510006811,0.53,0.47,1.3407807623424577,stairs up
-1.1160944326995743,-1.48046875,-0.76098632812,0.0231330801037018,0.1518643038713071,0.2376705273996352,-0.02368164062,0.53186035156,0.017442167213966,0.1318679320689778,0.097022894303313,-0.23803710937,0.34753417968,0.0113858816965818,0.1065423584938456,1.157070681169605,0.81782814937,1.55827709317,0.0246330079099195,0.1567103555782185,972.3344983039254,972.15746687728,972.57310118221,0.0079370073413056,0.4156343049301085,0.0889543854957744,-0.0008565055422196,-1.1249913448497668,0.44,0.56,-0.051156919950159,stairs up
-1.1141506195033126,-1.65368652343,-0.62121582031,0.0625890947550708,0.2497869168590726,0.2533000946006875,-0.05346679687,0.50561523437,0.01667910686389,0.1289456655143568,0.0593551635729375,-0.18505859375,0.33288574218,0.0133789358250325,0.1154864782153274,1.1578948041860624,0.69632948748,1.66087251358,0.0608429480977259,0.2462779200109513,972.0716773571916,971.96339216984,972.23208137001,0.0035232813463241,0.2686892001700016,0.0592644167449315,-0.0002241339377288,0.676431600810909,0.58,0.42,1.0088082968415328,stairs up
-1.1436491559229935,-1.55615234375,-0.72729492187,0.0392416406624257,0.1977793398829107,0.2566617734833439,-0.033203125,0.55529785156,0.0186761349541996,0.1364428701596491,0.0994694217730254,-0.17687988281,0.484375,0.0165469434717813,0.1284299271960324,1.1899004310392038,0.73309986523,1.56940571618,0.0422017586977313,0.2051032866443747,972.0101868020924,971.87789305301,972.18149025666,0.0045527422974967,0.3035972036500425,0.0673664836413876,-0.0004400512585725,0.1292093932606821,0.5,0.5,0.1246899135874744,stairs up
-1.1569158380644806,-1.67102050781,-0.57678222656,0.036708854714743,0.1912842652219815,0.224181336237922,-0.04418945312,0.55944824218,0.023194772169308,0.1520508614492521,0.1255639806947402,-0.23645019531,0.55261230468,0.0184572517942151,0.1356367415268669,1.201215150819448,0.59159644985,1.68581078895,0.0397956695307568,0.1991644115084348,971.7559782551778,971.48394138298,971.94562937777,0.0097904585849223,0.4616879947900543,0.0987859877802746,-0.0009212087196696,0.3707452190523561,0.42,0.58,-0.7350780138569385,stairs up
-1.0449126089328054,-1.71667480468,-0.60302734375,0.0692906900378233,0.2627965142319891,0.3044155611820132,-0.21325683593,0.62658691406,0.0311683934097413,0.1762541557662988,0.0321753977138283,-0.56274414062,0.38732910156,0.0363638628865567,0.190378176632082,1.1262826928173597,0.69418424513,1.7241810648,0.0535819699154316,0.2310955034847979,971.6677746931324,970.96820726958,972.92706059024,0.0970938197711386,1.958853320659955,0.3110841978013814,0.0004860688465177,4.831569379589209,0.65,0.35,1.75797937665369,Null
-0.8740629716314487,-1.07775878906,-0.64587402343,0.0091827013843139,0.0956901988945164,0.4678362066057386,0.19995117187,0.74475097656,0.0209529840510188,0.1445456970239745,-0.1079243746634091,-0.27893066406,0.05395507812,0.0076952547013982,0.0875979062669889,1.0154401153457386,0.89162580409,1.13393187629,0.0011245526665292,0.0334866826460263,971.58935244231,970.72866221902,972.49169949461,0.1131384757846537,1.7630372755900223,0.3358825087143798,-0.0002340769775351,0.3999140415135223,0.49,0.51,0.0651979652607625,Null
-0.9270864893484764,-1.48498535156,-0.64624023437,0.0214028434980739,0.1460943388463586,0.4151033100294736,0.01501464843,0.73168945312,0.0235443319710094,0.1532289535788099,-0.0884597228821329,-0.34704589843,0.19543457031,0.0182239899516458,0.134809153936299,1.0424816600035458,0.7803679255,1.57736352924,0.0158974411356486,0.1259103010185659,971.5579122406332,971.00480709489,972.44958060073,0.0658951280939761,1.4447735058399758,0.2563446763892443,-0.0005734511630388,1.6911346754302796,0.59,0.41,0.8401640149833268,Null
-0.9362343807920476,-1.13232421875,-0.59448242187,0.0081979134063987,0.0904078937585513,0.3493250272356973,0.00817871093,0.55102539062,0.0141036578071943,0.1185824910792305,-0.0287415818560237,-0.41247558593,0.20886230468,0.0125253336870518,0.111750465434269,1.0147992474217509,0.83474236912,1.16924660607,0.0043076998517853,0.0655356190147275,971.9111293761312,970.23396037647,973.83493084363,0.4686718619564921,3.600970467159982,0.6835796546601036,0.0020996040481314,1.0455621250729052,0.62,0.38,0.609188558339132,Null
-0.8120898714098869,-1.17175292968,-0.40466308593,0.028966306425438,0.1699536669217629,0.5049972750273372,0.10229492187,0.88073730468,0.022432542348024,0.1495626760572896,0.1678255853839093,-0.16833496093,0.67211914062,0.0718163130135042,0.2676058059302407,1.0308400305779035,0.84939857586,1.2241788591,0.0029208502029815,0.053968285499915,971.4465420548422,970.27780853994,973.52756924102,0.3179901330703694,3.2497607010800493,0.5631068381432199,0.0020326427189171,3.632736083435499,0.38,0.62,1.0733897944167063,Null
-0.9360652970640124,-0.96118164062,-0.89819335937,0.0002710413382474,0.0164379071328198,0.280135543254321,0.22937011718,0.36828613281,0.0017139924825259,0.0413364534312175,0.216151484732716,0.17980957031,0.24499511718,0.0002081267930287,0.0144043197126276,1.0016255321829013,0.95615353721,1.03665086341,0.0003493905609229,0.0186631239344899,971.6678405260842,971.48146651567,971.94641048455,0.0127587938446575,0.464943968879993,0.1127803832734658,0.0009347270594835,-0.0713285022172116,0.63,0.37,0.7739127522450651,lift down
-0.9592540890109218,-0.97827148437,-0.94787597656,2.923538069105508e-05,0.0053994182664893,0.2323383352573184,0.19384765625,0.26403808593,0.0001903190220398,0.0137763349501912,0.2294826400977374,0.20886230468,0.25793457031,0.0001522444463983,0.0123214927091486,1.0134835852826816,1.0009554456,1.03273092487,3.366813281810338e-05,0.0057943151238404,972.4577538937044,971.97044916878,972.9588786016,0.085010800093056,0.9884294328199984,0.2911586161486562,0.0028090441380403,-1.179103054203374,0.48,0.52,0.0251986944065888,lift down
-0.9678747298833132,-1.02160644531,-0.94738769531,0.0002612208297105,0.0161377459834286,0.1992335913716109,0.17578125,0.23767089843,0.0001771146175711,0.0132882006031118,0.2546037946394224,0.22534179687,0.27709960937,0.0001354479727336,0.0116205110372932,1.0206106831322797,1.00390328878,1.07343222521,0.0002251661906802,0.0149827165415315,973.394064598662,972.9588786016,973.8908790112,0.0767360262220549,0.9320004096000504,0.2765913701126123,0.0029049421876769,-1.1875990139586343,0.52,0.48,0.1570066644725075,lift down
-0.8843065821445509,-1.01708984375,-0.82629394531,0.0033105091306716,0.0574508261619242,0.3778840024990419,0.17858886718,0.4609375,0.0066897798505268,0.0816685408804225,0.2895292179283233,-0.06713867187,0.40185546875,0.017626354222276,0.1325653827612643,1.0177404862302095,0.94556537902,1.06818412166,0.0004259107691495,0.020606687924215,974.0939072339028,973.99001250583,974.26683901692,0.0032606612307187,0.2768265110900074,0.0570166534614593,0.00028328744721,1.3311375887843535,0.66,0.34,1.1041239896934094,Null
-0.8905542547018467,-1.16162109375,-0.43090820312,0.0248664382249645,0.1574668058180922,0.399028084491051,0.11547851562,0.94714355468,0.0340889441734252,0.1843694675970603,0.1818199157678693,-0.06530761718,0.37475585937,0.0082972476647646,0.0909597490016561,1.0218424195980398,0.81746192831,1.25658515615,0.008291972254216,0.0909308281874608,973.9903182859126,973.61299324772,974.4600182933,0.0308944922080464,0.847025045579926,0.1755184428038079,-0.0007807781224883,0.0519325368721101,0.52,0.48,0.1975932613388285,Null
-0.974441134823639,-1.04357910156,-0.92907714843,0.0003960832300248,0.0198733067468974,0.2521234637991117,0.07641601562,0.3427734375,0.0029099092672092,0.0538662363480693,0.0914019827831518,-0.07434082031,0.26281738281,0.0059588759935971,0.0770830840739327,1.0148397208354154,0.96583162924,1.08657102835,0.0005057219866824,0.0224560220553118,974.0165071707812,973.9330098175,974.14275114704,0.0019504592172563,0.2097413295400656,0.0441006860365851,-0.0001636649515317,-0.1005405679320246,0.6,0.4,0.5264949065628624,Null
-0.96467853414227,-1.22680664062,-0.70739746093,0.0186407826100819,0.1363349446870157,0.3045650789075574,0.00231933593,0.56103515625,0.0111954985588327,0.1056566495113419,0.1269882026725,-0.06433105468,0.23400878906,0.004228242160845,0.0649314410720504,1.0276682039702012,0.78686766782,1.26270752655,0.0174052796315238,0.1317393808250549,973.9741711903956,973.62338138132,974.30119600773,0.0210607893863344,0.6778146264100542,0.1449146986216497,4.217364444648333e-05,-0.2796683697999942,0.46,0.54,-0.0073618312683483,Null
-0.9604884060911648,-1.26049804687,-0.64501953125,0.0298693151523363,0.1725817462635629,0.2345678156035795,0.06066894531,0.47668457031,0.0089065356885915,0.0942402940911438,0.1915505149108523,0.05834960937,0.36437988281,0.0031031101162424,0.0556263827918297,1.0127727472649717,0.68622186366,1.28862769567,0.0303893204446251,0.1740775320020002,973.8578846537814,973.48343249261,974.18086906255,0.0260145176417376,0.6974365699400096,0.1610608976818197,-0.0005141138121483,-0.6192022588069466,0.49,0.51,-0.3469169400822373,stairs up
-0.9740764167152448,-1.29357910156,-0.62292480468,0.0283768760381846,0.1682114689830648,0.2470527231141498,0.07153320312,0.47668457031,0.0080685596932219,0.0896956373510554,0.1379932766312968,-0.02905273437,0.30212402343,0.0047697658973883,0.0689639048658147,1.020889448741124,0.65331551132,1.30903264556,0.0278635155911466,0.1666829843604979,973.5269918001125,973.05051303812,974.31833395212,0.068439400669287,1.2678209140000265,0.2612320213279185,-0.0007664432662932,0.8486280825172647,0.57,0.43,0.7253450856696124,stairs up
-0.9827742143068182,-1.29833984375,-0.70581054687,0.0230629146716925,0.1516489202986254,0.262863852757642,0.09692382812,0.44775390625,0.0039975801504835,0.0631365455872619,0.1311503323610227,-0.041015625,0.25012207031,0.0032265536645498,0.0567220179375864,1.0293642161724432,0.76701094271,1.33357712881,0.0228181114509883,0.1508419280927217,973.3821697597068,973.06568635681,973.7978967638,0.0255541016102244,0.7322104069900206,0.1596292727874494,0.0001051943288988,-0.230502375620837,0.54,0.46,0.3803063700291829,stairs up
-0.9711247565799108,-1.26928710937,-0.65161132812,0.0291232517051154,0.1704019734644815,0.243738191414273,-0.001953125,0.52819824218,0.0116612913143114,0.1078271212450285,0.1801377474695548,0.0595703125,0.42041015625,0.0062120436329336,0.0786994934484185,1.0258364733729672,0.70233865848,1.29742078901,0.0290380484258103,0.1701525260171202,973.2341480121768,972.86622028874,973.78042188394,0.0310497607037208,0.9142015951999838,0.1759477903108831,-0.0004571162463819,0.0269069216297972,0.55,0.45,0.4458099280078108,stairs up
-0.9581718337328732,-1.23120117187,-0.67175292968,0.0191779509639354,0.1382892930304221,0.2875601755023944,0.056640625,0.45349121093,0.0072102440419368,0.0847934755470008,0.1706481073902253,-0.0107421875,0.32116699218,0.0052808216351215,0.0725668387159022,1.020234237540507,0.72456189023,1.25710922032,0.0194948386162637,0.1394271264062632,972.9741364460276,972.66488752063,973.50272355957,0.027263314938123,0.8378360389399404,0.1648833432092969,-0.0003352833833925,0.7263741522973772,0.51,0.49,0.5905800013841079,stairs up
-0.9679301649950474,-1.24780273437,-0.64233398437,0.0252493208933069,0.1586495195036969,0.2933623016032492,0.04956054687,0.58117675781,0.0120315125989645,0.1095151053533031,0.1630293307582019,-0.00402832031,0.41125488281,0.0068232348652242,0.0824724830778032,1.035537944175426,0.75480604089,1.35150157372,0.0225073136419726,0.14978755840378,972.9139987314088,972.49251190529,973.44528792765,0.0296951122343851,0.9527760223600126,0.1720506809096352,-6.801207268946859e-05,0.32179808951784,0.51,0.49,0.2993432403641195,stairs up
-0.9640808950794736,-1.23620605468,-0.67065429687,0.0259740208403588,0.1609412024440142,0.2769143059609972,0.06091308593,0.45239257812,0.0084678821320955,0.0918935546972011,0.1747766214682271,0.01159667968,0.30053710937,0.0029156476224211,0.0539218975575739,1.024063491900443,0.7209448887,1.2694478521,0.0252984830472873,0.1588345181214692,972.683148564602,972.32021422144,973.03377768517,0.0292139027205483,0.7135634637299972,0.1706838533144371,-0.0008259923129818,-0.8652604282514456,0.48,0.52,0.1042431704129409,stairs up
-0.9685654413090774,-1.24816894531,-0.62280273437,0.0249784571000817,0.1578103813250275,0.2878283546048214,0.09631347656,0.49670410156,0.006550296959812,0.0808133777810584,0.1418515159938095,-0.03637695312,0.32836914062,0.006073802230733,0.077818541738969,1.0266277238588095,0.6880054025,1.30253911878,0.0246856581497776,0.1568827234882598,972.4225446547838,972.06989109493,972.79078070085,0.0340306886372178,0.7208896059199787,0.1841993670613381,-0.0003714263288775,-0.6983303183216636,0.47,0.53,-0.0486757291563423,stairs up
-1.0069440569158856,-1.26098632812,-0.69348144531,0.022694059268291,0.1504301136706113,0.2384580775629714,0.07043457031,0.4638671875,0.0107045241350773,0.1033147607092311,0.1548284040144857,-0.01770019531,0.34167480468,0.0054937736893719,0.0740140337579071,1.0541945980405716,0.73733841774,1.31529798747,0.0218235072958238,0.1475166242083778,972.4012440948416,971.89717066521,972.92102878594,0.0460639149562546,1.0238581207300967,0.2143182301407544,-0.0007918847055887,0.1441304700804941,0.52,0.48,-0.1473028227142769,stairs up
-0.9761387218093752,-1.14880371093,-0.73425292968,0.0064533527639489,0.0802185725092075,0.266847783865625,0.03332519531,0.47668457031,0.0085465155731514,0.0923159558221876,0.0964691855663352,-0.25805664062,0.32250976562,0.010431871890444,0.1019913520390592,1.026061953167784,0.84659537277,1.21533851116,0.00593406509957,0.0769233837014636,971.8816005517664,971.45445908313,972.35811248477,0.0232959491259573,0.9036534016399856,0.1524131472423034,0.0003862282129063,0.9050378083283528,0.51,0.49,0.0231812111944425,Null
-0.9951831335268966,-1.07153320312,-0.91723632812,0.0010720671098047,0.0326953583432013,0.154618537284885,0.03515625,0.29614257812,0.0028595806993769,0.0533981602066883,0.0581636976907758,-0.05395507812,0.24072265625,0.0058434216883671,0.0763323669666667,1.0131607672200575,0.94718977634,1.09662637555,0.0009343018158959,0.0305224022737868,972.0509588166976,971.9647789793,972.23119470528,0.0028630437103196,0.2664157259799822,0.0534304835578068,0.000235338483974,1.6422977710210516,0.51,0.49,0.9562323640952592,Null
-0.9941028333654794,-1.15930175781,-0.83801269531,0.0029130487167307,0.0538986805157826,0.1943646992681096,0.00903320312,0.42504882812,0.0054589888116191,0.0737836884269731,0.0707011183639452,-0.06811523437,0.30688476562,0.0107214722120879,0.1034026030408155,1.0231429763743014,0.87188620508,1.19084712807,0.0032452675582879,0.0568891590225472,971.9530791017228,971.83361792309,972.12674755784,0.0037180050144631,0.2931296347500165,0.0608918606987421,-0.0003616973401351,-0.2727920178508936,0.46,0.54,-0.0298365813933752,Null
-0.9946065503459012,-1.10095214843,-0.90344238281,0.0010694779503995,0.0326553058915286,0.1643871928334593,-0.00537109375,0.31726074218,0.0039148127027221,0.0624774553998282,0.0462838106364244,-0.08959960937,0.25732421875,0.0076461852949802,0.0873152793739219,1.0148672375313663,0.93636454327,1.12399163354,0.0009527494972787,0.0308217435692255,971.9298166301804,971.58741795583,972.30096976986,0.0153331679623456,0.7135518140299837,0.1236470573837662,9.418683695877608e-05,0.9828613374365198,0.53,0.47,0.3769946797194305,Null
-0.8734587770562569,-1.08435058593,-0.13403320312,0.0727667573892564,0.2693761279148614,0.2124889522914525,0.03942871093,0.60266113281,0.0161673846442988,0.1269733214183054,-0.0642147810105586,-0.95947265625,0.26733398437,0.1181040959762273,0.343182453320091,1.0073243600264246,0.81222627687,1.2260651947,0.0046624092466108,0.0681864044886895,972.0650414833508,971.5757737039,972.75571535181,0.0339737913222062,1.1799416479099136,0.1840621972697389,7.824319052612015e-05,4.408091435364654,0.61,0.39,1.3310777840979555,Null
-0.9962674654410651,-1.07263183593,-0.91955566406,0.0005522749942111,0.023465741934236,0.1891674515724852,0.12231445312,0.47045898437,0.0034925729776447,0.0590105068737586,0.0445231601319822,-0.07019042968,0.19873046875,0.0051226538095101,0.0714667617078644,1.0192686856473077,0.9539425814,1.13566496595,0.0005488484843543,0.0233928337802502,971.8596248129244,971.40935637842,972.06090813182,0.0247006750605443,0.6515517534000992,0.1569318200373871,0.0011000802775334,1.0241306445690297,0.28,0.72,-1.4351261548501766,Null
-0.9930864122138612,-1.06018066406,-0.93286132812,0.0004937641854209,0.0221899215464873,0.1529612223267222,0.02587890625,0.29541015625,0.0033896039029931,0.0581393871363979,0.0474948459204722,-0.1142578125,0.26953125,0.0138220821833874,0.1174039501492849,1.014342951602028,0.93649340473,1.08384061667,0.000639940661838,0.0252618892580991,971.9085533935098,971.77191796754,972.1806326177,0.0056165700430418,0.4087146501599363,0.0748396182485518,-0.0002725375643128,1.8102926670211188,0.52,0.48,0.916679222917602,Null
-1.0052003428254983,-1.10546875,-0.91882324218,0.0006268776438285,0.0249996750712077,0.099866792151148,0.00756835937,0.19421386718,0.0014584331839525,0.0381317065104985,0.0245881325523565,-0.09509277343,0.244140625,0.0046768657605754,0.0682842313917867,1.013405419816435,0.93766656031,1.12464328249,0.0007591773776946,0.0275115210493861,971.8615105541288,971.51327387546,972.0855199176,0.0105924186562406,0.5722460421400228,0.1027638914766183,-6.061215089183134e-05,2.004525579847379,0.35,0.65,-0.8163270254120336,Null
-1.0038106282513055,-1.17358398437,-0.92541503906,0.0009439049283374,0.03068033523616,0.1113193088075,-0.04138183593,0.31518554687,0.0034317782712392,0.0584999619984414,0.0448130289698055,-0.04150390625,0.19177246093,0.0040429561901654,0.0634958719627026,1.0145514907515556,0.92798659259,1.20700468879,0.0011196103908308,0.0334140743095991,971.9716831603816,971.90877027634,972.13310780713,0.0018059204613984,0.2243375307900805,0.0424370594607161,-6.246034379907032e-05,2.1078941926531325,0.57,0.42,1.2820172539244032,Null
-0.9945311051055786,-1.17639160156,-0.78918457031,0.0044339490646471,0.0664890362823895,0.1985167551427299,0.10754394531,0.36437988281,0.003921788055586,0.0625311978320048,0.0545139935298219,-0.13635253906,0.20861816406,0.0039961289330561,0.0631210819275137,1.0195144614791989,0.83908068567,1.20853748597,0.0043913036261407,0.0661685200951515,971.9206670886964,971.63663874055,972.15244849956,0.0077736109082027,0.5158097590100397,0.0880371729073555,4.6484996266963645e-05,1.5567720345826936,0.61,0.39,0.0302469626373942,Null
-0.9602922218009348,-1.0693359375,-0.85583496093,0.0012215966063481,0.0349018050067963,0.266471192785609,0.10900878906,0.40588378906,0.0044880903228411,0.066898252488008,0.1578064829331728,-0.24060058593,0.27465820312,0.0123229993698918,0.1108516577378748,1.017329632637224,0.88653389436,1.10436095546,0.001096059634774,0.0330598646393629,971.87738287937,971.62890017543,972.10387286008,0.0069763551651955,0.4749726846499698,0.0834061875366675,4.263396048708226e-05,0.8062889139529528,0.51,0.49,0.3785072851005555,Null
-0.948462475301638,-0.96813964843,-0.90283203125,0.0003291344742446,0.0181159787349603,0.248252430177385,0.23181152343,0.27392578125,7.523047606178884e-05,0.0086610794092235,0.2210763514693103,0.20422363281,0.25183105468,9.235090628674129e-05,0.0095961205765273,1.005088065588046,0.9583768921,1.0292893252,0.0003794486173402,0.019451433051326,972.1351486512252,971.88569457795,972.55691903456,0.0376455841431295,0.671224456610048,0.1937457281521351,0.0018970845362974,-0.940570640522474,0.54,0.46,0.4479078979201534,lift down
-0.9498835100406856,-0.97912597656,-0.93676757812,6.272289287522294e-05,0.0079084565251296,0.2797882951972286,0.2294921875,0.32495117187,0.000871693625541,0.0294822501231708,0.2229785156211143,0.20483398437,0.24963378906,8.477260526673439e-05,0.0091940414303566,1.0155186167178858,1.0059117572,1.03296794269,1.7858484730641108e-05,0.0042198886820097,972.9852801478216,972.55691903456,973.45427753926,0.0652319819550669,0.897358504700037,0.2550403984935852,0.002517267667067,-1.216628660458857,0.51,0.49,0.1437459058709507,lift down
-0.9458577473918552,-0.99560546875,-0.92126464843,0.0001633582189179,0.0127626296990113,0.3065815358888695,0.27209472656,0.33959960937,9.311779650554777e-05,0.0096357609896162,0.2297434046609275,0.19348144531,0.26147460937,0.0002524526504103,0.0158657147206668,1.0206789942809564,1.00355361058,1.07088672242,0.0001434082561711,0.0119579504960621,973.8961536232388,973.45427753926,974.31069542625,0.0582321626608748,0.8564178869900161,0.2409634283114285,0.0024088687156402,-1.0387703033895128,0.48,0.52,-0.1127580021055018,lift down
-0.9697538813479886,-0.99536132812,-0.79736328125,0.0009807322563927,0.0312722557236605,0.2581953097296317,0.19641113281,0.37719726562,0.0018290044855277,0.0427062427486281,0.1372160222607365,0.03186035156,0.39172363281,0.0100441183083313,0.1000782929280367,1.0189703323089236,0.95840461438,1.06802281268,0.0004337776911684,0.0207978089995597,974.5184527889642,974.22076008425,974.87598321278,0.0153504550849898,0.6552231285301104,0.123721337595961,0.000249933122491,-0.2342498580401879,0.6,0.4,0.4928422648190853,lift down
-0.9915307273287888,-1.26147460937,-0.75183105468,0.0091323619197233,0.095428700905803,0.2174120405994084,0.06494140625,0.4169921875,0.0045309375508095,0.0672173664051266,0.0965125715199154,-0.14538574218,0.35278320312,0.0066937221077989,0.0816998565027243,1.024772668081296,0.78690682921,1.31378556484,0.0098843549590003,0.0992799662852216,974.3921564459882,974.15186462119,975.03833006461,0.0201817028746695,0.8864654434199792,0.1418620915093843,-0.0001636894418258,8.320914306450181,0.54,0.46,2.3176923334816246,Null
-0.991181780574586,-1.24780273437,-0.65563964843,0.0099592172245473,0.0996368404368578,0.1837177641035987,0.00830078125,0.32824707031,0.0057010331150698,0.0753848589482825,0.0992454966128981,-0.17163085937,0.24047851562,0.0070086088176025,0.0835840200478259,1.0192933005220062,0.69105524108,1.29044400948,0.0097119702786249,0.098392278340189,974.4218814944668,974.06669130828,974.60460209645,0.0088520731383641,0.5379107881699383,0.0939355194941553,-0.0004366109417632,1.2887889559590358,0.5,0.5,-0.5719258375928529,Null
-0.9865483896097246,-1.32238769531,-0.62475585937,0.036380683236186,0.1904743052706,0.2119547525998622,-0.02954101562,0.49060058593,0.0098620943216539,0.0991711955042266,0.1815585722239944,0.04382324218,0.38464355468,0.00529584337945,0.072672238710743,1.0328588551352893,0.65120712212,1.3493145622,0.0358640831003079,0.1891171170817434,974.3107441509038,974.0065463874,974.56467240842,0.0194886687806896,0.5581260210200298,0.1394094006439498,-0.0005776035496594,-0.651503568460464,0.51,0.49,-0.1689953022467075,stairs up
-0.9823137658042228,-1.28234863281,-0.63366699218,0.0302129051502338,0.1735635452949873,0.2401302035562463,0.02685546875,0.40856933593,0.0050970423163757,0.0712888138364256,0.1064950713635777,-0.09912109375,0.33947753906,0.008361291023404,0.091305920445387,1.02403305202522,0.66291171946,1.31150095246,0.0289283619821718,0.169833824887935,974.02540685214,973.68610791666,974.55900045163,0.0407251355485509,0.8728925349699921,0.2015085779776016,-0.0010845718092867,-0.0879825589031679,0.54,0.46,0.4692188240213695,stairs up
-0.984422340283518,-1.30847167968,-0.63732910156,0.0265856344544282,0.1628250289042103,0.2510036140889474,0.11926269531,0.47973632812,0.0082054197901,0.0904582229285463,0.1368371007147922,-0.04663085937,0.349609375,0.0067945155278799,0.0823146047504728,1.0321776975105263,0.68102586453,1.33021348104,0.02696883142206,0.163994285015801,973.8483832176192,973.57828931637,974.18160229951,0.0208413211820863,0.603312983139972,0.1441651448528605,0.0001752014839121,-0.3053175472551515,0.53,0.47,0.2645086330145806,stairs up
-0.9916338239358632,-1.30700683593,-0.66186523437,0.0296068506264332,0.1718101714089386,0.2136691865430357,0.02124023437,0.52844238281,0.0157380136535213,0.1252644176419287,0.1146476382270238,-0.07299804687,0.26428222656,0.0048409195276897,0.069473102918291,1.0307660063421429,0.70147161001,1.33393831857,0.0291750757152464,0.170552763486144,973.751000682743,973.47775644707,974.28390629322,0.0316212531245108,0.8061498461499923,0.1775588416613391,-0.0007560132119717,0.5126697359282542,0.5,0.5,0.6901840074989136,stairs up
-0.982995362019544,-1.34655761718,-0.65942382812,0.0328657084697863,0.1810305885001799,0.212518154042849,-0.00915527343,0.44030761718,0.0080948423945525,0.0898430863534207,0.1384805967290598,0.00390625,0.2978515625,0.0042240530327397,0.0649000669769692,1.021399275060057,0.69826319736,1.38036041201,0.0325127458651782,0.1800558717720126,973.5138504468226,973.1983939542,974.00794475916,0.0291200138236684,0.8095508049599403,0.1704026138922811,-0.0003935264505782,0.1450951582329147,0.5,0.5,0.5364046377830911,stairs up
-0.9918798687775288,-1.22875976562,-0.74438476562,0.0174868816625105,0.1320478398254241,0.2690012263119827,0.15454101562,0.41931152343,0.0036375960762351,0.0602257686870585,0.0803731282523275,-0.17907714843,0.25988769531,0.0057221597217209,0.0755361948605755,1.035881431946724,0.79496867161,1.26603991571,0.0157826941178,0.1254485613647922,973.3845482095696,973.08257496093,973.75186683985,0.0212676858661149,0.6692918789200348,0.1456247637809923,-0.0003949303186193,0.1340757441278035,0.48,0.52,0.2803348198049476,stairs up
-0.9808202283096552,-1.27514648437,-0.65710449218,0.0294087503816925,0.1712432260800319,0.2504297015272701,0.04431152343,0.46899414062,0.0082666326351053,0.0907902965279063,0.1303528533554885,-0.09313964843,0.31640625,0.0061928381761667,0.0785814396926287,1.0275140689419826,0.68038390645,1.3147127255,0.0297577339891209,0.1722562720462367,973.2208638908876,972.81894473017,973.65474465117,0.0356380450275017,0.8357999209999889,0.1885089834786007,-0.0008148535794716,-0.3799088231655592,0.54,0.46,0.2926918796661393,stairs up
-0.9775285693453868,-1.26416015625,-0.66015625,0.0272019232920556,0.1646935967742505,0.1928962773065902,-0.05187988281,0.52282714843,0.0123851383702679,0.1111289830232166,0.1606455805616619,-0.04248046875,0.39672851562,0.0067384287103271,0.0819702439405479,1.0186007163969628,0.66999270451,1.32815226919,0.0273016415729216,0.1649951919710762,972.947346252588,972.46764280959,973.49632570732,0.0482583556381421,1.0286828977300502,0.2193628946460372,-0.0007575415404505,-0.0714415376299895,0.52,0.48,0.259636069855259,stairs up
-0.9917400292352072,-1.28820800781,-0.72985839843,0.0241031075100366,0.1550219227756902,0.243273492391923,-0.02331542968,0.49914550781,0.0090617157838908,0.0950521224059692,0.1435792460209763,0.00427246093,0.31799316406,0.0052711642778381,0.0724953041048374,1.038111923525148,0.7838003873,1.34339626225,0.0240623738976635,0.1548908759170308,972.7868589574974,972.50720840652,973.23995289718,0.036944170358551,0.7327444906600249,0.1919241206294397,0.0002779772419463,-0.6894269122622649,0.54,0.46,0.4814012584322836,stairs up
-0.9838518907758474,-1.31164550781,-0.60205078125,0.0342525984249577,0.1848129856702305,0.217096188644209,0.00183105468,0.49084472656,0.0152421572425434,0.1232846312448569,0.1774781652727965,0.03649902343,0.3984375,0.0065758863833692,0.0809772216931018,1.034132286146017,0.68372729495,1.34632244724,0.0346824423978129,0.1859690011714026,972.6145271967844,972.17160400092,973.01397730684,0.0303831750810693,0.8423733059200913,0.1740613308660892,-0.0006110337093161,-0.5917190865680473,0.55,0.45,0.0139033007611701,stairs up
-0.981167755975894,-1.11767578125,-0.81823730468,0.0023576399847884,0.0484876726420103,0.2178010567568156,0.02185058593,0.56323242187,0.0134455542718398,0.1157929050403031,0.0850765292178212,-0.5302734375,0.33679199218,0.0141335096339333,0.1187182823188727,1.022338821167598,0.92368173548,1.22155210955,0.0020476176637731,0.0451873661697646,972.3169087709042,972.08364398734,972.54337732181,0.0105347378681566,0.4597333344700018,0.1024954205126592,0.0004980851477765,-0.3905081283284559,0.46,0.54,-0.2228206306109885,Null
-0.5987747896609845,-1.72998046875,0.47180175781,0.3114987910851989,0.557261458622858,0.3097517277618461,-0.61401367187,0.87841796875,0.1260464626123572,0.3544836065924356,0.0009840745201538,-1.00610351562,0.91162109375,0.2336907388029474,0.4826714103568404,1.0374588896545849,0.28834211952,1.77738139353,0.0474741274881867,0.2175501166392736,972.2766230019632,971.93966248774,972.93380634127,0.0343783673496041,0.9941438535300904,0.185128570884559,0.0008416520038655,1.6609009101599543,0.48,0.52,0.7428063797977824,Null
-0.905371837665651,-2.37805175781,0.20642089843,0.2156658256386182,0.4637546909511876,0.228975502075457,-0.38024902343,0.966796875,0.0698337857269819,0.2638945629170038,-0.2124375108187257,-1.18908691406,0.63671875,0.139773670749637,0.3733449960373382,1.1083216014839057,0.30263429033,2.42521236647,0.1132899309820928,0.3361191878762603,972.392041153046,972.0006937527,973.00290678938,0.0364247719176679,1.0022130366799047,0.1905882270038383,-0.0002664931829925,0.4219556335178573,0.55,0.45,0.5731275335807716,Null
-0.9014783910152522,-1.84484863281,-0.09387207031,0.13814475889911,0.3711264390992903,0.0541202533840949,-0.48803710937,0.52941894531,0.039763143771806,0.1991109043906452,-0.3860681912986943,-1.39196777343,0.05981445312,0.0864052887130472,0.293511316983823,1.0692497987812166,0.50464434129,2.01926561301,0.0851272899111574,0.291332604898593,972.5215271686084,972.05091904728,973.53905218329,0.1061951259766171,1.488133136009992,0.3253920818158262,0.001236913522529,1.54047401855163,0.59,0.41,1.288032544837076,stairs down
-1.14110313786851,-1.77124023437,-0.55017089843,0.081316177383935,0.2847510838276144,0.2408321347795702,-0.12915039062,0.658203125,0.0373643415015952,0.1930214504949148,0.0043731951781948,-0.52600097656,0.65368652343,0.0411283231804544,0.2025104367242085,1.1999207729283954,0.62165018263,1.80679263738,0.0769310180409468,0.2769667585189551,972.6452932385034,972.09289014044,972.94599570768,0.0308746262780461,0.8531055672400498,0.1754598538132643,0.0011564838105096,2.066680922225252,0.36,0.64,-1.4607646552732867,stairs down
-0.9644785794306532,-1.55065917968,-0.32995605468,0.0782745658408081,0.2793782291359225,0.2435628717570454,-0.41882324218,0.83093261718,0.062078683926127,0.2488017765784835,-0.1426849365219318,-0.75170898437,0.16906738281,0.0546277504392539,0.2333935688197409,1.068424398657301,0.49989751421,1.59597394085,0.0626261546837818,0.2498964575011258,972.8212027921072,972.43903332304,973.69605408693,0.0435758568454692,1.2570207638899549,0.2084515814226719,0.0002439081590263,4.980172683317822,0.65,0.35,1.835493522941952,stairs down
-1.1484488473775776,-1.9443359375,-0.47448730468,0.1127068716056756,0.3352452646351735,0.2520174268248732,-0.50427246093,0.84973144531,0.0670412859028495,0.2585583825950446,0.0370069047087042,-0.15087890625,0.37841796875,0.0119785341434126,0.1092922311681525,1.2132282410512958,0.541025141,1.96341902799,0.1033720900272364,0.3210621451389812,973.1679116627596,972.91668483296,973.31547536083,0.0086701431552878,0.3987905278700054,0.0929823650851186,0.0006477715533994,-0.099533067560682,0.41,0.59,-0.8382917047248423,stairs down
-0.8686856665611979,-1.62341308593,0.16735839843,0.1364687928122605,0.3689019610941835,-0.0403671902202228,-0.91748046875,0.62377929687,0.0838936144837988,0.2892402591884054,-0.3767939915540947,-0.99108886718,0.15295410156,0.106057955394486,0.3252115147636863,1.0790535931203342,0.48689801939,1.63367024848,0.059538311228251,0.2436646596250221,973.3960540319574,973.06902878424,974.03944604714,0.0583828820199024,0.970417262900014,0.2412887390816047,0.0003959517288394,-0.1773759888670336,0.63,0.37,0.9095292471902324,stairs down
-0.948998454009796,-1.68041992187,-0.0888671875,0.1139192552382688,0.3370268967452041,0.0790207754416326,-0.63830566406,0.72155761718,0.0862483179504688,0.2932522210119742,-0.3043732490184256,-1.23193359375,0.20556640625,0.0910451521052006,0.3012967214291602,1.107067395714869,0.45690006427,1.70329767191,0.0644387814976434,0.2534776387179189,973.6483186965804,973.26327152199,974.05066841334,0.0221853266263733,0.7873968913499994,0.1487301125321241,0.000727631737156,0.02795223461391,0.38,0.62,-0.341768322790532,stairs down
-1.0889662191860283,-1.87316894531,-0.39099121093,0.1199369045115319,0.34583096170859,0.232113432545662,-0.24645996093,0.65356445312,0.0430376214192427,0.2071627106475741,-0.0019895741631267,-0.24328613281,0.26928710937,0.013473054208094,0.1159098871655009,1.1419178682384508,0.48990673347,1.88349332806,0.1120177002195441,0.3342187268870856,973.8539682404396,973.71001737964,974.05429723461,0.0078852870259453,0.3442798549699546,0.0886739812448722,0.0006522724376299,-0.7750034161813861,0.56,0.44,0.4155747512887158,stairs down
-1.0382200091040168,-1.65588378906,-0.77868652343,0.0252188272692786,0.1585811712241931,0.2455968963931741,-0.13403320312,0.54772949218,0.016143753463038,0.1268794933823069,0.0974515421991011,-0.25390625,0.61315917968,0.0305813725495521,0.1746295216098109,1.092889781318511,0.80032471459,1.74726247397,0.0257131256103446,0.1601277544007183,974.372736821008,974.17015556445,974.68854768722,0.0057903985119698,0.5183921227699102,0.0759877183998202,2.1288092908975232e-05,6.629315028077054,0.49,0.51,1.4871672860823826,Null
-0.5289030320969628,-1.46264648437,0.39514160156,0.2162811098902291,0.4643935757985667,0.4943179592325501,-0.267578125,1.21911621093,0.0924430454631224,0.3036085731277942,-0.272755095473066,-1.09606933593,0.27075195312,0.1676936592496445,0.4089170596327223,1.0255358343546133,0.48338915883,1.48978920883,0.0218756582904215,0.1476921708185915,974.3653949416358,974.13239601832,974.86084740054,0.0105797335118316,0.728451382219987,0.1027103650522266,-0.0004139000465963,4.220906222240793,0.32,0.68,0.6622631907724472,Null
-0.8459233302660504,-1.79565429687,0.0517578125,0.1306245493699878,0.3609136382484227,0.162047485007591,-1.03051757812,1.28344726562,0.2412157185615129,0.4904488192256435,-0.0147192177643417,-0.51696777343,0.45202636718,0.0393218451230085,0.1980194432336743,1.0587413112184874,0.55757140925,1.85896649801,0.0311434279176366,0.1762276692942119,974.3375500157772,973.88877548832,975.27524087949,0.0820553065414287,1.3864653911699634,0.2860514984131247,-0.0005005949801283,1.9446819141238203,0.58,0.42,1.1974677350796352,Null
-0.8782849297970144,-1.01745605468,-0.7705078125,0.00232043932576,0.0481010749845663,0.5092900815187826,0.26403808593,0.68701171875,0.0076696907470515,0.0874497556278974,0.0516909391965217,-0.12390136718,0.17553710937,0.0036238293944615,0.0601109436055058,1.022813390005478,0.93778510526,1.12325444169,0.0008625262537151,0.0293262029185073,974.5136450904116,973.7407267156,976.0469016203,0.1496130196707918,2.306174904700015,0.3862374382995644,-0.0002655273459405,6.094743846461695,0.64,0.36,1.9844179006171607,Null
-0.868372785537831,-0.92053222656,-0.83776855468,0.0004699051344843,0.0216467424350442,0.532230688817155,0.49145507812,0.58520507812,0.000439327129968,0.0209305897852122,0.1549766862858028,0.12243652343,0.18994140625,0.0002807428043352,0.0167317655832937,1.030550820822507,0.99676062008,1.09089015644,0.0005116440532137,0.0225876692546976,974.3577367953698,973.96358432658,974.6655126146,0.0273751177388062,0.7019282880199853,0.1652210783498621,-0.0014265653898536,-0.2526699162799324,0.38,0.62,-0.6439725500755797,lift up
-0.8363158465788304,-0.85546875,-0.79455566406,0.000309442609438,0.0175652442763102,0.5423059296153507,0.51318359375,0.57397460937,0.0001791213883629,0.0133640428618507,0.1612431040942689,0.13720703125,0.18542480468,9.538682569143642e-05,0.0097523287908266,1.0097849570046784,0.95941793271,1.03920670992,0.0004371172477233,0.0208767604554919,973.5309969180962,973.252805874,973.96358432658,0.0499995729101125,0.7107784525799161,0.223278694300428,-0.0022268868971644,-1.2377937945913642,0.55,0.45,0.376605869457165,lift up
-0.8331062231133707,-0.89294433593,-0.76281738281,0.0006108790059661,0.0246812287721305,0.5704582300040169,0.47961425781,0.7607421875,0.0022602353140647,0.0474751128325514,0.1461017051402809,0.01196289062,0.20910644531,0.0011532304794123,0.0339115182195273,1.0219606534658707,0.95523251804,1.10257883059,0.0004449926221448,0.0210651998060578,973.240360181264,973.09606454898,973.71018288978,0.0054949177442589,0.6141183407999051,0.0740235272197693,-3.926398662929479e-05,18.083227184148992,0.51,0.49,3.134732065725077,lift up
-0.8518608159181267,-1.16003417968,-0.650390625,0.0071595244692224,0.0844919631317942,0.5297454042422478,0.18347167968,0.74340820312,0.0121608193125267,0.1101170909701572,0.0124673541060518,-0.38635253906,0.21105957031,0.0198687605207389,0.1407533368872179,1.0179533137389625,0.69804669824,1.35516148363,0.009250234393127,0.0960394536486113,973.2383028023684,972.95409883028,973.61864159905,0.0187100540106254,0.6645427687699339,0.1365874611617694,-0.0002233578511687,-0.0388002452777018,0.51,0.49,0.2701377897594952,Null
-0.8458286533914448,-1.12329101562,-0.57568359375,0.0121995650788279,0.1102950833191747,0.5565548645503682,0.24548339843,0.80139160156,0.0155719955439071,0.124610923446073,0.0260967654469121,-0.4267578125,0.52404785156,0.0305113057357807,0.1744272669106286,1.0328806590807365,0.63781990598,1.31274431656,0.0175935337309002,0.1324526092306321,973.2061238420714,973.05939947562,973.4119134173,0.0068652922130142,0.3525139416799447,0.0827396144126095,0.0001386079597801,-0.5823160215484569,0.56,0.44,0.291979163491719,Null
-0.8807857840370285,-1.0673828125,-0.697265625,0.006191894275328,0.0785760978213294,0.4750823102636286,0.142578125,0.77697753906,0.0187082450535056,0.1365825498545891,0.0812301199748,-0.16784667968,0.31481933593,0.0120269742474899,0.1095107824094305,1.0213476037875715,0.8987987041,1.17046684856,0.001760842030265,0.0419023991322182,973.428576073597,972.70655538696,974.72623094689,0.113423278636841,2.019675559930078,0.3363022630409287,-9.939570424910954e-05,4.281261340250212,0.6,0.4,1.3568321851189156,Null
-0.8734866768934285,-0.92346191406,-0.84191894531,0.0005067685868677,0.022479338883063,0.5343575613799428,0.51489257812,0.57116699218,0.0001736481781158,0.0131587248798704,0.1297293526750571,0.10595703125,0.154296875,0.0001399338099074,0.0118124510167039,1.0323772908548572,1.01290144703,1.08236585876,0.0003628558364997,0.0190215431955013,973.0419823229868,972.60411864107,973.37098372298,0.0585972951115115,0.7668650819099412,0.2417227218701952,-0.0023541789621981,-1.240714728642812,0.45,0.55,-0.2916936266275358,lift up
-0.8407615379012819,-0.86413574218,-0.79553222656,0.000296229874639,0.0171867947821071,0.5415567686035613,0.51306152343,0.55895996093,9.897973608661586e-05,0.0099346737508844,0.1510614900472934,0.13098144531,0.16857910156,7.814287046708705e-05,0.0088272442589121,1.011504338114017,0.96360265006,1.0324730484,0.0003151467405995,0.0177270664983718,972.2218112588396,971.90445960269,972.60411864107,0.0490522186719022,0.6996590383799912,0.2211616349215117,-0.0021715460379377,-1.3431624745826765,0.51,0.49,0.0824679689862153,lift up
-0.8426489736482073,-0.85412597656,-0.82971191406,3.015471236291304e-05,0.0054836343223727,0.5528352454224928,0.53796386718,0.56640625,3.136373104103648e-05,0.0055924840145221,0.166836265752661,0.14453125,0.18542480468,5.50547487535894e-05,0.0074094894406488,1.021571782142633,1.00125361632,1.03332767565,2.4179201319427752e-05,0.0049103434161157,971.9017324568993,971.87520555494,971.94731372491,0.0002398928836105,0.0721081699700789,0.0154667680770391,-9.538872132205504e-05,0.543069836000142,0.46,0.54,0.5176603956243536,lift up
-0.8720589103240385,-1.09228515625,-0.62365722656,0.0067774207969592,0.0822119304545,0.504420353812445,0.19104003906,0.72631835937,0.0131582076191097,0.1145515547562723,0.0454094855332967,-0.35083007812,0.27954101562,0.0239367862694311,0.154502510877953,1.0269953739940385,0.65705480499,1.27065353085,0.0066091092130793,0.0811846803260121,971.930964344836,971.64467033557,972.46993252612,0.0235714540035755,0.8252621905500064,0.1533189396708949,-0.0004568373160039,2.9814651573596835,0.66,0.34,1.4343998190484832,Null
-0.9170617544480644,-1.16162109375,-0.63244628906,0.0084286657940615,0.0916842848601334,0.4170263146808065,0.17883300781,0.76452636718,0.0177454564820633,0.1330329043585,-0.0821707120477688,-0.36303710937,0.18994140625,0.0135087793983416,0.1160709501780174,1.025251782690188,0.69512017408,1.30666718505,0.0101274682027202,0.1004999692827377,971.9028538820984,971.66327604866,972.26814978965,0.0137077217493753,0.6048737409900014,0.1169225086755981,-0.0004079794887748,0.8602787274782453,0.65,0.35,0.9307691778656024,Null
-0.869738527461558,-1.13537597656,-0.71130371093,0.0071314773239199,0.0843283750500571,0.500324713943286,0.18090820312,0.78088378906,0.0194321091543927,0.1392015110784839,-0.0647252760914447,-0.28356933593,0.16040039062,0.0112434576687865,0.1058848738674108,1.0209460511984985,0.82359487415,1.29221389955,0.00634636785963,0.0795511752296866,971.9052780024688,971.73078270059,972.47619633589,0.015053631319744,0.7454136352999967,0.122519331012754,9.431839305520109e-05,7.606021470826002,0.52,0.48,2.250687282392301,Null
-0.7804208235273581,-0.81396484375,-0.72985839843,0.0004070652456887,0.0201471787189085,0.6224035783212215,0.56066894531,0.65002441406,0.0002771969772386,0.0166255672332111,-0.1316406943543466,-0.16247558593,-0.08557128906,0.0003273831184573,0.0180680118657237,1.0071919579368185,0.95784520938,1.02848920313,0.00036942128079,0.0191930140549918,972.0451214719584,971.89429629213,972.35904228135,0.02182352247076,0.4647459892199777,0.1475178762976786,0.0013758634462987,-1.061814135632453,0.58,0.42,0.6272878290162393,lift down
-0.7985434051399183,-0.84155273437,-0.7578125,0.0002902859971986,0.0170145533934628,0.6214213774019891,0.55212402343,0.67810058593,0.0005044303360292,0.0224289069383412,-0.1294846703604359,-0.24975585937,-0.08203125,0.0012201265757744,0.0348826888327162,1.0210642860856678,1.00656543135,1.03368402549,3.956239733299781e-05,0.0062812895081522,972.7789070479406,972.33860213127,973.18107768481,0.0612567271119033,0.8424755535399981,0.2471635390767177,0.0023067767253135,-1.1847546952458898,0.49,0.51,-0.1620310818001916,lift down
-0.8027701542258046,-0.84619140625,-0.76159667968,0.000380062408654,0.019467158891216,0.6358877598517528,0.56848144531,0.69787597656,0.0006583290974656,0.0256210332966013,-0.1287515574444827,-0.1787109375,-0.05456542968,0.0006529664850242,0.0255164681049318,1.0327619739139942,0.97756129495,1.09033041175,0.0004606539139623,0.0214319900107009,973.5681667571946,973.18107768481,973.85199562898,0.0431300452935741,0.6709179441700144,0.2073791416266617,0.0019573955665801,-1.447483006010443,0.45,0.55,-0.3960477012171337,lift down
-0.7716047776810656,-0.78674316406,-0.75854492187,2.0437164330007644e-05,0.0045145680948684,0.6488704160225409,0.63586425781,0.66552734375,3.810209404486776e-05,0.0061642509652656,-0.1667590532107377,-0.17846679687,-0.15124511718,3.3864339111213515e-05,0.0058113521313474,1.021899967985164,1.01154307456,1.04195392541,2.8014663698580652e-05,0.0052856523629151,973.7821134266547,973.74567660375,973.8088574706,0.0001005064404385,0.0631808668499616,0.0100115849233664,-2.5493165849099544e-05,1.016670329718104,0.59,0.41,0.6374076004128708,lift down
-0.8777239830044608,-1.09729003906,-0.55102539062,0.0090525514547718,0.0950061007329429,0.4827766974495626,0.15808105468,0.73950195312,0.018893173869224,0.1372519279633756,-0.0616412371307288,-0.45263671875,0.19860839843,0.0159256989654239,0.1260129690000014,1.0203472861359766,0.59589065351,1.25071387767,0.0099362757281515,0.0995354559654512,973.8668893543982,973.66655810896,974.28980610799,0.0159475460328603,0.6232479990300135,0.1260993724391899,0.000720645340186,0.7172398517226202,0.62,0.38,1.104355101093252,Null
-0.9006417505709808,-1.13049316406,-0.69641113281,0.0062388456013222,0.0788786791346502,0.4517426451765939,0.21154785156,0.73059082031,0.0121815321228864,0.110219507970529,-0.0069719777111716,-0.37524414062,0.28845214843,0.0149399636210774,0.1220625055999429,1.0215892192783649,0.84956286072,1.22870401657,0.0049138864394576,0.0700035506464518,973.9278089414169,973.76261782285,974.18422332185,0.0059154821894017,0.4216054990000657,0.0768073154674842,-5.2661394175262224e-05,1.3296892731655534,0.6,0.4,0.8753246422764452,Null
-0.8787614445251288,-1.09448242187,-0.70690917968,0.0068912316367507,0.0828944267569404,0.5143931041774498,0.24926757812,0.90686035156,0.014754309782128,0.1212931730266257,-0.0216875923396275,-0.43029785156,0.17272949218,0.0120816229814664,0.1097588499874792,1.0310876635902009,0.77859320935,1.30213807626,0.0078034079600862,0.0882102523800781,973.9669012670892,973.81274060433,974.42077523912,0.0084214816618521,0.6080346347899876,0.091637063145346,2.2336704339555312e-05,5.158585573058703,0.51,0.49,1.4328568972773634,Null
-0.8389534728126575,-0.90405273437,-0.80688476562,0.0002842532258976,0.0168366994965263,0.5691543370039177,0.43786621093,0.62512207031,0.0011061600765566,0.0332133933979121,0.1234602418627123,-0.11328125,0.21472167968,0.0027848827040136,0.0526996478962266,1.0232992764954247,0.97998507602,1.05878616357,8.257675065208433e-05,0.0090747183415831,973.906083373583,973.83460497299,973.98819572227,0.000430497428188,0.1535907492800561,0.0207199899415839,-1.3585614202314422e-05,2.9221424774355915,0.66,0.34,0.5085301637476933,Null
-0.8404942053497694,-0.89733886718,-0.79357910156,0.0005546432934995,0.0235169066384382,0.5859005622935446,0.50830078125,0.62731933593,0.0003337689229729,0.0182430001062859,0.1414928601140345,0.10900878906,0.185546875,0.0003660231586772,0.019104144495223,1.034672269806974,0.97845154969,1.08761989162,0.0004355772344718,0.0208403927186224,973.8326862981664,973.50506612282,974.0563170689,0.0164605628553501,0.5512509460799038,0.1281137232102288,-0.0009182820554425,0.39623544672083,0.37,0.63,-1.0899328655803873,lift up
-0.819818564262779,-0.85656738281,-0.76818847656,0.0003990095419063,0.0199479904362847,0.5777614499919619,0.52990722656,0.6162109375,0.000293162588286,0.0170986484888017,0.1391880960452861,0.01867675781,0.20788574218,0.0023342350130593,0.0482480538433655,1.0138775439402452,0.96170761294,1.04620693725,0.0003555529950632,0.0188304058854919,973.1963763998606,972.61507780239,973.52673018014,0.0518305872495319,0.911652377749988,0.2273529403622457,-0.0014298997837966,-0.4828720268127804,0.43,0.57,-0.4358207134246807,lift up
-0.8121501104375208,-0.83923339843,-0.76806640625,0.0002017821006202,0.0141852047390088,0.5998725572305013,0.56994628906,0.62036132812,9.328523430899592e-05,0.0096449669185366,0.1491301385106685,0.11169433593,0.20239257812,0.000630696428778,0.0250786685095758,1.021056576714206,0.99821034117,1.03371944398,4.145266537165436e-05,0.0064294010869748,972.871009335032,972.61507780239,973.00815206855,0.004929905326966,0.3930742661599424,0.070115426263769,0.0004703356838538,3.2516253696948123,0.31,0.69,-1.384824407243355,lift up
-0.859473994003315,-1.06945800781,-0.67346191406,0.008255753705257,0.0907366254714986,0.5187697319095342,0.20739746093,0.77880859375,0.0185607564590163,0.1360511119817011,0.0360194376058082,-0.51184082031,0.22680664062,0.0283773943506266,0.1682249923903534,1.027489092655233,0.7106353411,1.30342663583,0.0084469762139772,0.0917814459103308,972.8844111294268,972.66121217594,973.30024864286,0.0155621943673372,0.6390364669199471,0.1245775189124651,-0.0002624781216441,1.615502626372451,0.66,0.34,0.9167523831331672,Null
-0.8725668696994633,-1.26684570312,-0.43127441406,0.0177959284082536,0.1332128275506887,0.4894481594240678,0.11279296875,0.80676269531,0.0237657429159824,0.1539435222703058,0.030929996468983,-0.49328613281,0.50598144531,0.0329909881541123,0.1813774883284061,1.0293291032316385,0.51562851124,1.37347349048,0.0167601084690478,0.1292778539807562,972.8869836724436,972.62220659326,973.36390324951,0.0328601768118954,0.741696656250042,0.181017544601814,0.0003197516688555,0.6766699846563324,0.66,0.34,1.094956128195972,Null
-0.8904364991547513,-1.83642578125,-0.306640625,0.0787393354886217,0.2802174575434833,-0.063991146191464,-0.45153808593,0.62231445312,0.0709024505583785,0.265907103017744,-0.4122803408760497,-0.88146972656,0.23510742187,0.0490852241419004,0.2212456318214486,1.054334301902514,0.50947985184,1.94646285028,0.0536525370992576,0.2313100206882673,972.9179669864676,972.40091894395,973.62143727462,0.0828890842505899,1.220518330669961,0.2875067110168596,0.0003008883138317,-0.2309399916508128,0.55,0.45,0.4447462295395781,stairs down
-1.169983428864816,-2.11169433593,-0.23974609375,0.1699479073390939,0.4116630521532203,0.1842749922519547,-0.3623046875,0.59521484375,0.0432186874276052,0.2075963749329871,-0.0026734435858923,-0.78295898437,0.54333496093,0.0385393043769142,0.1960360371902649,1.2216994765050708,0.35107814484,2.12781862946,0.1617270345047096,0.4015829730769465,973.2038271696548,972.86554568123,973.39994906343,0.0141958618195899,0.5344033822000256,0.1189775059142922,0.000825508872636,0.3461052208845019,0.45,0.55,-0.7810862713821717,stairs down
-0.718173124781385,-2.03063964843,1.0830078125,0.6707145372099304,0.8178365375818133,0.3221002721357895,-0.06579589843,1.18078613281,0.0435995668425647,0.2085156886643738,-0.0883220979041828,-0.68542480468,0.41284179687,0.0448161901612255,0.2114049327478946,1.1181104806616895,0.33896061821,2.08583644736,0.1347536392367509,0.3665792689960819,973.2763939377965,973.03878785275,973.64118066666,0.0166443939424555,0.6023928139100008,0.1288343416486624,0.0001288989007587,0.0684978894081846,0.45,0.55,0.4100688305603188,stairs down
-1.0275435014166192,-1.93896484375,-0.14624023437,0.1531844728123957,0.3908315361520829,0.2522038546447442,-0.1806640625,0.88452148437,0.0386739679703854,0.1963774394964882,-0.0683236555606534,-0.453125,0.26879882812,0.0226759814997157,0.1503714105065453,1.0943077016961646,0.42185318855,2.02802023139,0.1409365449217,0.3748815239645595,973.5661935710224,973.33548108466,973.924412364,0.0144430680163721,0.5889312793399313,0.1200084854214227,0.000970870202823,-0.4459955827529631,0.49,0.51,0.0367570707654515,stairs down
-1.15865970843,-1.91027832031,-0.42065429687,0.1438273623046717,0.3787215984719303,0.2290936043227347,-0.28527832031,0.83337402343,0.0621964411603335,0.249047440836003,0.0890850256803591,-0.27258300781,0.55102539062,0.0271409002520401,0.1645172495195123,1.2228641709295855,0.49125677239,1.97307746091,0.1404240748737226,0.3742140604850106,973.8065129300876,973.68125725225,974.06016711499,0.005221505990604,0.378909862739988,0.0721601132268114,4.525389689215141e-05,1.7877658329933528,0.65,0.35,1.2678447006369389,stairs down
-1.0645280084652942,-2.20727539062,-0.37915039062,0.1165701810003145,0.3409452358996479,0.2175292968717927,-0.30749511718,0.78149414062,0.0421677898147505,0.2050601686248354,-0.0181207736997479,-0.5546875,0.36828613281,0.0304570383973996,0.1742748535054718,1.121811986022661,0.48500629017,2.27984923964,0.1113821522862105,0.3332718971978877,973.9740917555038,973.74293565665,974.39797008541,0.0184177105744104,0.6550344287599046,0.1355216600721518,0.0009240498555483,1.030024287536114,0.55,0.45,1.0148429923262368,stairs down
-0.9912347308618928,-2.28601074218,-0.7109375,0.0550600756985382,0.234317175558124,0.3707502979306214,-0.11572265625,1.99780273437,0.0590087145689991,0.2425737481363265,-0.1657401047161016,-1.19946289062,0.43627929687,0.0492990807830397,0.2217201340496046,1.1055781726238416,0.71369850681,3.26431801527,0.0882658610311147,0.2966757867447753,974.5056018067828,974.10416209541,975.10973947411,0.0450416730681908,1.0055773787000817,0.2119302637746469,-0.0009395967566154,0.3060447246848756,0.42,0.58,0.3880508829198446,Null
-1.0018167335862291,-1.92126464843,-0.33203125,0.0801616436740163,0.282732609488582,0.3619712104975418,-0.14697265625,0.73583984375,0.025968765772446,0.1609230478227643,-0.0926513671853631,-0.41540527343,0.47106933593,0.0435935991808283,0.208498991246275,1.1050708914501397,0.46194765964,2.00496187346,0.0711497329544871,0.2663662716705411,974.3143333290576,973.89599731183,974.94300050469,0.0372191171784616,1.047003192859961,0.1926529344806268,-0.0005635496677552,1.2717644601268638,0.54,0.46,0.570506224198092,Null
-1.125305342996493,-1.451171875,-0.81665039062,0.0265193624670515,0.1626244344478117,0.2273210081299726,-0.18737792968,0.57202148437,0.0196554714558766,0.1400057886272856,0.0879234000398904,-0.18933105468,0.24096679687,0.0082991820639911,0.0909749667704493,1.162761599615945,0.84461077298,1.51104696758,0.0281047137701101,0.1674147978952327,974.2436523760832,974.09697323666,974.42017232329,0.0052573622212506,0.3231990866299838,0.072408276385629,-0.0006101430275726,-0.9721809982838998,0.58,0.42,0.1950417190982246,stairs up
-1.1513789783788635,-1.51904296875,-0.68933105468,0.030405759586975,0.1741246093696936,0.2174363569741193,0.01977539062,0.48510742187,0.0146970247083299,0.1210589600039036,0.0998042713488352,-0.21960449218,0.357421875,0.0162598311860532,0.1273327863663565,1.189030748227642,0.7227735785,1.5777359379,0.0303935286564225,0.1740895844229565,973.9835531640304,973.80315184472,974.17483485629,0.0080996445330422,0.3716830115699849,0.0898700961346721,-0.0007442341436716,-0.8300295529793584,0.46,0.54,-0.277019036443116,stairs up
-1.1631724311673262,-1.65148925781,-0.73840332031,0.0595062329218563,0.2436126543248502,0.2373321043584492,-0.083984375,0.54443359375,0.0279219500949271,0.1668750804474787,0.0348197406619786,-0.19372558593,0.4091796875,0.0152431721198967,0.1232980736880796,1.2055390437125668,0.73897734629,1.73312719237,0.0610463456378188,0.2467450508413958,973.8086911903172,973.6994688692,974.02535846309,0.0034270380472294,0.3258895938899968,0.0584625935440315,-3.4000944896612695e-05,2.7767840913087944,0.56,0.44,1.3386822334434252,stairs up
-0.999032531559398,-1.52294921875,-0.05346679687,0.1076363024555105,0.3276093542337062,0.3164576664310028,-0.01147460937,1.11499023437,0.0515964625157596,0.2268228860784386,0.0638081460410028,-0.23962402343,0.28747558593,0.0104017953465023,0.1018429711630061,1.1059265263245843,0.59204839013,1.56283468476,0.0484969126714578,0.2199044179553836,973.7099925694048,973.22172707207,975.02441925898,0.0839942499921588,1.8026921869098944,0.2894021057088959,-0.0011255021804367,4.858587402007465,0.56,0.44,1.8219864832963937,stairs up
-1.1450487219731793,-1.50769042968,-0.79577636718,0.0205689140396758,0.1432236721059913,0.232942995815,-0.33093261718,0.75573730468,0.0344873104967109,0.185455102326835,0.0931432972758152,-0.46105957031,0.48254394531,0.029340808278402,0.1710586970052204,1.198281675312174,0.80675392186,1.57677688237,0.022424344199319,0.149544001823497,973.4930663287128,973.28863926931,974.71642314552,0.0403328124395842,1.4277838762100146,0.2005572546824996,7.636649205336802e-05,14.504008709902592,0.57,0.43,3.213853322028304,stairs up
-1.1559462436373256,-1.64147949218,-0.55041503906,0.0630152442692177,0.2506632410617838,0.2167170324957558,-0.06030273437,0.60266113281,0.0228622316718029,0.1509826867425957,0.0253554942989825,-0.32055664062,0.287109375,0.0179234290651207,0.1336836791596205,1.193219853769186,0.57760000878,1.6464630388,0.0637316967638717,0.2520841728540522,973.1827980986726,972.83811285021,973.65803369841,0.0135517289471774,0.8199208482000131,0.1162425670152054,0.0006371307621086,2.671149649959582,0.39,0.61,-1.1679946100630998,stairs up
-1.200003440460271,-1.62463378906,-0.791015625,0.0232123598271843,0.1521494452930784,0.2500082703434146,-0.09936523437,0.67150878906,0.0251620320078943,0.1584103602017715,0.1417156932772357,-0.3056640625,0.44763183593,0.0174085267222747,0.1317624724384054,1.2489645883118972,0.80158830307,1.58926284918,0.0264714022891211,0.1624797343410415,973.1525582715706,972.87978742918,973.37086928375,0.008397703900932,0.491081854569984,0.0915147304852092,-0.0005073705866611,0.1128910606770134,0.54,0.46,-0.1992484993512512,stairs up
-1.1863988759531194,-1.68041992187,-0.77087402343,0.0553304534233874,0.2348811191818121,0.2399300889410787,-0.09655761718,0.56298828125,0.0279693171176559,0.1669963290586419,0.07748653311586,-0.23461914062,0.36938476562,0.0187084616795241,0.1365793471190545,1.2320179040463557,0.77897566674,1.71642080187,0.0551163084370386,0.234426149333128,972.8805324462672,972.74436144645,973.0575221278,0.0064841554122997,0.3131606813500411,0.0804067855912371,-0.0005041269450792,-0.8341727141214119,0.53,0.47,0.263816910199265,stairs up
-1.1726803986885057,-1.65417480468,-0.74792480468,0.0458752702334459,0.2138939203741635,0.2655583257223369,-0.01611328125,0.572265625,0.0221160049015651,0.1485123128301444,0.1135897429069565,-0.13549804687,0.42456054687,0.0215899706257589,0.1467354838725773,1.2247698443247554,0.75066967709,1.7053315716,0.0480102811375329,0.2188145754218637,972.8064988421946,972.69348483161,972.98231296034,0.0035212372313058,0.2888281287299605,0.0592593338797605,-0.0001818495154751,-0.0287481412718162,0.49,0.51,0.4148237911997958,stairs up
-1.1707472160643582,-1.60290527343,-0.76049804687,0.0339920061654444,0.1840938279528234,0.2407365030289254,-0.09533691406,0.66955566406,0.0298768369239664,0.1725909972627012,0.1324426451701194,-0.20751953125,0.32238769531,0.0105666750961415,0.1026407949229824,1.2180310627748658,0.79014702661,1.62120231356,0.036223291637008,0.190039896885472,972.575373709062,972.36331411848,972.79094041971,0.009707827775933,0.4276263012299068,0.098381142428603,-0.0008825412046507,-0.4066885219884786,0.48,0.52,-0.0095264774824639,stairs up
-1.010936375229973,-1.88916015625,0.21545410156,0.2526750187665713,0.5019863171622833,0.2865747798075068,-0.79370117187,0.98852539062,0.0977468196165315,0.3122209523501032,0.0998899051471544,-0.72766113281,0.66320800781,0.0645852476510782,0.2537916859939784,1.1969020005533062,0.5377794698,1.92588974142,0.0956627075200895,0.3088745036260275,972.4058798578068,971.60069558376,974.37833804947,0.2159294971831434,2.7776424657100733,0.4640520686238014,-0.0002734801179011,7.061573291437256,0.62,0.38,2.1766810728908013,stairs up
-0.3994098042321802,-1.58508300781,0.29040527343,0.333764432884261,0.5768831661955738,0.6564072010094767,-0.45727539062,1.28100585937,0.1429846207054556,0.3775830607141806,0.2180704516010756,-0.38830566406,0.71228027343,0.0579896764073155,0.2404601874876517,1.0562179378638372,0.57286663848,1.7173622511,0.0557031796423201,0.2356719155829194,972.3037756455452,971.24912628257,974.08521227389,0.2985590574280688,2.8360859913199192,0.5456108074363624,-0.001005295726745,1.3288255943233,0.45,0.55,0.7631265812567628,stairs up
-1.162981989667563,-1.62170410156,-0.5625,0.025082447100598,0.158152420611049,0.2489177799991876,-0.00842285156,0.54675292968,0.0205282660827313,0.1430760774442791,0.0590543346231932,-0.37268066406,0.3193359375,0.0164588429706463,0.1281122155340694,1.2056168531137257,0.56859782876,1.63198793845,0.0263354809146612,0.1620546576330299,972.0232601909026,971.81456053401,972.13185992946,0.0038169447092482,0.3172993954500498,0.0616948376071578,-0.000333272922313,-0.6712786802103676,0.42,0.58,-0.4451296821894597,stairs up
-1.20060952861309,-1.66918945312,-0.75378417968,0.0548104599723845,0.2337872922255826,0.2554424157269382,-0.12072753906,0.53601074218,0.0279874598669542,0.1670594008329188,0.0856696996785674,-0.16931152343,0.46081542968,0.018322025286026,0.135168631430754,1.2489231163139043,0.7983279166,1.71324111066,0.0552354710808234,0.2346919582413949,971.897110533018,971.78550350339,972.02835809256,0.0026729150319587,0.2428545891699514,0.051627578324639,3.550511047161766e-05,0.0492126283276297,0.68,0.32,0.8599909694693805,stairs up
-1.1739091632715686,-1.66101074218,-0.72839355468,0.0368764112362612,0.191763176774614,0.2449513496767227,-0.08752441406,0.49133300781,0.019502645802349,0.1394561455884914,0.1235478077928011,-0.16125488281,0.52453613281,0.0228063637097227,0.150806101792954,1.2220973191555462,0.74169008752,1.69977243983,0.0388786071506824,0.1969002374025892,971.7371102553248,971.52963621526,971.98181427716,0.0105951027071482,0.4521780618999855,0.1027882510226957,-0.0008617902630907,-0.4243011176709785,0.56,0.44,0.295706616382499,stairs up
-1.1379298789787955,-2.07250976562,-0.45227050781,0.1091303858779534,0.3298858871224305,0.2062793379038375,-0.83215332031,0.65881347656,0.0406567777428834,0.2013526588138104,0.0636571034653501,-1.2958984375,0.50830078125,0.0642142165691447,0.2530500836080659,1.199159555939748,0.46133526918,2.58207835617,0.1172344854017319,0.3419153367245192,971.5040257355328,971.34802460689,971.84959503693,0.0136295211673665,0.501570430040033,0.1165819164232848,0.0003615755683813,1.8071086017861768,0.57,0.43,1.4769242165913736,Null
-0.8866834775539376,-1.18347167968,-0.64978027343,0.0104998904079589,0.1023237297791916,0.4402090618327479,0.12670898437,0.71020507812,0.010728991374576,0.1034340255008247,-0.1712829762711614,-0.40625,0.10205078125,0.0135818164896571,0.116375861280751,1.0189978743571673,0.68645491061,1.27380300904,0.0057010321328036,0.075398155813871,971.652638856748,970.88344647322,973.19207057467,0.2185151093289736,2.3086241014499365,0.4667934086470912,0.0017320946601503,1.2510445192962614,0.64,0.36,1.210897208552516,Null
-0.8569427745217828,-1.12243652343,-0.64770507812,0.0108383849417503,0.1039624665658114,0.4767780782077715,0.16784667968,0.73315429687,0.0173922062231463,0.1316957097488652,-0.1830480038920612,-0.41552734375,0.09680175781,0.0129142246865249,0.1134823859275543,1.0152753926724234,0.76467199764,1.18353325465,0.005530589891555,0.0742642871687435,971.3249415725218,970.39407955269,972.07568243777,0.1096638582643395,1.681602885079997,0.3306937978055488,0.0013537439320382,0.1039984556302249,0.53,0.47,-0.2704525853072425,Null
-0.8944356152936944,-1.08801269531,-0.74401855468,0.0061600495452756,0.0782356284624265,0.4473449318230573,0.26428222656,0.67932128906,0.0147091327696751,0.1208943506782646,-0.1067120011434395,-0.33129882812,0.19592285156,0.0230219243460747,0.1512457863388983,1.0258744103979618,0.88530712104,1.19155934085,0.002730641304597,0.0520888537484032,971.5082588738476,970.96660917476,972.22070467674,0.0772226620082736,1.2540955019799185,0.2770032453222326,-0.0016161399616366,0.305312639164061,0.61,0.39,0.6070783036287929,Null
