avg_accX,min_accX,max_accX,var_accX,std_accX,avg_accY,min_accY,max_accY,var_accY,std_accY,avg_accZ,min_accZ,max_accZ,var_accZ,std_accZ,avg_magnitude,min_magnitude,max_magnitude,var_magnitude,std_magnitude,var_pressure,range_pressure,std_pressure,slope_pressure,kurtosis_pressure,skew_pressure,Label
-0.9753211435606818,-1.03051757812,-0.89233398437,0.00041119236222681403,0.020252259075859567,0.27206359246386363,0.13049316406,0.5234375,0.004877995208824963,0.0697544051591418,0.06849100131868686,-0.13305664062,0.20361328125,0.002805681038846514,0.05290175786982994,1.0185617791591668,0.97252261151,1.10514007777,0.000568713887273593,0.023817593100345154,9.623966600153e-06,0.014421904059986446,0.0030983323989192987,-3.3843256749354082e-06,-0.29875748709356564,0.10628514466349037,Null
-1.10255065917585,-3.08911132812,-0.30053710937,0.21614520832056547,0.46433268816632334,0.36558380126629997,-0.28125,1.23608398437,0.0931620935234985,0.3048428911581993,0.03557678222759999,-0.4814453125,0.75,0.07265892590325476,0.26921604444849984,1.222169852737475,0.3198884157,3.28241878991,0.23844345109849796,0.4876959528956045,0.0010659572731519908,0.14321630814004038,0.03260816431461776,-0.00021234654090342579,2.3271863888338435,-1.7868906927709525,Null
-1.3240643310502997,-1.81970214843,-0.77478027343,0.04409900919804655,0.20973497961725754,0.21924224853274998,-0.07934570312,0.62646484375,0.029210868954652885,0.17069810128488908,0.261478576656875,-0.11218261718,0.47644042968,0.019088659092605684,0.1379889033396315,1.3851373367858748,0.83868692257,1.8862643988,0.044109757210104565,0.20976053684399099,0.008105313360243125,0.3220255141799271,0.08991690651286062,-0.0007750466928409652,-1.2391655335017855,-0.1452396912880178,stairs up
-1.1117028808558,-1.51391601562,-0.58251953125,0.03542022037456914,0.18796720411718829,0.23615478515260002,0.02575683593,0.66918945312,0.01750485137579033,0.13214041489018738,0.14639770507609998,-0.12805175781,0.5185546875,0.02458523547504153,0.1566006781158815,1.1636536181443,0.65088033711,1.55809873593,0.03640246049259483,0.1905556463119457,0.0012013013125920112,0.10377487839002697,0.03461644203713794,-0.0002670336830444591,-1.2649247665264662,0.5992411934924402,stairs up
-1.1055798339813,-1.81372070312,-0.37646484375,0.06419323294226485,0.25304693212902063,0.24501831054370002,-0.34130859375,1.22009277343,0.048920757398146886,0.22090372451511886,0.09642089843620001,-0.80236816406,0.53466796875,0.06016678059471629,0.24498237414807927,1.1855223981607,0.49994744084,1.89461735795,0.05916986860023167,0.24294432269293942,0.0011032999728759188,0.13517741590999321,0.03317441367897448,-0.0002252510936691656,-0.33984449215262824,-0.7807387944142848,stairs up
-1.2991821289029002,-2.12072753906,-0.77856445312,0.0515704296883976,0.2268071948024943,0.1681005859359,-0.46130371093,0.74145507812,0.05903787023616756,0.24267318673594152,0.270921630856,-0.19763183593,0.60510253906,0.023485899537394533,0.15305941587681252,1.3678776663213,0.84204995229,2.20622939337,0.052331022616390555,0.2284736200524025,0.008817147046363792,0.296418838370073,0.09378221675108711,-0.0008102505607653908,-1.2545629550663293,0.04064659431753497,stairs up
-1.0199475097619,-1.28051757812,-0.80871582031,0.007455571580679114,0.0862376521696145,0.1859753417933,-0.04577636718,0.42846679687,0.011599779276785646,0.10756755936895511,0.016071777343599998,-0.25244140625,0.25048828125,0.012147806108386075,0.11007922870875826,1.0476413706425998,0.8125159372,1.29852989616,0.008732591522077839,0.09333145259382095,2.7641441505702103e-05,0.022460421489995497,0.005250936859450687,3.9235305066938135e-05,-1.0188484047987723,-0.09675291899689939,Null
-0.7808825683553,-1.25036621093,-0.26428222656,0.030007529824818153,0.17301014710200124,0.6233166503873001,0.13134765625,1.11462402343,0.03354683713942575,0.1829288660834511,-0.07395629882589999,-1.22277832031,0.26586914062,0.04895895865097152,0.22098995736083593,1.0487829164246,0.61022631771,1.53209336566,0.016097446482453134,0.12671701885006212,0.0007160375883111907,0.12734926899997845,0.026725409151973946,-6.520149677587193e-05,-0.058621803472917566,0.5498817507871449,Null
-0.8491186523401001,-1.08312988281,-0.63891601562,0.021814274005187557,0.14751182434020194,0.4186181640597,-0.3310546875,0.81188964843,0.10778432318952917,0.3278945903511605,0.039516601563,-0.16369628906,0.57861328125,0.026922502038715337,0.16387554968212478,1.025623221075,0.90356899653,1.12468340843,0.002037112490618914,0.045077929293528635,0.006069275296161905,0.5560769285799552,0.07780811081064429,3.9048914936822515e-05,10.643192232748348,2.3719275211984687,Null
-0.9998022460899,-1.08715820312,-0.92517089843,0.0008695106996521884,0.029450584423794682,0.1797900390585,0.04162597656,0.31555175781,0.004195131669978085,0.06468882315209591,0.0754003906234,-0.08996582031,0.26586914062,0.009775698596792627,0.09874846505288395,1.0253036720072999,0.96312765643,1.13663454169,0.0011727605202995661,0.034202757476537136,9.24349220859723e-06,0.01238178278003943,0.0030365084353704236,3.959077723441075e-06,-0.9152650861035534,-0.21841308182666402,Null
-0.8278662109337,-1.48254394531,-0.50866699218,0.02980680521868131,0.17243053153555668,-0.0330224609377,-0.50720214843,1.07934570312,0.1604555801849299,0.40006804575530347,0.41073730468409997,-0.01904296875,0.86315917968,0.04339614999588275,0.2080568663151809,1.0362438416757,0.77000383688,1.6038325388,0.014467337587840077,0.12012980164751158,0.0033689097698424413,0.4482026345299346,0.057969711879720734,-0.00015660339538327354,8.011874415662948,1.9203809463953998,Null
-1.0003979492154,-1.60852050781,-0.70751953125,0.024622508642894825,0.15671934268394436,0.3441516113246,0.08044433593,0.88806152343,0.03261695896907985,0.18037576492327662,0.056093749998299997,-0.3466796875,0.26452636718,0.015252195646895197,0.12334530861681751,1.0847467239261,0.80247648417,1.70396277619,0.018063033776620337,0.1342306827524124,0.00013728317983179603,0.05700608775998717,0.011702135355661229,7.81237143342341e-05,1.365807794827779,-1.1287565036797302,Null
-0.9477453613247999,-2.10717773437,0.66845703125,0.23195221258280715,0.4810117795349197,0.2977087402306,-0.28857421875,1.48278808593,0.0759796179190286,0.2752992351501018,0.05562377929529999,-1.19934082031,0.49645996093,0.07606942314585725,0.2754618840928679,1.1234446803925,0.31056685953,2.4842545762,0.11113691163532904,0.33295505606048503,0.00046560643353417116,0.09950346689004164,0.021550926139039493,-0.00011607480070020274,1.313264670246471,-1.488120008941927,Null
-0.9597740268430174,-1.52392578125,-0.51550292968,0.02822593375541395,0.16779614087690156,0.3042345308581796,-0.18090820312,0.86450195312,0.06870413766850961,0.2617877110453691,0.1148495947612469,-0.21411132812,0.54907226562,0.03363895191632633,0.18318041449807648,1.0673370590023192,0.78751339257,1.55330367298,0.01799515476628146,0.13397865154049707,0.003265226169679299,0.4442848555599994,0.05707086350342644,-7.256163952773913e-07,13.030310208727599,2.442426039058394,Null
-0.971438598629075,-1.28588867187,-0.59606933593,0.00907420155058642,0.09513945578312898,0.2781100463834,0.09362792968,0.69653320312,0.016931374277671968,0.12995786179365135,0.10593383788755002,-0.05285644531,0.25695800781,0.003588077327229796,0.05982563943587834,1.027128659566,0.76467915908,1.35149558127,0.0067366582601398285,0.08197448758296376,0.027497602052444916,0.43421867925007973,0.16561659955244162,-0.0014007375486224211,-1.605658686181066,0.165151981385582,lift up
-0.9616558837855251,-1.09143066406,-0.64990234375,0.0053577745285787685,0.07310526719913772,0.30819305419537496,0.10546875,0.5595703125,0.008400187123298437,0.09153789737311095,0.008936767577375,-0.68188476562,0.2255859375,0.025246758745638222,0.15869354696639093,1.027589541173825,0.88910982009,1.15457711472,0.0028188538891307214,0.0530264722040595,0.0002924376728359812,0.08525368844004788,0.017079419739964564,-0.00010783232349853889,-0.28500866343791786,-0.5008200634563731,lift up
-1.0008569335900999,-1.65258789062,-0.76977539062,0.026435912993933067,0.16238787889324818,0.315673828121325,-0.03881835937,0.64526367187,0.023750285905143085,0.1539185180229469,-0.01765563964785,-0.22631835937,0.23828125,0.015005507665276167,0.12234375299177713,1.06971841492485,0.83686336154,1.70183392243,0.023091384091799585,0.15176842765071424,3.766462295663269e-05,0.02643913690997124,0.0061294748061511035,-4.145413960390664e-05,-0.21486166203728452,-0.40062596756026,Null
-1.022083463213267,-1.564453125,-0.75268554687,0.014378106280745557,0.11975913599433774,0.35958017553406485,-0.10949707031,1.53100585937,0.08074579027032529,0.28380350455435177,0.029025337047256863,-0.29541015625,0.4169921875,0.019840789205647948,0.1406815941348659,1.1171806628764838,0.76611287279,1.87706332324,0.04074349360134031,0.20159833550687478,8.239230421350034e-05,0.03621621062995928,0.009065695622548697,-4.3957133478899686e-05,-1.1312499169605819,0.12178993458466045,Null
-0.5366810581125815,-1.3466796875,0.83740234375,0.5386828759807479,0.7330298722322346,0.1311423700839349,-0.59924316406,1.23229980468,0.1675250340990083,0.40878499465875534,-0.10796308397884709,-0.80590820312,0.25219726562,0.0653931998705933,0.25540028805600057,1.0220022838226817,0.12756207479,1.8207684793,0.04216518847868179,0.2050841566639774,0.0014006869972200881,0.1465488917000357,0.03737882426578877,-0.0001975421533384558,0.8971808699160291,-1.5503282216267957,Null
-0.3279453952997506,-1.95727539062,0.89587402343,0.8040474730642564,0.8955681811824214,-0.0675085357894015,-0.44641113281,0.39025878906,0.06437789319446666,0.253411424012251,-0.06442420559860347,-0.5224609375,0.52087402343,0.1039069588643581,0.3219438448956473,1.0258681480115461,0.23646900612,1.98646980388,0.033842557503843185,0.18373394378447522,0.0011605431606685013,0.11020720785006688,0.03402424191768742,0.00025789301470771934,-1.6483558972954129,-0.2227523529727244,Null
-0.49936157226180006,-1.17004394531,-0.00537109375,0.11187001632708378,0.33405140515535336,0.37734802245915006,-0.09448242187,1.22045898437,0.14847115212024775,0.3848375946291463,-0.391572875976,-1.04663085937,0.31481933593,0.24082678271928715,0.4901272444605471,1.0156292966318,0.67455676944,1.27577609652,0.01352881224825617,0.11616793971503295,0.03551201678625302,0.6500035263500195,0.18821061804342334,0.0015226241204591563,-0.9545309082985689,0.6087579613094484,lift down
-0.98329197015599,-1.03332519531,-0.888671875,0.0007080985553658668,0.02657675435920857,0.23670565573644112,0.13293457031,0.44055175781,0.005226997108925567,0.07220731864253652,0.026497824149498743,-0.06591796875,0.23413085937,0.0059900682933789464,0.07729848375543517,1.0174440809791478,0.96551692505,1.08306577095,0.00029836691154400515,0.017251641220425402,0.0628541414709588,0.8511118252800998,0.2503929158229918,0.0021702488274501406,-1.1531088803003686,-0.08797403688121452,lift down
-0.42538642407551136,-1.16333007812,0.66760253906,0.5368864501949219,0.7318111650158239,0.4478385335453616,0.13000488281,1.02404785156,0.07967256886045612,0.2819111281061479,-0.1404916663407232,-0.52551269531,0.11486816406,0.04209478458652193,0.20491415290645132,1.02160725496596,0.66450294025,1.51557249784,0.014617214187014827,0.12075082724897394,0.051046003334164224,0.7914336762299854,0.22565173734705624,0.0019436308107688898,-1.1853703338615709,-0.11740933607431615,lift down
-0.7371006250949622,-1.39221191406,0.70593261718,0.31723830268246406,0.562532860566469,0.38257294848095236,0.10424804687,1.19567871093,0.06509266203791811,0.25481272051069914,0.06490530525413535,-0.08349609375,0.38879394531,0.010622515866044577,0.1029363542159062,1.027726886679198,0.49438829208,1.75339540123,0.029712640012989094,0.1721574054275127,0.04459620167839848,0.8136975364999444,0.2109133275764714,0.0018175266647911894,-1.0843159796649318,-0.22341075425648402,lift down
-0.9908100232780799,-1.01696777343,-0.87561035156,0.0006533518281213868,0.025528856649228236,0.18778341012339153,0.07495117187,0.30078125,0.005359964426656094,0.07312043443406589,0.04258031678513716,-0.04370117187,0.45104980468,0.009174147088155817,0.09566226484809019,1.016696295484489,0.98264316319,1.07080948561,0.00025907290732889084,0.0160756598691413,0.0016480939319959114,0.24510836609999842,0.04054607221502161,0.00022151034004908387,3.857628343348548,-1.5094495825145087,lift down
-1.0246130371059001,-1.40478515625,-0.83264160156,0.013580252847832512,0.11638858284089952,0.1837292480432,0.03112792968,0.44641113281,0.008363708038075937,0.09133892252474159,0.05782287597420001,-0.12756347656,0.29858398437,0.009232869359506972,0.09596763613900368,1.05029703017995,0.86180383602,1.45076909386,0.014944194428676928,0.12209354586793372,2.2235834733788838e-05,0.020140693089956585,0.004709590762152734,1.851939762314075e-05,-0.5155774279705261,0.2828526703058945,Null
-0.9924411247809524,-1.69482421875,-0.41064453125,0.07466511707627058,0.27290655260918856,0.10107850191781952,-0.41381835937,0.74780273437,0.11950448902151994,0.34526074063520784,0.3895242255997744,0.0576171875,1.17138671875,0.05319499373740197,0.23035119481151534,1.1568447222569425,0.7117326398,1.77315035356,0.055479345033019135,0.23524518922922266,0.001583562513107408,0.30112081532001866,0.03974410251538907,3.862842352491208e-05,9.691013866569458,2.1283844967214054,Null
-1.21109374999635,-2.994140625,-0.41430664062,0.2583518006094426,0.5076474378029687,0.5133526611297501,-0.72814941406,1.92980957031,0.24689750065902627,0.49626631651501263,0.0029223632809000223,-1.11950683593,0.97546386718,0.15007840072696643,0.38691498384677353,1.455760964135,0.62937555513,3.13653406428,0.2654004653837046,0.514525960686383,0.04408437041225491,1.3319972851199964,0.2097001656800115,5.042734620668338e-06,8.130077789801181,2.2905324250391033,stairs up
-1.6539895629845,-3.15393066406,-0.26831054687,0.602651730212138,0.7753354763498235,0.2440988159173,-1.02136230468,2.12524414062,0.6040073373988257,0.776207007862805,0.536177062985025,-0.3193359375,1.40478515625,0.1378462333436963,0.3708121057359604,1.949560838052475,0.33403534528,3.81230045992,0.6246698002028921,0.789371981832637,0.013874791165404333,0.41748058406994915,0.11764397216810907,-0.0009080883804561657,-1.2211236193165995,-0.21846093665433444,stairs up
-1.21322326659825,-2.24499511718,-0.44799804687,0.21155814478208754,0.45937920002992333,0.43216430663859995,-0.54064941406,1.31188964843,0.21449266543292053,0.46255424954197344,0.07367858886664999,-0.63977050781,1.30651855468,0.12981572387585247,0.35984883571600285,1.4233590970723,0.572682512,2.50315203146,0.19311374991718758,0.4388974430802652,0.023538993401107357,0.8597639246499966,0.15323232660768613,-9.350105365684797e-05,4.130746689077582,1.4724275720109803,stairs up
-1.4637659211460652,-3.15649414062,-0.51208496093,0.3541758017179166,0.5943804699575808,0.30369655828922304,-0.92590332031,1.75561523437,0.3211347456773291,0.5659769400697073,0.3106359037215789,-0.53076171875,0.99841308593,0.12280837033605586,0.3500008284764639,1.6564313588436343,0.6128322999,3.50251472127,0.3814793226920577,0.6168656532536135,0.01839671042912874,0.3967960876899497,0.13546439895945617,-0.0011251479593757186,-1.5830058135827871,0.09039535759836778,stairs up
-0.9586988339661594,-1.77258300781,-0.17797851562,0.20957639187114577,0.45722396861653275,0.34394817399576055,-0.22973632812,1.04113769531,0.08864306234222756,0.2973583819634445,-0.18912435707618452,-1.08288574218,0.50927734375,0.216214933514675,0.46440902677950746,1.227068021218828,0.62200436324,1.92372093482,0.08082897184866253,0.2839496493047874,0.005761947083796198,0.6076108869999644,0.07581278347646968,-0.00013812028047153053,6.196550627589433,0.31701121209084665,stairs up
-1.197485656734575,-2.89038085937,-0.39489746093,0.2469573643648839,0.4963264761766913,0.343393249510475,-0.89587402343,1.50085449218,0.26971419467553664,0.5186905717177128,0.19045288085755,-0.69543457031,1.27612304687,0.1694430706460694,0.41111976718403387,1.420141385314725,0.66853090244,3.1021548001,0.27104695895909575,0.5199705198967515,0.018609608038762777,0.5029535367299331,0.13624640919549355,-0.0011385361314981423,-1.5157650189250733,-0.08097161621575963,stairs up
-1.0415417480432,-3.00671386718,0.3359375,0.39401099868301376,0.6269178344777776,0.6974826049779999,-1.04504394531,1.99487304687,0.40362202221676663,0.6345179013717618,0.2963003540022,-0.33862304687,1.08776855468,0.09588970377408382,0.30927330876531944,1.516497604853075,0.56201927518,3.46951309178,0.2512371220887769,0.5006086588179982,0.0011504992449753672,0.16915264392002882,0.033876584787474205,-0.00012840341418976752,1.8144929702589945,1.288258690517598,stairs up
-1.479340820308525,-2.98156738281,0.10668945312,0.582116836926936,0.7620115122717102,0.430237731931675,-0.90234375,2.09875488281,0.49698258394480166,0.7040881532059318,0.3322503662093,-1.25524902343,1.42126464843,0.32584686346130576,0.5701159937264104,1.82905215319245,0.62977120053,3.62563347625,0.5418791563131774,0.7352036849896731,0.02126572132171565,0.5381381350799757,0.14564531238049291,-0.0011969524660141668,-1.0895420194513927,-0.3367800170211035,stairs up
-1.026236572262325,-2.50354003906,-0.32531738281,0.12239917171758671,0.3494183363652983,0.42137664794654994,-0.18664550781,1.63696289062,0.16971081466377946,0.4114444526629567,0.04155944824112499,-0.56481933593,0.55102539062,0.05372428495011662,0.2314950846945596,1.204626788922125,0.6594310479,2.52724734598,0.1266074731683182,0.35537438636654356,0.00396146253638337,0.44833106251996924,0.0628614260102522,0.00013608691930676987,10.253165138910967,2.324478616375933,Null
-0.9081555175743,-1.77673339843,0.21057128906,0.09764378311144448,0.3120892078455547,0.22406951904202496,-0.29870605468,1.068359375,0.16815392129747947,0.40955284945197945,0.16624725341469998,-0.2451171875,0.42468261718,0.020269804759109993,0.14219398808392786,1.0749998313444002,0.7649294847,1.79697750047,0.03240044685563405,0.1797760989077663,0.0007394356883583498,0.24930094520993862,0.02715855480575971,-5.2626030812261495e-05,13.766878883943182,1.1864264476335487,Null
-1.1513302612270002,-2.24768066406,-0.15600585937,0.13262319827766875,0.363719177775897,0.37840270995835,-0.20288085937,1.33056640625,0.10627673733371619,0.3255933744571316,0.135651855466325,-0.77758789062,0.48181152343,0.042045438981862866,0.20479337241328932,1.2910997911012252,0.5232964653,2.28027704798,0.10070751657852224,0.3169475473750758,0.0002462927946666422,0.14070582579995516,0.015674088894732464,4.423135292212312e-05,10.321315971918397,-2.3860984241110765,Null
-1.212611999507675,-2.25427246093,-0.30651855468,0.19237084649682595,0.43805241624785485,0.3075119018529,-0.34533691406,2.08544921875,0.12780053661177435,0.3570448645061919,0.23011688232112498,-0.22497558593,1.64697265625,0.06820646740561326,0.26083702044974216,1.3465064516318248,0.4464375856,2.31342071491,0.19275437820927532,0.4384888735917391,0.004846714807534303,0.26122215584007336,0.06953127368684876,0.0005602117984254499,-1.1175492796001603,0.12509299357077916,stairs down
-1.05522460937165,-2.3662109375,-0.01184082031,0.34262347609832733,0.584608345311698,0.29281890868852495,-0.16174316406,1.15393066406,0.07686233895001432,0.27689381196162416,0.421131896969,0.02954101562,1.22534179687,0.09560401091366824,0.3088122421251853,1.3007058825082247,0.57116709654,2.74613242033,0.19905791755252397,0.4456010241894005,0.005012272271996154,0.251865704089937,0.07070885086971902,0.0005791373181993801,-0.9060553388649204,-0.3935807731053039,stairs down
-0.85818695067965,-1.49621582031,-0.13623046875,0.16437914027827594,0.4049298611211332,0.2882672119106,-0.0234375,0.68225097656,0.03138062357554683,0.17692419850491894,0.39240447997719996,0.08972167968,1.20434570312,0.10173012818892098,0.3185526689080609,1.11360008817085,0.78632252933,1.55048908585,0.030280816666631252,0.17379618702654173,0.005332663590657668,0.5553825428399932,0.07293375029217286,-0.00010828926004652296,30.045512949973087,5.13542228768232,stairs down
-1.091143493648675,-2.26867675781,-0.275390625,0.11360033283332673,0.33662491292422697,0.19130432128719999,-0.30627441406,0.83837890625,0.04145116693576795,0.2033409427991041,0.20892700195025,-0.701171875,1.548828125,0.10122379427607871,0.3177589255872894,1.1833816482514252,0.56244581014,2.74420026938,0.12640044071258127,0.3550837078926599,0.006604634604446771,0.30860337375997915,0.081167253359564,0.0006852244544434629,-0.9668249017370472,0.28765810211571624,stairs down
-1.161191711422,-2.06237792968,-0.6533203125,0.09996494411369276,0.3157768702001597,0.12781158447035001,-0.2578125,0.56237792968,0.026327275414074484,0.16205387136856464,0.21020019530915002,-0.04760742187,0.58312988281,0.02124338876619983,0.14556881635255653,1.203771234938875,0.6621284257,2.1083366028,0.10725583670600654,0.32708973862571955,0.003013324244620759,0.26196735411008376,0.05482509401733122,0.0004461279525621911,0.06687480813475011,-0.7266780955076073,stairs down
-1.0640789794891752,-1.94580078125,0.10412597656,0.24858795081416543,0.4979623288333466,0.2679595947243,-0.16687011718,0.92150878906,0.05354821583877577,0.23111543717194405,0.30144714355035,-0.03723144531,1.09497070312,0.04689283378399405,0.21627667858447908,1.235586393596225,0.59761114511,2.01782530076,0.11671126941808863,0.34120300591369856,0.00031567203781500126,0.08003136874003758,0.017744938932565076,6.51514791825795e-05,-0.23421432586188384,0.31069225137573914,stairs down
-1.207485656734575,-1.88488769531,-0.60827636718,0.07482003038501897,0.2731903737488867,0.17445953368904998,-0.61279296875,0.80834960937,0.058953312370660045,0.2424993383284445,0.07840881347355,-0.24487304687,0.29443359375,0.008144460291420852,0.09013378467973206,1.2485486672465251,0.61973830535,1.91394371909,0.07748863779422865,0.27801963275952846,0.006662226826238928,0.2844844081400879,0.08152037327670507,0.0006983573095608234,-1.2551439091126986,0.207769603262707,stairs down
-0.9526525878865999,-1.25207519531,-0.3916015625,0.03582393335965497,0.18903537638827245,0.187029418943075,-0.32507324218,0.56066894531,0.036878790307328026,0.19179831420416527,0.02297882079999998,-0.74340820312,0.88818359375,0.09631920620613998,0.30996517254463385,1.0479116236758501,0.76840699072,1.35464488779,0.013569510753772067,0.11634254156106286,0.006159819212239531,0.6096477417898996,0.07838634871078594,8.921667537322453e-05,10.274118864692282,1.1857722182331931,Null
-0.9548922729452001,-1.28649902343,-0.16259765625,0.03969867485644139,0.1989960506374443,0.18135711669732502,-0.35070800781,0.93395996093,0.07247367566112539,0.2688726305743531,0.063192138670325,-0.6123046875,0.37036132812,0.05146393099272684,0.22657288267849934,1.0510464357947251,0.86110148832,1.37870608273,0.007249607725871388,0.08503813089759622,0.0005307844428457271,0.12903848449991528,0.02300994310594037,0.0001061527560973679,1.434120755111996,-0.997216352572463,Null
-0.9755963134725001,-1.33239746093,-0.71923828125,0.009871315429830194,0.09923022292253313,0.158442077634525,-0.28308105468,0.56311035156,0.032723063449095445,0.18066891207530064,0.179231872555975,-0.20568847656,0.61022949218,0.033804081898031586,0.18362889667284532,1.03768144181405,0.73960689833,1.35659091132,0.008364881645015561,0.0913453307011531,0.0021314748444843466,0.2766391553999483,0.04611015243276838,-3.595154480528853e-05,4.041844054731119,1.1005248281155413,Null
-0.32570159912145,-1.814453125,0.32739257812,0.36828486782722203,0.6061057297680447,0.7363067626915251,-0.13464355468,1.55480957031,0.16360118244715324,0.40397051809635237,0.194675598141075,-0.12084960937,0.50183105468,0.016445922450811827,0.12808125407211157,1.09245340417945,0.69098330347,1.95592765376,0.03912898893899503,0.19756306959208633,0.0003273240320740421,0.13012682448004398,0.018069469333487825,-9.58895444854952e-05,6.790809440700066,1.5444044377704789,Null
-0.63350311279035,-1.18200683593,0.486328125,0.19875574351109282,0.44526267994557445,0.579933471676225,-0.00659179687,1.4521484375,0.10452646190000955,0.32290113927525793,0.029874877930125,-0.33520507812,0.5703125,0.03222082894735004,0.17927709523244084,1.0235123832767998,0.51327933335,1.50518808604,0.02569244297518663,0.16008813781085926,0.0027630503085944213,0.3390864552899302,0.05249897792169801,6.732425389159406e-05,3.5105587835555,0.6636213176982036,Null
-0.9473486328088999,-1.06420898437,-0.67749023437,0.012192856363200265,0.11028315475308215,0.29181274413680003,0.05310058593,0.71447753906,0.03266498661735296,0.18050851545234528,0.1130114746059,-0.00805664062,0.25256347656,0.003712874694321269,0.06085714836882735,1.0204189236937,0.84829764996,1.11789533559,0.00259670593159049,0.05089414668467793,0.027895331943890097,0.4521654619400124,0.16681005249693548,-0.0013926305606666168,-1.4204410267122252,0.4149498832451923,lift up
-0.9798278808556,-1.5244140625,-0.24682617187,0.054304411349997826,0.2327415955982575,0.21888549804379998,-0.08654785156,0.81359863281,0.02800860587053713,0.16714839022814665,0.0708215332007,-0.93530273437,0.32775878906,0.07000251881473867,0.2642489593502722,1.0660445312892,0.52855173848,1.66448264123,0.02854439240680474,0.16873953723353555,0.00013968843805217015,0.05960108412000409,0.011804203359695212,7.642451214812495e-06,4.770978665540447,-2.2279745438838363,Null
-1.0731457519493,-1.72973632812,-0.51989746093,0.05140928017896877,0.22645254906607112,0.28714355468409997,-0.05554199218,0.94201660156,0.04018420297088445,0.20020924669819135,0.1512792968725,-0.22595214843,0.55639648437,0.022614402005538114,0.15019276281007773,1.1490135905794,0.64800122533,1.84790343875,0.05079577513062382,0.22509728050955494,4.3213352693918905e-05,0.02604365535000852,0.006565464135320831,2.582357963801473e-06,-0.9368020919033242,-0.025350514629284154,Null
-0.682134704587275,-1.51672363281,0.37231445312,0.192033607635515,0.4376682803407464,0.5992474365195499,0.03881835937,1.53820800781,0.12030008799429066,0.34640920567199845,-0.025940856933475004,-0.56237792968,0.5234375,0.03787843542996799,0.19438039855240824,1.0673207416689998,0.54164414786,1.73105503337,0.03532953240324601,0.18772641948388055,0.000467101349265566,0.1389158914799964,0.021585495034684796,-1.158332090951073e-05,3.6435477579549413,-1.2750565321116267,Null
-0.7787683105431,-1.14440917968,-0.17785644531,0.06288387753141185,0.2504529253923446,0.4429162597627,-0.17578125,1.00109863281,0.11684892788634438,0.34140416747109065,0.2472900390594,-0.08654785156,0.67150878906,0.022200072916909726,0.14881052628969985,1.0282936024298,0.82642768164,1.28942746862,0.007867239527685276,0.08858651945339123,0.012145547048418926,0.5317424252299361,0.11006899282176556,0.0003965818785797218,11.071183239366267,3.5520656330123757,Null
-0.9221484374962,-1.126953125,-0.65625,0.01275460167934948,0.11279501396405386,0.1336059570295,-0.44580078125,0.59729003906,0.06077896308649713,0.2462255382343206,0.3004931640587,-0.04345703125,0.69897460937,0.034803649691908634,0.18632402037225063,1.0312528456468,0.86562175991,1.27619248167,0.0030961142300981784,0.05557314049541319,0.050563962375952065,0.6957615121999652,0.2245830636312814,0.0019156755113949584,-1.350159254739733,-0.1975297762971724,lift down
-0.9487634277303999,-1.54248046875,-0.60632324218,0.035928952023344014,0.189312254339981,0.41116943359060004,-0.16137695312,0.88671875,0.06138148029917086,0.24744297645805777,0.1080432128879,-0.11975097656,0.330078125,0.011907759493631704,0.10898619222129757,1.0826965979976,0.87967558356,1.59303903616,0.01764301131837629,0.1326608600532966,1.745196016843625e-05,0.018686076350036274,0.004172329117892686,-1.2357436409930588e-05,-0.4119324719267059,0.25228079248038043,Null
-0.9099133300739001,-1.30041503906,-0.68420410156,0.01855812858366179,0.13605783058024493,0.4173742675749,-0.02221679687,0.79479980468,0.05116350509014331,0.22591059365912425,0.0475524902335,-0.17810058593,0.42602539062,0.017668336068856903,0.13275603650563222,1.0416829256792999,0.85246663698,1.41406451272,0.006489186942522504,0.08045473245972667,5.768553959188296e-05,0.02826352386000508,0.007585599893410096,4.51343078828763e-05,-1.0445628967657707,0.19151100951276492,Null
-0.4706774902335,-1.2333984375,0.14562988281,0.17684363700047143,0.42000181893412114,0.7734631347619998,0.18334960937,1.24597167968,0.06221155394132146,0.24911046757707345,0.1330187988265,-0.1962890625,0.43139648437,0.029060959425094433,0.17025952844564002,1.0440510255437,0.77402915865,1.40098938318,0.014917130367724655,0.12198293955223961,0.0012850023349586493,0.1937743259400122,0.035802092524337914,2.7753939886740853e-06,1.3543302631492145,0.7001172616606117,Null
-0.025928955079750012,-0.95617675781,0.51806640625,0.2696786766612425,0.5186564180356678,0.8198321533169499,0.28967285156,1.11206054687,0.06136099177438895,0.24740167601484225,0.09957427978432498,-0.26318359375,0.65319824218,0.03319022895682599,0.18195398699790538,1.0180121103422999,0.65030073856,1.30656205355,0.009707040965684784,0.09840108415698769,0.030338219403939423,0.8369363105000502,0.17396084000552992,-0.0006157982158134275,0.41844142338036283,-0.6793667065304103,Null
-0.5302124023403,-1.0771484375,-0.11962890625,0.05483522137301268,0.23387632056191612,0.6669763183560999,0.12353515625,1.11022949218,0.0524001511878799,0.22862447552681275,0.37097045898189995,-0.08532714843,0.95434570312,0.10587344148517043,0.3249750111646394,1.0344093532540999,0.83211382603,1.354253576,0.006190490418154361,0.07858125852968362,0.03486947756210871,0.6604371303900507,0.18650014441872007,-0.001533605663914451,-1.00457277231377,-0.5421098230455811,lift up
-0.8706152343708,-1.8330078125,-0.05456542968,0.16384990223693707,0.4042774758520993,0.21122436523140004,-0.23400878906,0.65600585937,0.0370351095167795,0.19220437493196543,-0.13772216797030004,-1.08117675781,0.39855957031,0.22079801696028212,0.4693037629487765,1.0975327143806,0.68902618978,1.93930290539,0.037699023902189516,0.19391950995821447,0.0006625883422473517,0.08920862423997278,0.025708595282351258,-0.00017492306926270357,-0.7217707030510967,-0.6646581084041073,Null
-1.0971231079065502,-2.16796875,-0.44946289062,0.09117386704763235,0.3015724330571567,0.29156829833620007,-0.169921875,1.15234375,0.047857914341665746,0.2184908912422016,0.18605346679325002,-0.2177734375,0.56262207031,0.021039505761977717,0.14486858526807245,1.1776659028840002,0.48316411976,2.22401728801,0.09632507427167208,0.30997461442187957,0.0005185585909245202,0.15491461261001405,0.022743398920284735,-0.00011615041394481674,2.7755982101591385,-0.7317615458145253,Null
-0.8201815795864501,-2.05969238281,0.08581542968,0.19589476809796033,0.44204641292257474,0.5959091186485,-0.18664550781,1.64343261718,0.12234775792695493,0.34934494204458943,0.11348632812315,-0.73352050781,0.72473144531,0.07954157859039948,0.28167840642108777,1.1600940745701749,0.47440811096,2.10892104103,0.09188574471613488,0.3027474696084916,0.02423342820799481,0.969970529410034,0.15547618672155175,0.000710319576319214,5.57557359517901,1.4034742593667497,stairs down
-1.0046640014615251,-1.21008300781,-0.85302734375,0.0035919700117044984,0.059858082885064376,0.208228759761775,-0.00817871093,0.474609375,0.010138994528393036,0.10056662986335008,0.09023223876722501,-0.259765625,0.55969238281,0.019886759575579834,0.14084403670954934,1.0435664490185,0.87213066208,1.35546315436,0.005366992908045728,0.07316813121691447,1.8691170131615157e-05,0.019353296500071338,0.004317921051418856,1.6196320392403155e-05,0.5394528731731318,0.9440041336559086,Null
-1.2250997924769,-2.00134277343,-0.49487304687,0.10879929482743912,0.3294348138712278,0.11767517089695,-0.18872070312,0.62805175781,0.028021194879694265,0.16718595004513695,0.26536865234014995,-0.22412109375,0.71337890625,0.028235222910592998,0.16782322501166672,1.279508695758375,0.5076705881,2.08078175495,0.11292034068384137,0.3356159111724767,0.01048641056957261,0.3387005527999918,0.10227509248662979,-0.0008809722210554866,-1.3215568573055814,-0.05960942488846015,stairs up
-1.0644302368127752,-1.58923339843,-0.61437988281,0.045598124760649866,0.21327008568654968,0.12397247314165,-0.16760253906,0.42224121093,0.016238641442638493,0.12727153978416345,0.20886413573939996,-0.28454589843,0.53430175781,0.027338437564056652,0.16513658428751185,1.1097252252749998,0.63506662128,1.6859755783,0.04959129872876736,0.22241250073218782,0.003668783186367922,0.220402895909956,0.060494720665542394,-0.0005029346080699239,-1.2692505793742719,0.39716604715543985,stairs up
-0.9926138305627,-2.18872070312,-0.01281738281,0.1850163439151207,0.4295972568061078,0.331488647458075,-0.29724121093,1.06848144531,0.09125793879390158,0.30171144152470725,-0.061694946290324994,-1.11828613281,0.53723144531,0.1747454195059656,0.4175027616162565,1.202210608673625,0.61461687131,2.22169484562,0.10381454813777512,0.321799645381145,0.0013083749405234186,0.13952399358004186,0.03612622320658651,-0.00020171750391844722,-0.4598626329545792,-0.6429752584437128,stairs up
-1.2366461181600998,-1.71240234375,-0.74963378906,0.053941512675147546,0.2319626239148447,0.1346755981419,-0.38342285156,0.43078613281,0.028693820204497674,0.1691806302564996,0.25833221435247494,-0.21459960937,0.5712890625,0.032384900015357945,0.1797329623784117,1.2934128598161498,0.78017757242,1.81324503236,0.05612283472943556,0.2366062713509766,0.006614654116278325,0.3620166448099553,0.08122879711646375,-0.0006912020518256561,-0.6019884837741825,0.15066382312550722,stairs up
-1.1374612426728001,-1.75427246093,-0.51391601562,0.06916588105180771,0.2626651220645371,0.15393981933387502,-0.52282714843,0.67443847656,0.06282287543751511,0.25033141682362064,0.1853054809543,-0.16162109375,1.06774902343,0.04640564982656962,0.21515026307676965,1.2116435240249,0.71716051985,1.86379848154,0.061876750693244234,0.24843924572520967,0.0017414242667616148,0.14114116133009702,0.04167818021572812,-0.00032682721694062727,-1.3185907738338836,0.44462806042467135,stairs up
-1.2052246093716001,-1.8125,-0.66528320312,0.09015523379018194,0.2998830533819917,0.201553955075525,-0.22204589843,0.54846191406,0.03195719197683003,0.17854214907659186,0.20531982421582498,-0.1025390625,0.52502441406,0.022386825018760523,0.14943512959211974,1.260862675823975,0.72611715142,1.89934867216,0.08993473827474828,0.2995161121359941,0.0008085501726942427,0.09737250501996186,0.028399450650716945,-0.00019806529358095594,-0.5386860533190632,-0.9572616573166068,stairs up
-1.1902575683556,-1.71142578125,-0.64135742187,0.056819774182710864,0.2380708397667679,0.131018676755675,-0.1865234375,0.43408203125,0.018039166583123396,0.13414197205448258,0.23569061278982498,-0.12023925781,0.61071777343,0.019474339036510753,0.1393759419301605,1.2343255738921248,0.65414332395,1.77267664918,0.06011715476932261,0.2448813220366129,0.007981225934377778,0.3027058850400408,0.089225965220567,-0.0007710956991298623,-1.1765871967037238,0.03159399658689877,stairs up
-0.8281945800751,-1.97375488281,0.11853027343,0.29592352470684813,0.5433081224269346,0.11937377929599999,-0.49536132812,0.95434570312,0.11444107977950914,0.3378682836255282,-0.1414617919933,-1.24865722656,0.41442871093,0.2428257185830717,0.492157143894726,1.145194256428275,0.53352723384,2.05230147191,0.06040627824460548,0.24546947376200154,0.0004194523047958138,0.07126175313999283,0.020454918089149718,0.00013766986833304933,-1.2601090630048575,-0.5236928319272096,Null
-0.9550122070277002,-1.98168945312,0.11743164062,0.20389030822755197,0.45097736357491724,0.38376342773097505,-0.23461914062,1.47827148437,0.11677949314863136,0.34130271668382567,0.13772399902234997,-0.14270019531,0.68078613281,0.042061850909940926,0.20483333782044874,1.1532819055646752,0.61749378282,2.08143934027,0.1103320836044664,0.33174727338058896,0.012423624671560404,0.47091604256991104,0.11132190085460049,0.0007575102623104476,2.0920102308349033,1.666864592332699,stairs down
-1.125546264644725,-1.80847167968,-0.15307617187,0.14407836695330226,0.3791017950840104,0.2420275878876,-0.12707519531,1.26635742187,0.055270161453554977,0.2348020145780719,0.16857055663802498,-0.18115234375,0.59216308593,0.029097321861795384,0.17036601350369415,1.2065925927246999,0.55836901111,1.8567666022,0.12617226119672245,0.3547630625413681,0.010690991107585297,0.49503602975994454,0.10326792159144259,0.0007613181247767333,3.5374850174027115,-1.835307044444616,stairs down
-1.3887493896443752,-2.58288574218,-0.58117675781,0.2200108170024566,0.4684664235139488,0.23149444579880002,-0.21496582031,0.72521972656,0.058975891592236554,0.2425457727177614,0.29104888915675,0.00988769531,0.74035644531,0.021382701325899398,0.14604535108172614,1.466613826295725,0.61781610998,2.68373778566,0.2161266891899228,0.4643127959328151,0.00013871468747276094,0.054130224669961535,0.011762988597889528,2.9712160898824537e-05,-0.19216239272559488,0.1990906677169777,stairs down
-1.15863922118755,-2.3896484375,-0.18200683593,0.21581991864245065,0.46398315577814303,0.23744537353265,-0.19104003906,1.0810546875,0.06033326994216969,0.24532108912059367,0.125818481443075,-0.30688476562,0.66918945312,0.03297984611898243,0.18137639456027616,1.23115612793045,0.50539292735,2.48800558242,0.20568577431041568,0.45295867347324265,0.005978040641850416,0.2904254956999921,0.0772210822265901,0.0006620443697151502,-1.1157676919636437,0.04605422718397079,stairs down
-1.23402221679295,-2.15222167968,-0.46484375,0.1397022033232746,0.37330007743766463,0.22875274657969996,-0.501953125,0.63623046875,0.04862783276559805,0.2202413748224526,0.219229431149225,-0.14086914062,0.73022460937,0.029331137097493923,0.17104914280624206,1.3034439255756503,0.4733584681,2.2381977312,0.1420190475894955,0.37638278383916784,0.004025522957990949,0.23933418151000296,0.06336765066337847,0.0005370603175138798,-0.9886895075533255,-0.1616914475908194,stairs down
-1.2125390624960999,-1.95104980468,-0.69677734375,0.10094872192626035,0.3173268821285784,0.26003173827904996,-0.31274414062,1.70227050781,0.09616523454551296,0.3097173250871659,0.24324096679295,-0.01818847656,0.55578613281,0.01501811496446399,0.12239513747307461,1.3021639092132,0.71595037509,2.40902387519,0.11328776513309133,0.33616148756253833,0.00040993213183094975,0.08978092483005184,0.020221456463404716,-5.376643651995756e-05,-0.17429804879395983,0.3145302082614555,stairs down
-1.0644531249962,-2.04321289062,-0.0537109375,0.17427267787724135,0.41693764064011807,0.25616699218432504,-0.12658691406,1.21545410156,0.0665804085659931,0.25770905600032395,0.15173736572,-0.20983886718,0.59753417968,0.03533342348267651,0.18773675698693057,1.1701635246136748,0.47498862102,2.11421303646,0.13163961499458784,0.36236792898530823,0.007382036838828144,0.33109808893993886,0.08581131479432694,0.0007235715918719154,-1.0295204192489895,0.2270266580324953,stairs down
-0.9774597167928999,-1.53295898437,-0.58142089843,0.023466453777902307,0.15299603799921602,0.34132995605120003,0.06616210937,0.791015625,0.027472186870996455,0.1655400447137156,0.1972662353485,-0.09606933593,0.67590332031,0.02453286523732458,0.15643379773639476,1.0803645788810499,0.81950597624,1.58226697131,0.018990283991339084,0.13763287500216195,6.20859889854274e-05,0.04438559481991433,0.007869610791707797,3.0799136594057145e-05,1.0213956725926483,0.30352095174170396,Null
-1.0121844482386002,-1.3095703125,-0.72082519531,0.00688497555249812,0.08287196820165957,0.1964062499964,-0.107421875,0.53332519531,0.014403271621260927,0.1198635200643122,0.1755487060523,-0.16040039062,0.52819824218,0.023109013214535828,0.15182635041882384,1.06313605052455,0.89048171982,1.41764420612,0.007958020855334019,0.0890961604290313,3.585908064480302e-05,0.033058215199957885,0.005980755215120496,1.663739157156247e-05,1.7662971680640212,0.7630152818349605,Null
-0.7491687011694501,-1.29638671875,0.17004394531,0.18769992120527343,0.432701596255734,0.34777465820044995,-0.33471679687,1.48327636718,0.12728092872179061,0.3563182936645074,0.2637927246061,-0.35900878906,0.89099121093,0.06366224769772762,0.2519981985619804,1.05177552448565,0.55670017124,1.72495357927,0.023310569650216658,0.152487026418942,0.004392451629857612,0.43587946851994275,0.06619267709333841,7.684993261856233e-05,4.596032415368381,1.0254290598789344,Null
-0.96843444823835,-1.01318359375,-0.82385253906,0.0007853995405215313,0.02798992750384015,0.24901611327725,0.14624023437,0.46203613281,0.003484711856174647,0.05895761254099601,0.19321899413639998,0.12194824218,0.25280761718,0.0006682020903869599,0.025817273000086443,1.02054081079065,0.91339714744,1.12104443032,0.0006318858315350573,0.02510589805117952,0.00029208602884752896,0.05582144590994176,0.017069148009652098,-0.00013195448124884643,-1.493782173621272,-0.37015175926621524,Null
-0.7388787841761499,-1.0478515625,-0.24755859375,0.07194475861673673,0.2678897099931143,0.47043518066004997,0.10668945312,1.00622558593,0.08138357288784821,0.28492124167149874,-0.06332580566519998,-0.77978515625,0.22351074218,0.10749548224914149,0.3274549488762059,1.0147135718229499,0.88032259942,1.14085169068,0.0017938806523127222,0.04230125235358807,0.036177809366739457,1.4597830469600694,0.18996674667773467,0.00022423972443631415,13.653889290904608,2.66529448891259,Null
-0.9542840576135001,-1.18310546875,-0.75244140625,0.0050751595265681035,0.07115104797367136,0.310204162593825,0.07885742187,0.54577636718,0.019509838793333515,0.13950291823596445,0.099685974118075,-0.15246582031,0.31311035156,0.007680326457144166,0.08752785637156496,1.0224794356271,0.78185665418,1.29202773895,0.0035513220319321227,0.05951843182453896,0.00322005199834091,0.2589310763700041,0.056674525744332946,3.305502961281942e-05,1.0521442012624815,-0.8182733581008933,Null
-0.68141174316095,-1.32727050781,0.18225097656,0.15413066407671908,0.39210373297958706,0.56344726562115,-0.05786132812,1.16955566406,0.0943089682118905,0.30671354028043946,0.18445434570094998,-0.51928710937,0.94641113281,0.10200072361743275,0.3189760520922992,1.0621462201034,0.55383673421,1.46582531912,0.03732115552790115,0.19294520631278042,0.0006073301486858361,0.17294382262002728,0.024613244875759912,-8.297431345163048e-05,8.960617726850181,2.289668424753248,Null
-0.36459899902209997,-1.46081542968,0.8291015625,0.6201108664587093,0.7864862295632152,0.4010534667935499,-0.04016113281,1.01452636718,0.049052531932583056,0.22120104114301,0.08258483886585001,-0.4228515625,0.81689453125,0.10878059512494852,0.32940650211727174,1.0235047150913,0.6027518195,1.71004331206,0.02910656706151329,0.17039307686599098,0.0011881743835897237,0.13358304160999523,0.03442679113177337,5.6877341683288065e-05,-0.6822265781734913,-0.7106386331602884,Null
-0.98794982909765,-1.15283203125,-0.87475585937,0.0017633371451568419,0.0419395851468985,0.2422796630821,0.17785644531,0.69750976562,0.008464393833543565,0.0918870657326683,0.13980041503575,0.08642578125,0.30688476562,0.001300788687197211,0.03602133694741518,1.0304184193975,0.95551109251,1.37439762814,0.00403612564865771,0.06345104675681927,0.04056933491133726,0.5845647524099604,0.20116637784197167,0.0017222022474060346,-1.49304760962297,0.17182265379991718,lift down
-1.0522814941367,-1.41015625,-0.82446289062,0.01324854885880077,0.11495837284275455,0.21175354003535,-0.04309082031,0.5546875,0.017792737510324043,0.1332225794171102,0.16092468261335,-0.01208496093,0.3076171875,0.004574683494945032,0.06755180816386538,1.0949419221599,0.84114197925,1.4550671161,0.014698521434551262,0.121085817216406,4.911029200472425e-05,0.028235034239969536,0.006999108248535126,1.2983261441886258e-05,-0.2935562648921235,-0.6305381577653422,Null
-0.7698742675746252,-1.93200683593,-0.0361328125,0.24645983655780856,0.4958262669185791,0.29123809814177504,-0.16870117187,0.99450683593,0.05170945985171868,0.22711271695369545,0.5547326660126499,-0.07800292968,1.26794433593,0.1021670863158642,0.31923607033052287,1.145508719100675,0.6577752984,1.97012042607,0.07258111745104988,0.26907185779531506,0.007863914685539918,0.4004024158100492,0.08856779831759436,-0.0006422338216351041,0.4881281176791741,-0.9277644815534227,stairs up
-0.9181768798793248,-1.353515625,-0.43139648437,0.039390788535091384,0.19822288355221165,0.20190979003637502,-0.14343261718,0.62512207031,0.02694659847003693,0.16394886999873418,0.296119384761625,0.01062011718,1.14270019531,0.03190002000577082,0.17838237008111646,1.0192874797456,0.63120156565,1.44753076593,0.030473100777201795,0.17434711934889774,0.003957479768662304,0.2456349701600402,0.06282981831296863,-0.00031799155188282085,-1.0024679121584563,0.09076669359585003,stairs up
-0.993275756832525,-1.47277832031,-0.73803710937,0.01871363139349715,0.13662667131645054,0.062770996091725,-0.34729003906,0.47241210937,0.01769412365425884,0.1328528823365274,0.26611145019155,0.05310058593,0.68041992187,0.01181563973691079,0.10856380905978065,1.04454097566235,0.75643340204,1.54830380159,0.01980606923960346,0.1405580096134847,0.002578339567605063,0.24482818184992539,0.05071384149013019,-4.299874299379884e-06,-0.3106626682546261,0.37798182161409716,stairs up
-0.967706909175375,-1.23999023437,-0.6552734375,0.021902277101727586,0.14780907079395794,0.07374969482282501,-0.16967773437,0.34936523437,0.011504486877739776,0.10712481346796095,0.29841857909785,0.09875488281,0.45715332031,0.0063960887431761876,0.07987551891110471,1.022517288791375,0.6889148913,1.31115248171,0.025174002624470428,0.15846472042038018,0.010807325845561428,0.49846662627999194,0.10382825978965228,-0.000535455436322569,0.08830635319862656,-0.09647608448129005,stairs up
-0.96052185058225,-1.31726074218,-0.65661621093,0.029015774356090897,0.17012711400655883,0.046021728514750004,-0.14709472656,0.24243164062,0.0068277025711876264,0.08252656126823447,0.288112487789725,0.06335449218,0.43347167968,0.007942000206226098,0.08900643350741862,1.00946038036475,0.68066443466,1.37124886681,0.03247597441171604,0.17998551184938957,0.006538199198192964,0.4665574048999588,0.08075799465190726,-0.0005429023712383109,-0.07593151092264616,0.18178297657707113,stairs up
-0.98192504882425,-1.33349609375,-0.70947265625,0.016522764339663015,0.12838012863684883,0.11257263183239999,-0.01623535156,0.39855957031,0.005826077395117719,0.07623327489771067,0.212941284176,-0.0888671875,0.45849609375,0.009329585918165335,0.09646896886237523,1.017982765125975,0.71711147171,1.39461784735,0.017547579892500276,0.13230159085501966,0.0028577480191788723,0.2247181755200245,0.05339104465292775,-9.307865647821424e-05,-0.49425594743208157,0.5741497571939419,stairs up
-0.9947317504846501,-1.28991699218,-0.69787597656,0.02303229907531864,0.1515741347579802,0.065260314939475,-0.14367675781,0.36352539062,0.009810479546372848,0.09892397761668764,0.2588311767538,0.00854492187,0.65612792968,0.010942014252217453,0.1044732464154671,1.039874316667625,0.72552347235,1.31222582405,0.023138324425735653,0.1519226073192246,0.003989721491029869,0.31649287011998695,0.06308523747519933,-0.0002155546856380917,-0.04322514311261516,0.1194081227159485,stairs up
-0.960731811520125,-1.27685546875,-0.68212890625,0.02755376466191122,0.165785645489157,0.06520355224445,-0.18432617187,0.44213867187,0.016412911569027473,0.12795264471711754,0.2998583984337,0.08471679687,0.49084472656,0.008761014352821641,0.0934832167661104,1.018705923645725,0.71629436455,1.35205646815,0.03208650475207252,0.17890301420096963,0.008806343879105968,0.3557548249099227,0.09372474603544255,-0.0007350368533801694,-1.0491456528360181,0.0010079593647329835,stairs up
-1.0005108079374814,-1.59777832031,-0.79968261718,0.01106452011856429,0.10505678368894901,0.053552033002019946,-0.06127929687,0.3935546875,0.006670218575101913,0.08156950786640797,0.24965174952947627,-0.1435546875,0.44006347656,0.013444367956973808,0.11580518492207816,1.0426696533358104,0.81733531198,1.60096633328,0.010182432961263003,0.10078214306295584,0.001392688229512119,0.1911544853999203,0.03727217717726301,-1.6949173685787195e-05,0.35032051324691693,0.34417471865591087,Null
-0.9532836914028,-1.2236328125,-0.67663574218,0.024838408880088002,0.1574049327622479,0.0612316894516,-0.23278808593,0.53454589843,0.014604111928651279,0.1206963199473358,0.300820922847925,0.0009765625,0.53271484375,0.010438212093157026,0.10203977931632414,1.01194367672515,0.6977994996,1.29444337292,0.028790345780787496,0.1694649518819025,0.006583032108129053,0.32337081642003795,0.08103440335967638,-0.0005970237604017754,-0.690326418507468,0.34000181782709404,stairs up
-0.9698842493336408,-1.21423339843,-0.71557617187,0.01626042451196419,0.1273572723675485,0.10296402547982544,-0.09216308593,0.37182617187,0.005816109333427231,0.07616826977243814,0.2406797337668828,0.00524902343,0.49792480468,0.0073452389025284925,0.0855974392054585,1.010834335531222,0.74466745745,1.25560141445,0.01680804507378133,0.12948409071931505,0.003391985394608967,0.25900054023009034,0.05816808900216302,2.635266559674557e-06,-0.11940314697793708,0.6151282294998834,stairs up
-0.9753521988523309,-1.29138183593,-0.66455078125,0.027211639341419395,0.1647526623277223,0.05502005746716792,-0.123046875,0.26379394531,0.008706060548300521,0.0931892743167271,0.2726359355382206,0.06896972656,0.45874023437,0.009158312225664935,0.0955790723024245,1.0221489623021305,0.69163372586,1.31807617536,0.028916482784962838,0.16983524486110238,0.0044566265720818905,0.331489895040022,0.06667426101522458,-0.00041364952183059933,0.4304788689810217,0.11538518082642381,stairs up
-0.9720328085999003,-1.3369140625,-0.65600585937,0.02694372253074121,0.1639406331655895,0.1345357918652369,-0.07836914062,0.45361328125,0.010796868930968831,0.10377834104856298,0.25424110621518703,-0.07348632812,0.64477539062,0.020077082758185063,0.14151683723195174,1.02638453566197,0.69935653437,1.42569211916,0.03187396201426425,0.17831005531013244,0.006250822903941156,0.3096421370199778,0.07896350306881596,-0.0005759513775028814,-0.7980800594349802,0.28049108480052876,stairs up
-0.9750422809918045,-1.25476074218,-0.56311035156,0.024581103352250548,0.15658702557022922,0.12452028508443609,-0.04333496093,0.37536621093,0.0074580162775189,0.08625151887010342,0.24810500371614036,-0.02258300781,0.50183105468,0.012720993772192168,0.11264595679511503,1.0230014043474436,0.62367448915,1.37357233446,0.02594994080306439,0.16088785957132587,0.0020247540864284817,0.21742510289993788,0.04494084461582022,-0.00013783893406770105,0.142236459718589,0.16646467044453722,stairs up
-0.9670135498010001,-1.27307128906,-0.68371582031,0.021124721609780406,0.14516166782506998,0.108099365231275,-0.1572265625,0.31091308593,0.007772076062411337,0.0880491105704953,0.254085998531,0.00122070312,0.50317382812,0.00877671640978167,0.09356695259950074,1.01282405726185,0.71359065971,1.33059457171,0.023210482074163066,0.1521593108192123,0.002457204450834752,0.24761049075004848,0.04950819568220665,-0.0002563951507227852,0.8971370702722492,0.6572645741517361,stairs up
-1.05882266988409,-1.4853515625,-0.29418945312,0.06902434549353142,0.26239705592125284,0.19377337904992517,-0.259765625,0.91125488281,0.06165948702086273,0.24800347318954533,0.16833283003206984,-0.32299804687,0.57287597656,0.030262952329789608,0.17374545640314673,1.1445887640104988,0.7345013104,1.54131558862,0.03754512167942456,0.19352388211034036,0.007287478672054443,0.33242380598994714,0.08526022172463024,-0.0007100592892463749,-0.660663546212116,0.317470037970205,stairs up
-1.024694519039475,-2.47473144531,-0.43994140625,0.04568084228914612,0.2134634399222107,0.0671954345676,-0.49401855468,1.14697265625,0.03834026863319496,0.19556180087535494,0.31096405028925,-0.00744628906,1.66467285156,0.08581933742472152,0.2925829610232963,1.10869956624775,0.6919631224,2.86880240579,0.09968151955618203,0.3153289009229753,0.0017509401333213484,0.32708288766002624,0.0417918985329459,-1.3396943926907619e-05,14.330138896777918,2.31738137018491,Null
-1.0027514648399,-1.38330078125,-0.44165039062,0.030898633284073742,0.17556020819326787,0.2686706542934,0.01586914062,0.65844726562,0.025554675618099185,0.15965835063990214,0.2399707031215,-0.07507324218,0.52404785156,0.01661750150467433,0.12874765143843456,1.0874199287963,0.54946668137,1.42320250802,0.025750767831856775,0.1602697442197907,0.001260108122151226,0.2821738524500006,0.03545360139458117,0.00010816736283832682,27.7685104414397,4.898769846245469,Null
-0.3061865234344999,-0.86633300781,0.57250976562,0.06923072262742444,0.26278821476781616,0.8094079589803,-0.01147460937,1.68103027343,0.04826769525688649,0.21942430589782955,-0.3286145019499,-0.82678222656,0.67016601562,0.09908341210941556,0.3143814618884867,1.0208506402953998,0.34442813048,1.92363930177,0.030860418763065688,0.17545161075395696,0.005804110185882339,0.4213121368100019,0.07608942048943225,-0.00016821751380538137,0.9160222005618244,-0.36484389287838676,Null
-0.8035516357392751,-1.09606933593,0.19152832031,0.12052857452864223,0.34673801795061443,0.4060897827107,-0.06970214843,1.14208984375,0.0718705943178274,0.26775159725393394,0.117013244625825,-0.90246582031,0.34155273437,0.04243339661203021,0.20573602776494965,1.0250972138836252,0.57886998401,1.22726511421,0.007736770400045429,0.08784889569052826,0.048443481598523,1.1701123441000618,0.21982350396289904,0.00023631892514069973,1.0569284431880286,0.2719143595969932,Null
-0.9506213378867,-1.07373046875,-0.82971191406,0.002374167279493043,0.04866448254419552,0.257307128903,-0.11730957031,0.53491210937,0.02202442176920784,0.14822064874633634,0.22275756835570001,0.01416015625,0.39733886718,0.008354839542107221,0.09129048385922792,1.0248106322603001,0.89602632809,1.14009341171,0.0019484049285398302,0.044085529555835896,0.03808547612535862,1.3710095713499868,0.19491090896880356,0.000766272861336115,9.980926206164531,2.4468405698721667,Null
-0.9678976387121446,-1.07995605468,-0.88708496093,0.001368934991845529,0.03695295913554618,0.13218327471977556,-0.07019042968,0.35302734375,0.010784631610237785,0.10371951247026814,0.24232539987533663,-0.02099609375,0.46887207031,0.014481533961601966,0.12018910271141693,1.0190185642053367,0.91063447593,1.12000399801,0.0011926754894914916,0.03449204598745181,0.005854378996828449,0.5181151704899776,0.07641845031115557,0.00026147572875161,5.376236462193026,0.602977166264224,Null
-0.9743817551655891,-1.00732421875,-0.94482421875,0.00015161117910347688,0.012297609573042517,0.062076272219774443,-0.00183105468,0.16931152343,0.001433365287277471,0.03781233784195005,0.2755946873982707,0.13977050781,0.37768554687,0.0022820842322102057,0.04771126410876467,1.016315740242857,0.96263896137,1.05221732469,0.00018585083764323832,0.013615617726353718,0.0009147687979912914,0.1828372330800221,0.030207220070079942,4.170209964349699e-05,3.9714915502424883,1.4550805380761767,Null
-0.9796386718717,-1.03088378906,-0.93615722656,0.00010827161315213937,0.010392349788149888,0.049875488276700006,0.02294921875,0.14660644531,0.0002889161659681923,0.016976273900749596,0.2648815917932,0.16381835937,0.3740234375,0.0008610579886877816,0.029307086919652423,1.0166184317868,0.99881737784,1.0538086373,8.402378998296041e-05,0.00915498391631591,7.268366565224924e-05,0.05982275440999274,0.00851480807112636,-2.0845091281562083e-05,11.101596710963134,-2.8926917048602485,Null
-0.974822465317631,-1.01953125,-0.93957519531,0.00019492574239612652,0.013944161620115665,0.040629322686608474,-0.03503417968,0.17053222656,0.0011871192281750333,0.03441160895827584,0.275557139861197,0.10876464843,0.333984375,0.0021888605819482734,0.04672688815613963,1.0154964427066584,0.95980633473,1.05180504709,0.00019076921137809114,0.013794690198909196,0.0004018221164840517,0.10365994199003126,0.020020491160764667,1.973897469017362e-05,1.4295627553319656,0.9326251561977351,Null
-0.9805090331993002,-0.99792480468,-0.95812988281,4.2576555318596574e-05,0.006516909845187371,0.032237243649025,0.00305175781,0.05029296875,8.310560361550323e-05,0.009104825072809717,0.25909759521112496,0.2373046875,0.30920410156,0.00020920900537901605,0.014445967702634826,1.01481795029025,1.00047364789,1.03719366848,4.746828235127298e-05,0.006881105408682154,4.274735734690568e-05,0.03845053844997892,0.006529968526228776,9.100225141445064e-06,0.908751354807944,0.14724630571087804,Null
-0.97792114257495,-0.99658203125,-0.96252441406,5.271826322433975e-05,0.0072516527472210705,0.027925109859525,-0.00061035156,0.05126953125,0.00010444991113142294,0.010207290843000134,0.265324707026975,0.23693847656,0.30944824218,0.0002734108138428612,0.016514456903218285,1.01385182543475,0.99558180574,1.03111060963,4.0853751811206595e-05,0.006383699353171214,0.0009487480024585022,0.14070717305992275,0.03076322695122142,0.00013694984041399255,6.4274119502169995,2.810735584924206,Null
-0.9890341186487001,-1.17602539062,-0.8623046875,0.003144551330996595,0.056006159952893604,0.061890563963325,-0.07934570312,0.23620605468,0.004391259080822104,0.06618369083936049,0.217777709957475,-0.037109375,0.38525390625,0.010221478914745306,0.10097487418887158,1.0215374937044501,0.86393995743,1.22258616968,0.0036291787184595495,0.06016731481180958,0.002822199335098331,0.26938281476998327,0.05305792906588595,8.910891807909449e-05,1.2883354673371068,-0.9538124558211495,Null
-0.9851049804654748,-1.49169921875,-0.57348632812,0.020542596061850403,0.14314761462104694,0.10468566894257499,-0.09948730468,0.26416015625,0.00635406080281447,0.07961266011638748,0.25967163085532496,0.01489257812,0.50122070312,0.013929288893565189,0.11787478810725929,1.033446884559325,0.60241408574,1.55818287971,0.021585649502313464,0.14673678945158122,0.0011607047794825666,0.15515103857001122,0.034026504632916094,-4.092729816588812e-05,-0.26690741888945,0.1112347438382917,Null
-0.9387857055627,-1.5830078125,-0.15783691406,0.07129423075988048,0.26667582414418595,0.23081756591400002,-0.01037597656,1.14685058593,0.033101022425635854,0.1817093004487436,0.19781951903972497,-0.29577636718,0.46948242187,0.02546004571622592,0.1593624661014486,1.016937738889725,0.5084321423,1.62215909766,0.06926938114650437,0.2628615751562752,0.010032010446397848,0.4926002977499593,0.10003464609964817,0.0006276758916965042,0.316655908505715,0.4937043216819563,stairs down
-0.05684631347525,-0.65954589843,0.37768554687,0.04509983871945132,0.21210160094316283,0.93279174804325,0.41101074218,1.62719726562,0.07087919116176021,0.2658984640494484,-0.2308352661109,-1.10278320312,0.23803710937,0.07582793382803775,0.27502429709657955,1.0210904479536,0.43269030639,1.64935317528,0.0745294116933576,0.2726592895247184,0.011160748273219636,0.7057845126399798,0.10551230450775202,0.0004781156690260058,9.671164174004872,2.334511935964278,stairs down
0.15784667968392502,-0.07250976562,0.33825683593,0.009704085050584444,0.09838610083725233,0.9330911254846751,0.63623046875,1.40197753906,0.023248750892922557,0.152284697247262,-0.387416381832425,-0.5908203125,-0.18994140625,0.009174810372656342,0.09566542398758657,1.0313012821631,0.74902678965,1.46961066717,0.024166484478597827,0.15526129030573374,0.00032121956568363413,0.07723642521989404,0.01790018203173993,-6.591083555810281e-05,-0.17182680141014206,0.5604551524830522,stairs down
-0.7840093994115,-1.74926757812,0.1865234375,0.2933881826393004,0.5409757038746769,0.3969345092745,-0.12890625,1.43591308593,0.1199102489093396,0.3458474711300724,0.140535278318175,-0.52978515625,1.06140136718,0.09273338362182404,0.3041406749561286,1.086914257286125,0.52490580712,1.82635646029,0.11536208550676556,0.33922511742646455,0.008394060578192567,0.33656091936995836,0.09150451041750393,0.0007797719899517458,-1.124155412107508,0.16549489139915888,stairs down
-1.218913269039675,-2.1611328125,-0.54956054687,0.13859875658699414,0.3718228875358894,0.1605416870103,-0.15991210937,0.66784667968,0.03345668611134173,0.18268290668823772,0.21385406493870002,-0.08459472656,0.5771484375,0.0217150222077696,0.14717586300834173,1.26731462696465,0.57538579561,2.22090407697,0.14481847300658238,0.3800742385693431,0.0022785884967469524,0.18606396580992168,0.0476748573726769,0.00038385721701220484,-1.0380151718757429,-0.30191226657824616,stairs down
-1.22474822997655,-1.94482421875,-0.55212402343,0.059962939478011394,0.24456702993109347,0.20950897216557496,-0.16088867187,0.65002441406,0.04104137941908521,0.20233332886733588,0.280565185543025,0.08715820312,0.65026855468,0.00748784310390255,0.08642409094773744,1.290965811260975,0.56972644689,2.05132777969,0.06280956425967903,0.25030489477641027,0.00032440102750686656,0.10232265944000574,0.017988608199026944,5.3131106721821366e-05,8.263968419385145,2.677566492788392,stairs down
-1.04627380370705,-1.66333007812,-0.29602050781,0.11166521554857518,0.3337454906207779,0.21504211425474998,-0.1630859375,0.64111328125,0.03444593030911209,0.18536400805803513,0.20674926757445,-0.11877441406,0.89709472656,0.0291804789880751,0.17060928401058634,1.1179585291332,0.52453150224,1.81157368798,0.10897179528050956,0.3296958686309373,0.005677122607616575,0.28721173187000204,0.07525244049927905,0.0006324912542272851,-1.0401651388549467,0.14243175447961842,stairs down
-1.05262634276945,-1.80908203125,-0.56726074218,0.0706816886568068,0.26552774701557047,0.1807214355439,-0.11022949218,0.60412597656,0.0184710696390146,0.13573832165205618,0.15309570312170004,-0.06628417968,0.54333496093,0.012894702052957735,0.11341280923169719,1.0919930765191,0.60427977199,1.91338664208,0.07364833243496212,0.27104282245408146,0.002934231590080923,0.2012230873799581,0.054100794921199825,0.00045362988476462055,-0.6409441325947469,-0.34498734482790594,stairs down
-1.28864562987915,-2.02673339843,-0.64721679687,0.10333200777956786,0.321050895903,0.17736206054525,-0.63659667968,0.86364746093,0.06371827587758956,0.25210906407326095,0.23704101562115004,-0.13293457031,0.46447753906,0.013265954886221848,0.115033864574769,1.3529650524149,0.80322478041,2.06641929131,0.09784894025464214,0.3124168975967938,0.00018837203419388063,0.06702284420998694,0.013707702364305841,-4.788632054552819e-05,1.2104704107962876,0.9002783948886062,stairs down
-0.9789727783171,-1.70007324218,-0.39379882812,0.10685245240827641,0.32647407443356924,0.25164001464589997,-0.15258789062,1.07360839843,0.07703362499727015,0.27720216617980636,0.1905981445286,-0.30859375,0.5068359375,0.020861998022260343,0.14425617153939962,1.0785629508851,0.55543289337,1.74878621156,0.09922427726374676,0.3146048578305608,0.005034442658788004,0.2784762654299584,0.07086505875352841,0.0005956102760841682,-0.8018295202659913,0.252197827011094,stairs down
-1.07930236816015,-1.869140625,-0.5263671875,0.09793433926407186,0.3125532009369152,0.17956115722375,-0.13671875,0.90490722656,0.03149235298960595,0.17723888429780846,0.16725036620790001,-0.17980957031,0.54125976562,0.02047873083724888,0.14292492438394275,1.12682377426385,0.54627890115,1.9484728722,0.10517026304224944,0.3238940218414718,0.005692373856850658,0.42545747253006994,0.07535345328655171,0.00044622243398453524,1.248378948184751,0.03397427418222875,stairs down
-1.169196166988,-1.49230957031,-0.89282226562,0.025927407281219356,0.16081849633365033,0.1425952148428,-0.28491210937,0.57360839843,0.03502322423927967,0.1869108508853391,0.1510400390586,-0.11437988281,0.36901855468,0.007444769182710781,0.08617515453861399,1.2045174954898998,0.89502882965,1.53903401053,0.027597173790147235,0.16591618623772628,5.399823053981564e-05,0.047302159720061354,0.007339157646723914,1.62921048861966e-05,4.005702290531315,1.4609604326942762,stairs down
-0.521110229491225,-2.31628417968,0.18273925781,0.5404759965230128,0.7342511876270309,0.6623120117160001,-0.28674316406,1.65026855468,0.2189286683485745,0.4673129001832745,0.16811431884517503,-0.25610351562,0.91333007812,0.03967552780193148,0.19893802799471663,1.161591747701,0.48042070722,2.49207587276,0.18672942376893278,0.4315815105046907,0.004866876067163654,0.34024274153000533,0.06967574095046097,0.0005173186496949624,0.5525750731413357,0.36690550766277097,stairs down
-1.0736083984336,-2.30041503906,-0.27294921875,0.1588567398242684,0.39806984057412304,0.2759552001925,-0.22387695312,1.47790527343,0.07991539093956927,0.2823395162959311,0.1908135986302,-0.1162109375,0.65100097656,0.027282577916719345,0.16496778919512606,1.1750059198451501,0.47019573422,2.35774780207,0.1503225617649972,0.38722958998581797,0.009578544696880343,0.3576146062699763,0.09774762572634765,0.0008382632924006033,-1.1919790193386601,-0.1296077691094348,stairs down
-1.3428955078089502,-2.32958984375,-0.22937011718,0.10252946047538362,0.3198017148549944,0.18688964843635003,-0.39099121093,0.9091796875,0.08719111429858296,0.2949120826836983,0.20286865234085,-0.24487304687,0.67651367187,0.03291570819038137,0.18119994183195925,1.415750552525,0.40477000761,2.42512781676,0.09742540448195844,0.31174002144536006,0.0001560290727764908,0.07632976312004303,0.012475536064416214,2.682200217644235e-05,2.182066685034618,0.016511064538399234,stairs down
-1.1452282714806001,-2.09619140625,-0.5302734375,0.09457721067723711,0.3071494223509854,0.21052124023194999,-0.24304199218,0.82678222656,0.04817780593624319,0.21921989285054078,0.11278625488055001,-0.21435546875,0.48266601562,0.02094013950774443,0.14452608470091158,1.1990414774446498,0.59023532122,2.15190503933,0.09440920228216297,0.3068764886342021,0.0034987875186753164,0.17726501127992833,0.05907656514963127,0.0004788716830390865,-1.5751924572258522,0.2587219733255715,stairs down
-1.1362060546844,-2.00646972656,-0.43505859375,0.18100174551944248,0.42491086260019745,0.21718688964599997,-0.13366699218,0.84436035156,0.04961519144139336,0.22246607261061152,0.1762322998024,-0.15295410156,0.53454589843,0.02662054864891127,0.1629539728797337,1.2026181748746,0.43511681643,2.03385315763,0.17994594945796075,0.4236697824772447,0.008099728338218247,0.29912524307997046,0.08988592224243294,0.0007319382987833222,-1.306810500096164,0.017162685827033224,stairs down
-0.16967041015292497,-0.50219726562,0.1591796875,0.020469165556171766,0.14289154153511446,0.9379052734335751,0.60461425781,1.26550292968,0.02968686867771502,0.17208326910545585,0.30219085692987496,0.07287597656,0.53771972656,0.015115708153692788,0.12279217761449039,1.0149253817805501,0.62343674901,1.35840286923,0.0348428523328637,0.18642892801824384,0.0038963574187277934,0.21562035273996116,0.06234273434154917,-0.0005352946457820078,-1.184638025658372,0.03331696029911223,stairs up
0.1133316040026,-0.19653320312,0.45703125,0.024924860671341035,0.1576786241684734,0.94931060790655,0.64990234375,1.27258300781,0.03303848421713269,0.18153756637839413,-0.0021051025380000254,-0.60437011718,0.71215820312,0.08784393506608991,0.2960140625518063,1.01482990944325,0.68376250227,1.33160161335,0.03179651549607204,0.17809274046780196,0.004124250808502716,0.23729456514001868,0.064140004532908,-0.00051764129393637,-1.0531360136280588,0.23384191502416574,stairs up
0.325040283199725,-0.09216308593,0.67504882812,0.022966379540968637,0.15135707314861838,0.88609191894145,0.60278320312,1.32800292968,0.03030974571841369,0.17387918608654013,-0.313269958492075,-0.67541503906,0.11694335937,0.033321148962700366,0.18231249570529612,1.026517579567825,0.76327223211,1.35826075587,0.02164469301808558,0.14693733795581151,0.0036198997305617424,0.2339596263200292,0.06009034848655263,-0.00018610619503040414,-0.9771545410298415,-0.07219298009935936,stairs up
0.212117614743925,-0.24072265625,0.56420898437,0.04541282257755844,0.21283629982010716,0.9480291748009501,0.66101074218,1.37841796875,0.03162368788409881,0.17760807601116727,-0.13444274902205,-0.64562988281,0.576171875,0.08808548123102261,0.2964207609597294,1.04880798421995,0.69201317781,1.39506179804,0.027531201885875174,0.1657177536691844,0.004044647381119334,0.2878808791700749,0.06351799558130385,-0.0001983655470440587,0.4606064901866329,0.9571191481072485,stairs up
-0.372246398925775,-1.70593261718,0.32495117187,0.3622376720325804,0.6011090399024946,0.6811352539026,-0.00219726562,1.33239746093,0.12255796603964372,0.3496449214911388,0.05348876953034999,-0.48657226562,0.58447265625,0.07964008415368869,0.2818527699762847,1.05844489838275,0.65946369975,1.83662436196,0.04821322716379773,0.2193004653344088,0.013905486687626822,0.5205918035799186,0.11777403351718814,-0.0006867383205076841,1.1727555264283733,1.2380555540367082,stairs up
-0.9503146362271001,-1.34008789062,-0.6376953125,0.025326187329756777,0.15894298305188684,0.18407562255489998,-0.04235839843,0.43017578125,0.009899541171578811,0.09937198960798693,0.28496612548475,-0.07690429687,0.5576171875,0.012469224638218878,0.11152601300424637,1.01826641234645,0.66186970336,1.40953929645,0.02896908728293058,0.1699901896131752,0.010992540357078908,0.41243210739992264,0.10471417767516589,-0.0006623476996713256,-0.6739379803815115,-0.3882514749702061,stairs up
-0.9828363037072251,-1.36840820312,-0.74829101562,0.01737815730219952,0.13166135313349936,0.1315875244102,-0.01330566406,0.35278320312,0.006118585722375167,0.07812355123821003,0.22221710204745002,-0.103515625,0.46606445312,0.009245136633940972,0.09603136879351518,1.023706710689675,0.768764191,1.41283774684,0.01739098982992013,0.13170995541471164,0.00231262610005717,0.24843029579005815,0.048029621431019284,4.433992582950389e-05,0.15207333158930103,-0.05980136696473021,stairs up
-0.9742239379840502,-1.36743164062,-0.6142578125,0.02827026390934107,0.16792733026392018,0.09933715820035001,-0.13220214843,0.37976074218,0.011135354930545934,0.10539220342710162,0.2715832519493,0.0712890625,0.45788574218,0.008143233384983392,0.09012699540937184,1.0240324332427,0.64222142716,1.41160962981,0.031604181296363644,0.1775532901500919,0.005337429555987565,0.3953366558699827,0.07296633458039123,-0.0004578500633570604,0.12383880666859115,0.027985034001174487,stairs up
-0.96011688232085,-1.26708984375,-0.67138671875,0.025238358070618517,0.15866714270901197,0.10162048339594999,-0.12084960937,0.49914550781,0.01514963838310666,0.12292991616018004,0.280906372066625,-0.08337402343,0.50927734375,0.011896937947664414,0.10893665867280515,1.01691619431985,0.68931420415,1.36990070332,0.029168136367022285,0.17057319844015567,0.006562654263836651,0.3868766499799676,0.08090888472953424,-0.0004762261945598324,-0.3292544788925831,-0.32180819892193757,stairs up
-0.949118652339725,-1.31042480468,-0.67919921875,0.02474159760576448,0.157097879081005,0.182505187985275,-0.05456542968,0.48693847656,0.00995822614130109,0.09966609541839108,0.2746527099576,0.01135253906,0.54016113281,0.012041174199867416,0.10959503302781448,1.01533660687885,0.72440971852,1.36006257875,0.02534756003309111,0.1590100346928092,0.004009463394726779,0.33549605582993536,0.0632411237743287,-2.6439255722716483e-05,0.21674088956754245,0.6683728448395386,stairs up
-0.9715805053674251,-1.31018066406,-0.69580078125,0.02329800753863636,0.15244593310347695,0.168641662593475,-0.00891113281,0.62097167968,0.011931581452967537,0.1090951534181749,0.261177368160425,-0.12915039062,0.48168945312,0.013814165340738883,0.1173866684397638,1.0314927389118251,0.72299686343,1.37019569786,0.025630256571617008,0.1598942804799095,0.002625844563526872,0.2599631610299866,0.05117890143524043,-0.0002172406836270087,0.14031502115496552,0.3658100106926988,stairs up
-0.9837423706018,-1.556640625,-0.67590332031,0.03643434252641296,0.19063907435281188,0.13027862548545,-0.09362792968,0.45397949218,0.0137192167534166,0.11698255729609033,0.26587585448877504,-0.18286132812,0.50903320312,0.019726331027232924,0.14027478461813742,1.041252839010175,0.6941495664,1.61066352778,0.04101178727862433,0.20226037132969912,0.01084445002472796,0.47175277409007776,0.10400643681843033,-0.0007054209013884665,-0.412981507463285,0.09987109625141123,stairs up
-0.9706701660115999,-1.09973144531,-0.83703613281,0.0024198003445834765,0.04912993836472846,0.19986877441122503,-0.20043945312,0.48840332031,0.0230018152084147,0.15147379532577132,0.145900268551125,-0.0625,0.41723632812,0.012300522610710815,0.11076899974353853,1.01895215624645,0.87684878809,1.16208114589,0.002806338477934383,0.05290862530570556,0.0054256897880816,0.4426689906500769,0.07356715003050884,-7.997913730823312e-05,3.852766462619046,1.4475084398124105,Null
-0.8988458251917502,-1.58251953125,-0.25415039062,0.07297682614216733,0.26980434406586545,0.4063842773402,-0.07250976562,1.24157714843,0.10902891317369343,0.32978226285044376,0.09902923583777501,-0.35900878906,0.76989746093,0.03308285173302079,0.18165941925396614,1.0848872347725251,0.81332939254,1.60146565958,0.020500596775862707,0.14300120728134796,0.0011467416790662385,0.2129881848899231,0.03382121855978245,-5.5740079322695214e-05,6.142182706345341,1.6675596874473237,Null
-0.7734832763637749,-1.22229003906,-0.54809570312,0.022787348658964937,0.15076597854727547,-0.36443969726250003,-0.65734863281,0.56323242187,0.09176421986794653,0.30254720180209344,0.404684143063075,-0.2353515625,0.82177734375,0.03432907097214126,0.18504931314304007,1.018362176434325,0.8226293362,1.35249801738,0.006324654547243547,0.07942822490069534,0.0021369927581450262,0.31464261384996917,0.04616979831285451,-8.86716201848891e-05,16.105725909728516,3.567858128077796,Null
-0.39593109130584997,-0.86706542968,0.10107421875,0.08366013662087086,0.2888788435993863,0.46647155761572506,-0.54052734375,1.00842285156,0.3588640641675958,0.598303354501023,0.08889434814442498,-0.64819335937,1.09362792968,0.23808974181094766,0.48733409223695845,1.02873633322295,0.89682506495,1.24064933262,0.002880513995937843,0.053603290113089126,0.001777769908025973,0.22847443571004078,0.04211087131912504,-2.7001079960973306e-05,2.7794069214876815,1.4952531555968835,Null
-0.22251037597415,-0.58618164062,0.21435546875,0.04300511498664058,0.2071173633454568,0.86598175048405,0.62854003906,1.08264160156,0.007202050702280522,0.08475874925649163,-0.424998779293825,-0.86206054687,0.22741699218,0.05191656568980965,0.2275670764315109,1.0385888430054,0.87395091688,1.22612522008,0.0031966126470190873,0.056467876845172245,0.0008839796056095377,0.18074596370991003,0.0296946065236688,-4.3999886958544164e-05,1.8275328500614423,0.29180882809942776,Null
-1.1189636230428752,-2.01025390625,-0.21179199218,0.16821737632300549,0.4096301171571714,0.28798645019262503,-0.1474609375,1.13562011718,0.07768561391521696,0.2783727714422316,0.062823486327225,-0.86584472656,0.53479003906,0.06949127881753855,0.26328226415863015,1.2469383946203751,0.71258425465,2.0640977393,0.09896040002669773,0.31418624894579805,0.00033675569833224164,0.13232469825993576,0.018327951579115737,6.559864353504608e-05,3.4408693266920523,0.3255243580577108,Null
-0.59739654540785,-1.30395507812,0.50891113281,0.2881193916312609,0.536096160359485,0.5099398803678001,-0.11401367187,1.52453613281,0.1620283506226699,0.40202397906855414,0.112401733396825,-0.60034179687,0.45141601562,0.045177459834608,0.2122840459973888,1.047802571596975,0.57052597858,1.52591328574,0.025602227857902716,0.15980682804016216,0.003479703081653904,0.34144085061996066,0.058915225739614795,6.293321382875936e-05,1.84164320887266,-0.2846168853346338,Null
0.7381713867155,-0.42785644531,1.0244140625,0.050720344061749266,0.22493008514112756,0.12311035156139999,-0.63000488281,0.80822753906,0.23145365699156553,0.48049456068626484,-0.3106677246057,-0.91491699218,0.04479980468,0.04747595598667834,0.21761724678138827,0.9911392642147,0.78659581357,1.17260242773,0.003043990996686605,0.05510336667749883,0.03268066976785088,0.5539577449100079,0.18055184322911594,0.0015198566215506367,-1.4430405021657553,-0.26183794934020754,lift down
-1.0232031249959,-1.44091796875,-0.8837890625,0.0071385315127616535,0.08438415244570362,0.171790771481,-0.05017089843,0.43957519531,0.012604492557583953,0.11212930627712808,0.1442443847625,-0.06884765625,0.25146484375,0.00772361210840121,0.08777415951252514,1.0571095913592001,0.89115733416,1.44466213336,0.007198424208070591,0.08473740701455536,7.667139496126915e-05,0.044066441040058635,0.008745268233385754,2.957829543019677e-05,3.623740388455958,-1.8340300315402842,Null
-1.2426135253871,-2.12841796875,-0.56896972656,0.13191317182272436,0.3627442472227059,0.2348657226545,-0.15551757812,0.82397460937,0.060040065810787156,0.2447242645228711,0.20464233398159998,-0.21997070312,0.54675292968,0.018909574527048372,0.13734009098122352,1.3134062532317001,0.5808279669,2.19363916502,0.1267452983569548,0.355567764443098,0.0001959669879770816,0.06729197807999299,0.01398131147307501,-4.027537453172868e-05,-0.6598464613072523,0.42461892841524174,Null
-1.1366223144493002,-2.18395996093,-0.09875488281,0.22662356930439856,0.47545453029825846,0.2455712890596,-0.34521484375,0.98645019531,0.0625201631243994,0.24972757700459997,0.16583740234140001,-0.22888183593,0.64416503906,0.036550468794291406,0.19094264223139282,1.21745754994,0.17564310367,2.22719381316,0.22295204766262428,0.47158739120492577,0.003787447843806867,0.2627460300400344,0.061465268438341256,0.00048477014449599507,-0.41753908061084877,0.6297756729002189,stairs down
-1.056409912106,-2.09802246093,-0.54748535156,0.10107044943444425,0.3175181464276619,0.21322998046599997,-0.41870117187,0.92443847656,0.048924939249556765,0.22091316597575816,0.12707397460710002,-0.13208007812,0.50561523437,0.020828938870611723,0.1441418278066266,1.1148577489676,0.54820185867,2.1473477773,0.10536961231872767,0.3242008456002711,0.002784608944572348,0.20392066982992674,0.05270339099347325,0.00041176081879339745,-0.3406541195895536,-0.7319760925382119,stairs down
-1.1016259765589,-1.60607910156,-0.46069335937,0.05168983317267464,0.22706961177080248,0.24728149413929998,-0.21398925781,1.0673828125,0.07134739433983167,0.26677523470888764,0.07721557616949999,-0.31921386718,0.37573242187,0.017414320492970557,0.1317982727190995,1.1784577383548,0.783445725,1.66463350072,0.03210822338044136,0.17896355165784528,3.2518076924850966e-05,0.024105744469920865,0.0056953298177137065,-2.711099449009288e-05,-0.5880443314295762,0.09179818601814307,stairs down
-1.1230041503869002,-2.02941894531,-0.49609375,0.10074658034590812,0.31700901232463935,0.2449926757783,-0.14013671875,1.00512695312,0.061994574714922625,0.24867566885028242,0.17319335937209998,-0.22814941406,0.56689453125,0.02308164772185991,0.1517364280670771,1.2020412275352,0.67052115947,2.08717317092,0.09184040679975279,0.30267277013757515,0.004343062381265642,0.23357058126009633,0.0658194859089045,0.0005563827815223685,-1.089806043217343,0.10103750608301629,stairs down
-1.400675964352175,-2.72485351562,-0.60302734375,0.2609706539498998,0.5102139034905115,0.19919433593644997,-0.29040527343,1.00329589843,0.09178292332833027,0.30257803294358543,0.231631469723425,-0.08312988281,0.697265625,0.027225881506686957,0.1647962888020244,1.473652811939375,0.62240165377,2.83279331871,0.2632597276670087,0.5124466590269091,0.005859883399857115,0.28004611486005615,0.07645412802038534,0.000649238059616843,-1.0779865859221498,-0.3273834087610629,stairs down
-1.2328552246056,-2.54211425781,0.09606933593,0.37139871436350974,0.6086626467737288,0.39286499023250004,-0.40686035156,1.77429199218,0.19558963302676452,0.4417020024226714,0.4083154296843,-0.02575683593,1.2587890625,0.09924597957657946,0.3146392611033118,1.4804573098622,0.55947897866,2.9404948825,0.3145977847949881,0.5601886203173005,0.0005320250000927849,0.11129931647008107,0.02303681700219353,7.193167511394928e-05,0.5688354068328318,-0.48307084227173264,stairs down
-0.4677856445277,-1.560546875,0.20874023437,0.12791149583366143,0.35719982795919325,0.9881604003868,0.212890625,2.20483398437,0.19143415677344883,0.436984635177846,0.15656005859279998,-0.20458984375,0.87561035156,0.05311703545028021,0.23018306380282305,1.1574613066795,0.44563872116,2.83959379762,0.252240895181598,0.50160770821793,0.009993074839620458,0.5671311184599972,0.09984033329532412,0.00047950537134738386,3.913279057184564,1.2323713646972188,stairs down
-1.0732870483365,-2.04345703125,-0.53234863281,0.13637485416654826,0.36882776065683,0.25808441161775003,-0.16687011718,0.81286621093,0.037901893156855486,0.19444057813111787,0.18773651122765003,-0.1474609375,0.65563964843,0.02940736712607044,0.17127127227954858,1.1437705387468748,0.56816046468,2.15014471021,0.14913434401204875,0.3856961344789686,0.008142367358409303,0.3141732304300149,0.09012220281380875,0.0007723955030403911,-1.0718125015196769,-0.25996811706513856,stairs down
-0.8510775756799501,-1.24597167968,-0.51940917968,0.02795918942005512,0.1670008725920466,-0.18085662841692499,-0.49206542968,0.35437011718,0.10638590935828643,0.3257605632744558,0.355493774411025,-0.31127929687,0.69921875,0.05876079631837824,0.24210306550637126,1.03496589117105,0.91585386429,1.32656201788,0.004918071078153497,0.07004124428119558,0.0010504945926857532,0.29994186734995765,0.03237079480340325,-7.477586221568234e-05,43.197737403743005,5.781338741379457,Null
-0.9590637206992,-1.7275390625,-0.66284179687,0.06677291308892964,0.25808134532780036,-0.09734863281219995,-0.51513671875,0.57043457031,0.12594003350884375,0.3544364307249914,0.35956298827789995,-0.02233886718,0.71252441406,0.031909508937915915,0.17840889878470503,1.1153957750262,0.74735278604,1.8263856528,0.038615221716044965,0.1962617733073735,0.0003644178342077333,0.08857043540001541,0.019065854022891657,4.653626921144502e-06,4.440811732787281,-2.1294105060155433,Null
-0.9524966430627251,-1.49133300781,-0.36169433593,0.0689814891545546,0.2623147640367736,0.29752777099387495,-0.21801757812,1.39819335937,0.12841979859236452,0.35790885585003845,0.158296508786575,-0.78002929687,0.82409667968,0.07035705566264777,0.26491727581169777,1.100333484164675,0.53561875621,2.18120624927,0.07721523974630372,0.277528740217906,0.007416688255732928,0.48347637697997925,0.08601247894982214,-0.0004842156468144408,1.0875659010826428,0.03297831582810522,stairs up
-0.9722012329067249,-1.80432128906,-0.1083984375,0.11544333048419274,0.3393445478536266,0.304546813961725,-0.14404296875,1.74890136718,0.14882872650178441,0.38530073278613153,0.2362573242154,-0.34033203125,0.59497070312,0.03115648357746086,0.17629121466629358,1.1433900399545252,0.54734577623,2.01848003099,0.08142856338263055,0.2849999859196031,0.004919019763772869,0.2469984455700569,0.07004799936017757,-0.0005923800187285778,-1.1609637784831415,0.09605941994894218,stairs up
-0.915846557614325,-1.85119628906,0.90441894531,0.3171241146228002,0.5624333776868539,0.19788299560299996,-0.51000976562,0.77453613281,0.06370497204209916,0.25208274358232835,0.07297088622890001,-0.81567382812,0.54724121093,0.05464770662290866,0.2334760958992406,1.113361818900675,0.54465197643,1.93275155115,0.07826657523540365,0.27941171914813295,0.0050872901835928835,0.3251933578100079,0.07123602991558346,-0.0004274731205828038,-0.49555908426962425,0.1941189829412945,stairs up
-1.12968902587505,-1.42956542968,-0.79138183593,0.02342157947009845,0.15284968276520303,0.1653302001932,-0.22021484375,0.64794921875,0.03562042321366061,0.18849767148595353,0.130164489743975,-0.29431152343,0.43127441406,0.028942195961091776,0.16991127234880282,1.175709764792025,0.83810857681,1.50507107992,0.02600997673164175,0.16107436726497684,0.00032714892019011105,0.08297638502006066,0.018064635282497007,-9.303204627052887e-05,2.881301739792418,-1.8631784217376302,stairs up
-1.070657348629,-1.51574707031,-0.62829589843,0.051528855663477646,0.2267157549097966,0.0767419433576,-0.19079589843,0.6064453125,0.02014080938927829,0.14174081051625567,0.17111328124732503,-0.46252441406,0.39758300781,0.0192395511782202,0.1385332173172725,1.103707915730625,0.68612538894,1.66978309902,0.05412232481739011,0.23235106844029496,0.003924838989055993,0.2281443412199451,0.0625701757355959,-0.0005374501908215157,-1.1018050182229613,-0.12674729725954578,stairs up
-0.511042480467075,-1.50915527343,0.23608398437,0.2687445732328407,0.5177573870064613,0.547771301267,-0.28173828125,1.26940917968,0.19908692484289064,0.4456334901359899,0.30884643554360003,-0.11828613281,0.81176757812,0.05260702952780797,0.22907534121766238,1.0599839581399,0.64908564014,1.58197078824,0.05230614120660166,0.22841929833879002,0.00801482957162735,0.33837747118002426,0.08941360353826638,-0.0005990474738932629,-0.7806440078932146,-0.34500903796762555,stairs up
-0.5838378906235001,-1.7392578125,0.41955566406,0.5062519305896059,0.7106238813628007,0.5349505615194751,0.03332519531,1.23217773437,0.11252486213952868,0.33502768539955,-0.062181701660249986,-1.09094238281,0.50048828125,0.15650454975089445,0.3951117416333223,1.149242730486325,0.41068912586,1.79608535001,0.08369888257486871,0.28894573083614083,0.0008993667125988069,0.14386444473007032,0.029951933089824266,0.000152758843998579,0.7194482476639816,-1.0150550594250736,stairs up
-1.07698608398065,-1.52685546875,-0.67419433593,0.03961634727202109,0.19878960335953447,0.125845642087125,-0.23767089843,0.66931152343,0.030998401432793248,0.17584341167416898,0.13597656249745,-0.12060546875,0.49877929687,0.01996288791899257,0.14111336116468592,1.115855012022775,0.69137574252,1.53886971984,0.03954341949181431,0.19860654808712822,0.0014875950520925251,0.1514860754299434,0.038521111931800384,-0.00030831185834338863,-0.9375070484204073,-0.21976168725145423,stairs up
-1.05952728271155,-1.88134765625,-0.45764160156,0.07720804196927063,0.2775158047109163,0.1430059814422,-0.28076171875,0.62463378906,0.02852310355960156,0.16867660122465877,0.134895935055775,-0.31311035156,0.42590332031,0.01770318664280497,0.13288690182330973,1.106822361300625,0.65415205989,1.91560221264,0.05946435458304344,0.24354813424985589,0.00587644023027794,0.2570310579200168,0.0765620606416928,-0.0006531114084976778,-1.3737735582180493,0.07489488442928377,stairs up
-0.9805847167940002,-2.29345703125,0.6416015625,0.3067081830164986,0.5531197090675375,0.42218414306322494,-0.29797363281,2.31848144531,0.25635777737081455,0.5056845686071383,0.3112466430627,-0.05871582031,1.28649902343,0.06456003102317034,0.2537688533796305,1.281872263737975,0.39128884174,2.86379736637,0.22007091345711838,0.46853040047949457,0.0015822714799905426,0.2561597407800491,0.03972802287165278,-8.85109389065807e-05,2.034370493120866,0.6396843385005528,stairs up
-1.2641540527305,-2.37768554687,-0.39526367187,0.20514401012891392,0.45236174694992903,0.22777832030997502,-0.39172363281,0.80114746093,0.07061836711067535,0.26540878130329193,0.33590637206687496,-0.28894042968,1.32922363281,0.08869402099298593,0.2974429120697003,1.405952877041775,0.77728044069,2.46791970801,0.15001833364219372,0.38683754705055223,0.0010843135872273969,0.11392764244999398,0.03288773028439829,-0.0002596276735657112,-1.0611304942962532,-0.4979774185908558,stairs up
-0.412636108394775,-0.90942382812,-0.1005859375,0.026945805800167966,0.1639464585944678,0.796752624508175,-0.19702148437,1.494140625,0.11152978465470328,0.33354304099031434,-0.026833496092574995,-0.6787109375,1.25268554687,0.17138927976962795,0.4134740700094794,1.022231482799425,0.49823362551,1.53022527953,0.07011162180301488,0.26445480284636036,0.007856766484330537,0.3834217028598914,0.08852753564919624,-0.0007075735615079378,-0.021610636767277036,0.5631305852819839,stairs up
-1.11113006591395,-1.62670898437,-0.02233886718,0.04533312068231786,0.21264944834307017,0.187344360348525,-0.47009277343,0.71008300781,0.038270904072828585,0.1953848172521256,0.010381469725250008,-0.58666992187,0.47155761718,0.04824199791366994,0.21936588822988357,1.168803576033375,0.6535524945,1.6417489743,0.03531861244131145,0.18769740517707798,0.00015748468615055353,0.06830934586992043,0.012533593835575538,2.0092847221221276e-05,0.09341696435470803,0.2060178536749632,Null
-0.978749999996475,-1.23083496093,-0.84814453125,0.00335972027664289,0.05789059488337707,0.09138854980344999,-0.35314941406,0.4052734375,0.030020959707661155,0.17304885815396762,0.19500122070032502,-0.12133789062,0.48156738281,0.020795655391990953,0.14402661647595202,1.0274980728104248,0.92901258253,1.24481371004,0.002624070686973076,0.05116161168547804,0.001014574741708721,0.12850709819008443,0.031812549486868374,-7.820602921384391e-05,-0.7067947573091602,-0.2274157812449427,Null
-0.96994598388285,-1.38049316406,-0.60473632812,0.02596860536200125,0.1609462141480695,0.08718872070102501,-0.55334472656,0.68041992187,0.0810696663773955,0.2843712225444973,0.20338256835717503,-0.23779296875,1.06787109375,0.05935129572350135,0.2433164965311489,1.0684791168236252,0.83312177158,1.42448712497,0.014122831313306258,0.11869087679776821,0.0001687536538626777,0.08255346495002414,0.012974273379577794,2.9219933316364963e-06,6.269680516997335,1.9414725476943693,Null
-0.8113973998984,-2.01147460937,0.02062988281,0.16770090878210206,0.40900080257885413,-0.04603149414022496,-0.57897949218,1.5439453125,0.34389367336070065,0.5856909929111929,0.36780181884455004,-0.09008789062,1.13427734375,0.05504428124985083,0.234321724444675,1.1250931800717,0.43502074482,2.053573836,0.09538889158012835,0.3084646160440092,0.0010932633456595846,0.20006208388008417,0.0330231765173406,-1.2175212732533743e-05,3.1362597801359824,-0.07710640379557057,Null
-1.0216113281216501,-2.52954101562,0.38928222656,0.3776355043436055,0.6137519169686938,0.3806973266582,-0.31958007812,1.46142578125,0.1359854035088443,0.36830074667324825,0.09892791747912501,-0.65234375,1.46789550781,0.08453657099952135,0.2903880671997776,1.2665801184327001,0.38854934447,2.73560036042,0.184030757854238,0.42845149195632687,0.0011374360123121382,0.1665286826900001,0.03368371152770071,0.00019819951124770308,0.36617902677315506,0.2567524139563304,Null
-0.394083251951725,-1.93774414062,0.78125,0.5250589429405393,0.7237031819628735,0.23814636230317496,-0.53210449218,1.46142578125,0.23461694576691977,0.48376688952686964,-0.24807617187405,-0.85144042968,0.39672851562,0.1352200755683164,0.36726288320410977,1.046476782025575,0.46733791328,2.00461206405,0.0712803563367374,0.26664987426566616,0.005057832613716591,0.21674007461001565,0.07102948706123605,0.0005703252122311213,-1.3455533925101613,0.2864355049708832,stairs down
-1.050052795406375,-1.84948730468,-0.57397460937,0.09765811464606625,0.31211211024157826,0.290732116696025,-0.22668457031,0.66967773437,0.04470147873620203,0.21116279274380118,0.097458496091525,-0.14916992187,0.50561523437,0.021373357622806958,0.1460134385210825,1.1285751265037751,0.58036666013,1.91206514504,0.08916181895830003,0.29822628055036376,0.003234689451881907,0.16686892544998955,0.05680319294064553,0.0004691577362303667,-1.3441531254300874,-0.4609235746173833,stairs down
-0.47033386230109997,-1.76904296875,0.2578125,0.16774137066914616,0.40905014025480213,0.7090603637657751,-0.35021972656,1.22119140625,0.09641953249579588,0.31012656072087147,0.134884643551825,-1.66479492187,0.74035644531,0.18053404720553562,0.42436153464648724,1.0439622026844,0.22882652326,2.4965753613,0.09711844663526384,0.3112485349663122,0.021276411147449225,0.9703321506900693,0.14568191418148171,0.0001515376666468345,11.21876153189723,2.523491126531752,stairs down
-1.2040386962854002,-1.88928222656,-0.60498046875,0.05547166079466646,0.23522963597871716,0.2580895996061,-0.23254394531,0.6201171875,0.04242624252165467,0.2057186839238248,0.1372845458952,-0.13049316406,0.27478027343,0.005961745331546022,0.07711576342238438,1.25775380326025,0.60942729089,1.94373830043,0.05696425065620894,0.23837332071682943,5.579563183963201e-05,0.042171862399982274,0.007460304468319837,-3.95050657779042e-06,0.7299502391961172,-0.5652234169041959,stairs down
-1.14504577636285,-2.39318847656,-0.51623535156,0.15210092738109549,0.38951338239223915,0.1906011962862,-0.24291992187,0.62646484375,0.03450313249235853,0.18551785537011695,0.07539794921745,-0.20910644531,0.43579101562,0.016653490310919894,0.12888699152801494,1.18544429435945,0.53517454352,2.44779483343,0.1509922085402026,0.38809113365143,0.004103334922300067,0.2661037899299572,0.06397715674359339,0.0005414503978854267,-1.065605046680642,0.2838905599464929,stairs down
-1.52320556640265,-3.05029296875,-0.37927246093,0.3456062180059707,0.5871475133737312,0.20674621581855,-0.51184082031,0.90112304687,0.10255954173970087,0.3198486249546051,0.33067932128545,-0.12780761718,1.16162109375,0.06335001495771939,0.25137947394392623,1.6205717186204998,0.45080543268,3.31354850018,0.357125111654118,0.5968519907606765,0.004564527896377217,0.24828559797992966,0.06747678546460459,0.0004920806449850724,-0.6101688111095815,-0.6170181515521498,stairs down
-1.22772277831655,-2.03295898437,-0.61791992187,0.0752604405081866,0.2739932287610702,0.2080267333959,-0.17138671875,0.59436035156,0.031642364244602574,0.17766051427931606,0.11153076171565,-0.15759277343,0.46948242187,0.008236684960162412,0.09064266792058807,1.26647407623745,0.62692203622,2.08661064973,0.07409775260196697,0.2718685495243281,4.166397206325114e-05,0.02988446642996223,0.006446690013727433,-2.25946499845736e-06,-0.37663047029538843,0.36290577885613745,stairs down
