avg_accX,min_accX,max_accX,var_accX,std_accX,avg_accY,min_accY,max_accY,var_accY,std_accY,avg_accZ,min_accZ,max_accZ,var_accZ,std_accZ,avg_magnitude,min_magnitude,max_magnitude,var_magnitude,std_magnitude,Label
-0.052831039812791886,-0.08020019531,-0.03332519531,0.00013106091798127675,0.011419090775261228,-0.46208074734,-0.48266601562,-0.43481445312,0.0002010174008488887,0.014142029838434744,-0.8955065732034009,-0.91552734375,-0.87719726562,0.0001245879989902846,0.01113353369777408,1.0092487098696954,0.98830962611,1.02940234923,0.00011372560896473858,0.010637119986612336,Null
-0.0717773437462,-0.08068847656,-0.0634765625,1.750519527841846e-05,0.004173448130985501,-0.43129638671439996,-0.44750976562,-0.41638183593,3.938021372875008e-05,0.006259657551344668,-0.9110546874964001,-0.92309570312,-0.90441894531,1.4210322393435932e-05,0.0037602221718229297,1.0105674640553999,1.00221104862,1.01826559995,1.3411781807302722e-05,0.0036530429641965898,Null
0.0576684570332,-0.20788574218,0.6005859375,0.07353346616635709,0.27049177221410137,-0.4073388671844,-0.64367675781,-0.13928222656,0.011889361161051694,0.10876540973694916,-0.8736010742147999,-1.08251953125,-0.3994140625,0.01614947846788745,0.1267624986955843,1.0161557346368,0.96384879793,1.1201670801,0.0009260379473067753,0.030354699101955228,Null
-0.259416503906,-1.2060546875,0.69213867187,0.5563743605697034,0.7440379619124651,-0.05694824218839997,-0.73229980468,0.52966308593,0.2714725452647742,0.519726064901935,-0.40457519530879993,-0.92736816406,-0.13610839843,0.03754800231019589,0.19328802937234604,1.029388365927,0.35533518954,1.56277206436,0.035827778035477674,0.18880847212267854,Null
-0.9147021484337999,-1.12377929687,-0.69348144531,0.007335387019006222,0.08543248845674103,0.3212499999966,0.14733886718,0.50036621093,0.0070993070267548215,0.08404647816310358,-0.38429443359000004,-0.70483398437,-0.12329101562,0.019853795000183975,0.14055079517805316,1.054785523085,0.8373200935,1.30034841604,0.009154111988233005,0.09543763109115733,Null
-0.857788085934,-0.92395019531,-0.814453125,0.0007604696043796988,0.027507585433072825,0.38802246093299997,0.29040527343,0.47705078125,0.0026203288744238184,0.05106101477694797,-0.408796386715,-0.49621582031,-0.34521484375,0.0015790348736380848,0.03963760461064587,1.0285165446298,0.97904997833,1.07883856835,0.0005679074968476845,0.023771158140979295,Null
-0.8792510671678351,-0.95837402343,-0.77514648437,0.0016498747916724994,0.040513828286611896,0.35105282498010304,0.26147460937,0.47375488281,0.002103479727073506,0.045745350015799116,-0.39999169418103087,-0.54174804687,-0.27917480468,0.003408945136531389,0.05823549823247261,1.0303046091043297,0.9605270455,1.13601678626,0.0019215785442655996,0.04372268862070348,Null
-0.8909141979879582,-0.95727539062,-0.83337402343,0.001896464564790173,0.043491378431439014,0.28265476725785343,0.24536132812,0.31945800781,0.0005357072060820063,0.02311503474358139,-0.415400480096911,-0.44873046875,-0.37353515625,0.000483155970594807,0.021952019597045312,1.023849889375314,0.98064644407,1.07742753481,0.0008067089437931847,0.02836542155998041,lift down
-0.9067310601857466,-0.95434570312,-0.88269042968,0.0003537645009092633,0.018782118655476333,0.2755584286928169,0.26318359375,0.29736328125,7.218952450585872e-05,0.008484466614502221,-0.4056970730598592,-0.42834472656,-0.38598632812,8.26135715297519e-05,0.009076390099800283,1.0309153407342535,1.00752308112,1.08396760394,0.0004056160522960655,0.020111525846316647,lift down
-0.876503126152278,-0.9111328125,-0.81408691406,0.000484152733276679,0.02197089731304476,0.3230717224446746,0.267578125,0.40979003906,0.0020555750762765498,0.04527133191337143,-0.4065508419202367,-0.49096679687,-0.35778808593,0.0011220003126988756,0.03344668571243662,1.020417569167278,0.97677075263,1.05999778878,0.00031647050988642373,0.0177632825401933,Null
-0.8879424765340248,-1.11279296875,-0.73754882812,0.010047512200802295,0.10008199314503784,0.32856793004702783,0.14892578125,0.45495605468,0.004496532633050353,0.06695230749860424,-0.4158459359242414,-0.57666015625,-0.24157714843,0.008417965687011192,0.0916073352616411,1.0398231465041174,0.88030001014,1.29216578348,0.011019429294294081,0.10481084588021408,Null
-0.8732957257299035,-1.01904296875,-0.78186035156,0.002105649995088038,0.04581352874780218,0.35159547075614145,0.29162597656,0.48022460937,0.0016283231066103604,0.04028755814136977,-0.4181893400789388,-0.54736328125,-0.26049804687,0.0036666610752937516,0.06045553050217356,1.0330398480010288,0.96304147556,1.16335278195,0.0016547211565332443,0.040612812137645324,Null
-0.8984685279014382,-1.13659667968,-0.47473144531,0.021941633966653565,0.1478791755977181,0.3579852764393311,-0.04663085937,0.64111328125,0.017463087373724324,0.131926806977317,-0.43606822546107027,-0.61315917968,-0.15417480468,0.014133640936579503,0.11868601954084768,1.0766146384783277,0.7806110344,1.35520515297,0.01988136832924523,0.14076532051105078,Null
-0.9375318254712143,-1.26953125,-0.62609863281,0.0377701905448862,0.19399818815449257,0.3512974330314643,0.255859375,0.44677734375,0.0026200722286453043,0.05109515464140131,-0.3957815987681429,-0.60266113281,-0.05834960937,0.020753311186184994,0.1438026154757378,1.0875785814507144,0.74527040958,1.45065620368,0.037249952920481874,0.19265751315310103,stairs up
-0.8918772341984502,-1.19714355468,-0.57873535156,0.03850669749965177,0.19586884990974626,0.3351956187977859,0.23913574218,0.44201660156,0.002310744886739909,0.04798143550208247,-0.4407215751805904,-0.63366699218,-0.19323730468,0.016027011283018797,0.126364041641528,1.0581542024637267,0.70521857851,1.41293662652,0.039125363957837486,0.19743604007650856,stairs up
-0.9149003462322727,-1.27331542968,-0.5146484375,0.045735551552488325,0.21345329893658405,0.34342817826303024,0.0517578125,0.55224609375,0.01252196559715666,0.11168945299037256,-0.44482745545882574,-0.68127441406,-0.09729003906,0.021989226614024478,0.1480065339401317,1.0932620952240153,0.72941628792,1.41848661881,0.037720673603477264,0.1938499220120301,stairs up
-0.8781328201254688,-1.17175292968,-0.55822753906,0.024693300625258714,0.15683380509217806,0.3477959632827734,0.19738769531,0.48803710937,0.005581151016340137,0.07456104643299045,-0.4249529838521484,-0.6474609375,-0.14196777343,0.020201067432742595,0.14185258902495734,1.0455396837165236,0.67908036311,1.37503833067,0.029906260528768748,0.1725961737657537,stairs up
-0.9261155173004672,-1.26635742187,-0.68371582031,0.023976211211040394,0.1544803315664986,0.32802574656457945,0.19738769531,0.4560546875,0.003814369896480918,0.06161611589581209,-0.4143380138321962,-0.62280273437,-0.10546875,0.024848886699112806,0.15726655844815293,1.07772452463229,0.81438593964,1.46143571752,0.028001015360901736,0.1669436117218305,stairs up
-0.9715942382769,-1.24768066406,-0.67077636718,0.028915796597420922,0.16962080537019572,0.28819702148044996,0.00366210937,0.50512695312,0.007647154796905096,0.08722911797628456,-0.31093505859025,-0.53649902343,-0.05822753906,0.017304861479567973,0.13121866167649376,1.0716802786749,0.74715246609,1.3632677236,0.02897824303042763,0.1698038627807845,stairs up
-0.90988098144155,-1.23034667968,-0.59265136718,0.035980791751407934,0.18921122533467957,0.3232452392537,0.19189453125,0.42065429687,0.002835862366588356,0.05311951670295405,-0.41427856444979994,-0.59875488281,-0.15979003906,0.014483572656531035,0.12004646930771591,1.06038080591185,0.77172817772,1.3825718999,0.03278782527638786,0.18062083531532544,stairs up
-0.937904052731,-1.4033203125,-0.61950683593,0.036632029912994045,0.19091587090503784,0.3156848144501,0.07849121093,0.55480957031,0.007910005589565866,0.08871558804188831,-0.3310272216753,-0.59008789062,-0.07177734375,0.017938201816449038,0.13359831887926882,1.05467450927145,0.70179966951,1.52224122053,0.03892407167767075,0.19679799622781324,stairs up
-0.88717834472305,-1.20202636718,-0.56201171875,0.027796680151299335,0.16630603341593725,0.3621612548786499,0.12780761718,0.79370117187,0.015780537787053676,0.1253061654433588,-0.39889709472250007,-0.66076660156,-0.08862304687,0.02736053978629471,0.164996172947627,1.0519013073946,0.64744073022,1.46123999253,0.04166009095268236,0.2035971279215867,stairs up
-0.9042858886681501,-1.18615722656,-0.68505859375,0.01841385418286521,0.1353579879872292,0.34961608886400003,0.24658203125,0.45678710937,0.002527234871381473,0.050145774468289606,-0.4028546142549,-0.58605957031,-0.16967773437,0.017402360948140724,0.13158780013131924,1.057387745511,0.78270206928,1.36987793098,0.02245136347663756,0.14946272665535837,stairs up
-0.90489318847315,-1.29248046875,-0.58471679687,0.03525557278060253,0.1872946740211785,0.32495422362915,0.18896484375,0.69128417968,0.009874280588981222,0.09912067991108776,-0.37697021484,-0.55004882812,-0.08361816406,0.01810549851637264,0.1342198607650551,1.04391987931725,0.69103521962,1.4236524811,0.03988335032114386,0.19920826682027568,stairs up
-0.96336975097325,-1.28796386718,-0.64965820312,0.03022770635100832,0.1734259721588819,0.31471862792625,0.21740722656,0.42700195312,0.002956806031542873,0.05424040930325986,-0.3929840087857,-0.60656738281,-0.06164550781,0.02379229349379583,0.15386140525267164,1.0996073847604502,0.80269177177,1.44173543422,0.029267381149498777,0.1706488917155669,stairs up
-0.9225805664022002,-1.27966308593,-0.58837890625,0.0376369517591765,0.1935168390615675,0.33358520507395,0.25268554687,0.45202636718,0.0021812168063742804,0.046586593804896374,-0.3896228027306,-0.57458496093,-0.07165527343,0.01743600500130392,0.13171493831869413,1.0647637250564501,0.72683374407,1.4282459068,0.03767440347537029,0.19361309733071633,stairs up
-0.8910064697224002,-1.32153320312,-0.59387207031,0.04271530430202996,0.20615947172157725,0.34511352538695,0.13195800781,0.46643066406,0.005832918192076658,0.07618237067141108,-0.37237243651984997,-0.61743164062,-0.0927734375,0.017393335915195807,0.13155367435240958,1.03609757964625,0.69143398681,1.48905155942,0.04399071562095155,0.20921463152190573,stairs up
-0.8896124267540501,-1.14428710937,-0.65771484375,0.0177838319806669,0.13302222679223036,0.3465734863244,0.25,0.47045898437,0.0030113842484289595,0.054738718720726505,-0.4442187499969,-0.60424804687,-0.17529296875,0.015733716451820423,0.12512013374977393,1.06121091859735,0.8060213626,1.34340772594,0.019127058668742408,0.13795442499390403,stairs up
-0.9210412597619501,-1.22814941406,-0.61474609375,0.02454800478637225,0.15628584312867363,0.3293939208952,0.1923828125,0.44445800781,0.003183552652383108,0.05628174561188727,-0.38815368651980003,-0.54443359375,-0.15393066406,0.01550201277892941,0.12419542147371924,1.0608545484424,0.78388812011,1.35156557049,0.025211729731432788,0.1583845670599747,stairs up
-0.9122204589807,-1.25854492187,-0.58227539062,0.04129293893341089,0.2026979877520836,0.32416931151955,0.19970703125,0.48486328125,0.004057164482371333,0.06353643568818979,-0.37397094726124996,-0.61352539062,0.03479003906,0.02547383181265961,0.1592057243116475,1.0517146589075501,0.72872294935,1.41528830955,0.041660572364115966,0.20359830427165984,stairs up
-0.90646423339525,-1.2412109375,-0.58459472656,0.04010106817806757,0.19975125240452746,0.3326129150350499,0.24267578125,0.41760253906,0.0020923460215453694,0.04562767023898593,-0.4191912841751001,-0.59655761718,-0.20349121093,0.014348011142284773,0.11948335066683287,1.06104710039195,0.69470610589,1.42011662109,0.04287221372833725,0.20653777538187915,stairs up
-0.9089306640589,-1.3173828125,-0.59814453125,0.04019622524777684,0.1999881099504117,0.34219360351109995,0.09729003906,0.79064941406,0.018333132355302057,0.13506097398406966,-0.36258422851199995,-0.59167480468,-0.08911132812,0.02573374237086962,0.16001585439891658,1.051395538105,0.67784885022,1.49298570664,0.053394918637313056,0.23049499787224556,stairs up
-0.8921771240191501,-1.24890136718,-0.68347167968,0.01690877717612465,0.1297082622281404,0.32101318358945,0.11364746093,0.58874511718,0.007667951134630476,0.08734764667097404,-0.4206921386681,-0.65844726562,-0.16467285156,0.023451314408242625,0.1527548946390963,1.0490504453838,0.73827210678,1.4927951065,0.023409473114179954,0.15261856292276196,Null
-0.8920831298781999,-1.07067871093,-0.75390625,0.00444661675339741,0.06651604069418461,0.3215447998009,0.21325683593,0.41625976562,0.0026248122276750895,0.05110467851906236,-0.41567810058189997,-0.59362792968,-0.22644042968,0.007995797608009893,0.08919539573301888,1.04038088769555,0.92700222639,1.17644263514,0.0040545373662756595,0.06351586163663595,Null
-0.8854296874964,-1.12158203125,-0.712890625,0.008346061706626145,0.09112810432623414,0.3268420410122,0.13977050781,0.46496582031,0.004315069121609224,0.06552475697018019,-0.42805419921460003,-0.63952636718,-0.20593261718,0.0120431935908489,0.10946678776183512,1.0418801179637,0.7954702618,1.34996037535,0.013174343042579478,0.11449223260713619,Null
-0.7252441406214,-1.04406738281,-0.02893066406,0.10433114683212139,0.3221948030275485,0.3162011718718,-0.01391601562,0.75646972656,0.02062019058212598,0.1432378777740558,-0.5550964355438001,-0.9541015625,-0.17810058593,0.050247741816809376,0.22359897832442197,1.0459403646935,0.80092829773,1.35683259316,0.014498627830981931,0.12010884518563578,Null
-0.37367492675385,-0.63024902343,-0.07958984375,0.016546190143938686,0.1283100120536936,0.9329016113241502,0.70300292968,1.00866699218,0.0031949076685245372,0.05638202843266562,-0.025447998048549997,-0.86584472656,0.13537597656,0.04450799441010184,0.2104410949364485,1.03587735882015,0.94593288619,1.1592180138,0.0014793086904775993,0.03836550725619579,Null
-0.8721441650353501,-1.00134277343,-0.63024902343,0.004008170931995869,0.0631516435046301,0.3537677001918,0.146484375,0.70300292968,0.011881974635629938,0.10873161804393323,-0.41015502929360004,-0.90148925781,0.05798339843,0.02824869976383488,0.1676527848412179,1.0441199030822,0.90916458428,1.31333999207,0.00681710910228647,0.08235911338021457,Null
-0.8827648925744,-0.94714355468,-0.84240722656,0.00042629418508977854,0.0205952109521687,0.33078979491780003,0.28393554687,0.36804199218,0.00037045576313455804,0.019199049047254533,-0.3957763671843,-0.41833496093,-0.33764648437,0.00029736817181753866,0.01720120143938937,1.0227466764641,0.95945965707,1.08547267296,0.0004146332842189179,0.020311575955543757,Null
-0.8921643066370001,-0.93737792968,-0.83752441406,0.00042936637022789314,0.020669289740500366,0.3494909667928999,0.29431152343,0.40087890625,0.0007803938661449927,0.027865604188932774,-0.36008666991859994,-0.41845703125,-0.31176757812,0.0006589317606339964,0.02560541157315825,1.0243064075108002,0.97396495208,1.06256486189,0.00042133450318133795,0.020475053862332847,Null
-0.7053601074183001,-0.91479492187,-0.14636230468,0.08309381052950778,0.28753841739298114,0.2614733886699,-0.38879394531,1.08264160156,0.10726683358108598,0.32669634129139025,-0.3513610839811999,-0.873046875,0.70666503906,0.11393878848465519,0.3367032737325729,0.9806539881757999,0.48042701912,1.51108256218,0.030604539060251894,0.17450362851514187,lift down
-0.8750988769492,-1.00378417968,-0.81396484375,0.001628531491570726,0.04025405363578769,0.35694335937090005,0.17224121093,0.49230957031,0.0019932154675019885,0.044533688261410354,-0.36926391601180003,-0.56799316406,-0.2822265625,0.004119434397178928,0.06402216198468334,1.0173711780669001,0.93007377005,1.16240186456,0.0022319672319378587,0.047125443189196314,lift down
-0.8953369140588001,-0.90795898437,-0.88256835937,3.1982234969689755e-05,0.005641127883219924,0.35057006835540006,0.32958984375,0.37854003906,0.00012023774074266106,0.01093784951619594,-0.3412194824183,-0.35229492187,-0.3251953125,6.328870751639352e-05,0.007935506535742477,1.020363915941,1.00740215907,1.0304469681,3.03596702509082e-05,0.00549616883835037,lift down
-0.8961865234336,-0.90441894531,-0.88586425781,1.8924420801182182e-05,0.004339331595669576,0.34891723632439997,0.33422851562,0.36303710937,5.6176944892572265e-05,0.007476366775921939,-0.33953369140250006,-0.35559082031,-0.32592773437,4.545121336906394e-05,0.00672487600645682,1.0199348109000999,1.0064563202,1.03104150716,2.973016697935955e-05,0.0054388892381131235,lift down
-0.9286767578077001,-1.06530761718,-0.87194824218,0.0017184486580919384,0.04135041009230112,0.35014038085589994,0.28784179687,0.37548828125,0.0003581063157487973,0.018876328672971694,-0.3434179687459,-0.37951660156,-0.24670410156,0.0005719952487297015,0.023856556174059428,1.0509043042163997,0.98255905043,1.14349649804,0.0012162401108575477,0.0347873383618704,lift down
-0.8720849609331001,-1.01062011718,-0.765625,0.0026496682574889655,0.0513460798523268,0.35691528319939997,0.28784179687,0.44702148437,0.0016255257042526756,0.040216887941900877,-0.3874206542937,-0.60546875,-0.20544433593,0.010255170040848673,0.10101432666035264,1.0247440041826001,0.92625043544,1.13272560049,0.0023848240371948776,0.04871242056199736,lift down
-0.8739099121056,-1.02001953125,-0.74182128906,0.003737766914929049,0.060984244525569095,0.33374389648080005,0.25598144531,0.43432617187,0.0015853270379372767,0.039716500383941054,-0.42115112304269997,-0.57580566406,-0.22387695312,0.005815820255208462,0.07607063266420505,1.0284551801111,0.86193973858,1.22342463957,0.005864274870094604,0.07638686729892863,Null
-0.9039270019492,-1.23754882812,-0.73083496093,0.011688989746730933,0.1078450035838345,0.3471398925743,0.1875,0.59375,0.008282464010393672,0.09078023843514459,-0.4075366210909,-0.58557128906,0.03857421875,0.02099588211426313,0.14453685586621778,1.0654797759444,0.86661134946,1.30702935838,0.009237762458974062,0.09587269500060583,Null
-0.8760192871055,-1.05053710937,-0.66931152343,0.008250261184203942,0.09060358645375426,0.3677746581996,0.22814941406,0.5986328125,0.00837555024340034,0.09128895054815417,-0.4416467285118,-0.68969726562,-0.24865722656,0.008699418748080123,0.09303720575307343,1.0549152429362,0.81134195513,1.30393129693,0.010122872007089962,0.10036063793666575,Null
-0.9462023925749,-1.23095703125,-0.58996582031,0.037732420343676014,0.19376211766482537,0.3213061523402,0.21374511718,0.40649414062,0.0029260354485729514,0.05395743944378835,-0.3841149902307,-0.56921386718,-0.14807128906,0.01517484297547988,0.12287786114920166,1.0798358925967,0.7948509672,1.38326994554,0.03576835607933127,0.18865183354246684,stairs up
-0.9095678710903,-1.24755859375,-0.57458496093,0.0419458939740421,0.20429430854571523,0.35377319335609997,0.27697753906,0.45629882812,0.001922631651568765,0.043738066867557386,-0.39009033202699994,-0.56091308593,-0.15441894531,0.014244343102259771,0.11905091930240805,1.059481201778,0.694447204,1.41306525309,0.04016235081642498,0.1999038245315553,stairs up
-0.8894396972618,-1.04626464843,-0.77490234375,0.0054242396158750185,0.07346508298365723,0.3446508789024,0.19567871093,0.46252441406,0.004884225873024767,0.0697122998018258,-0.4158935546841,-0.65234375,-0.18481445312,0.0171078674160079,0.13046964428144908,1.0507295661662999,0.86342370251,1.23480474258,0.006131941956598579,0.07811070507181193,Null
-0.8730993652308999,-0.98010253906,-0.79858398437,0.0010674443840881446,0.0325899856116523,0.31277221679299994,0.26782226562,0.38623046875,0.0006098483241221643,0.024633292157191525,-0.4252343749964,-0.50305175781,-0.29748535156,0.00188100292450175,0.0432619684004235,1.0217046401098,0.97658217601,1.11533619804,0.0006164496263873784,0.024766254829009605,Null
-0.8665856933554,-1.07006835937,-0.68200683593,0.007687460014954779,0.0874586914770625,0.3215075683552,0.2197265625,0.4248046875,0.0026197494260180956,0.051055368756752754,-0.4571850585902999,-0.59887695312,-0.25061035156,0.006730791198575963,0.08183603877622062,1.0350179097716,0.87757384288,1.26069255113,0.009092256610749156,0.09511464307715932,Null
-0.897136230465,-1.11206054687,-0.70617675781,0.014067296472592824,0.11830874857858087,0.3270092773408,0.20703125,0.42590332031,0.0026710252126532137,0.051552595342911185,-0.39686157226200003,-0.55163574218,-0.17004394531,0.016202379439818945,0.12696994739945294,1.0421937747446,0.80558043074,1.28340854481,0.01597560253468452,0.1260782476163557,Null
-0.9414709472616001,-1.21252441406,-0.63830566406,0.02566814496153818,0.15981177752822376,0.30898071288650003,0.11743164062,0.43725585937,0.00642672976512237,0.07996621859445874,-0.3705310058554,-0.53479003906,-0.10559082031,0.012969143994372821,0.11359708743801909,1.0660605203974998,0.7638372647,1.330054542,0.027621625380946306,0.1657815347197678,stairs up
-0.9206384277299999,-1.20983886718,-0.60107421875,0.03310717879062551,0.1814983275313367,0.29772583007450004,0.1875,0.39916992187,0.00288575541881394,0.05358476128266198,-0.386894531246,-0.61193847656,-0.15026855468,0.012335296647679603,0.11078637174508968,1.0506410288338,0.78929109378,1.36027412714,0.030294654323038375,0.17361791685025824,stairs up
-0.8995922851529999,-1.21203613281,-0.56103515625,0.03873757483975017,0.19632597119472356,0.3122631835901,0.21801757812,0.39538574218,0.001883767603676042,0.04329374972969727,-0.40364990234059994,-0.55822753906,-0.14099121093,0.01170489461569704,0.10791834942501,1.0420188327184,0.72146448377,1.36147866312,0.03614992676035044,0.1896554168130947,stairs up
-0.8869152831992,-1.04650878906,-0.74841308593,0.005950312786678298,0.07694518323290228,0.3322033691366,0.25256347656,0.40185546875,0.0014191339048948224,0.03757709721852326,-0.40555053710570005,-0.60864257812,-0.19140625,0.01209347087986255,0.10969504786207643,1.0361755683256002,0.82676135557,1.24552659428,0.007190784699274077,0.08458623277920413,Null
-0.8696826171834001,-0.91625976562,-0.83642578125,0.00015634817095017424,0.012472627233082186,0.3170214843712,0.24328613281,0.36340332031,0.0008284931566133036,0.02871150798600166,-0.4324047851533999,-0.57751464843,-0.33801269531,0.0017679620088061226,0.041941890738998545,1.0227816526817999,0.98322449161,1.08631285348,0.0004835222770621063,0.02193409824170567,Null
-0.8797827148396999,-1.05725097656,-0.59692382812,0.006609295594622776,0.08109407571857306,0.3102954101524,0.2412109375,0.43566894531,0.0019715110320520524,0.04429055742358401,-0.42154296874629993,-0.62805175781,-0.18798828125,0.006498324535546952,0.08041040301397089,1.0265438885218,0.76686344411,1.29567595859,0.009257006871793524,0.09597250563278296,Null
-0.8922265624961,-1.06896972656,-0.68469238281,0.007643715903972582,0.08720950248942325,0.3541821289023,0.26452636718,0.44274902343,0.002472299852482764,0.04959776560713547,-0.39066528319970006,-0.54211425781,-0.21936035156,0.009303402977064144,0.09621271206123867,1.0415494648951,0.84497166423,1.24039193902,0.00867298148296689,0.09289572958727466,Null
-0.9068072509725499,-1.19067382812,-0.69213867187,0.022056970401346656,0.14814413774881516,0.3268054199177,0.14929199218,0.47436523437,0.005975480114157071,0.07710773446021019,-0.4328814697228499,-0.71838378906,-0.18115234375,0.016651249228045995,0.12871671601585308,1.0621227052822,0.79458111294,1.39013476785,0.031149196095004963,0.1760495672091526,Null
-0.8886322021452,-1.11474609375,-0.625,0.017731634357054434,0.13282686544998779,0.21937377929470003,-0.2158203125,0.61047363281,0.04613766954536697,0.21425914495684922,-0.37923034667675,-0.7236328125,0.26831054687,0.0445466990435315,0.21053257597890604,1.035929010961,0.78516870934,1.29430118489,0.016414782666324467,0.12779948651302495,Null
-0.9589819335898001,-1.29113769531,-0.77014160156,0.013605369988388134,0.11635008869118318,0.2294641113251,-0.11083984375,0.53112792968,0.02095574705242794,0.14439864375113015,-0.13654663085779997,-0.70910644531,0.67272949218,0.11594039743528625,0.3396478992252268,1.0635305920533,0.8926042098,1.3696195823,0.00964502151468852,0.09796324008073169,Null
-0.8478546142546,-0.88195800781,-0.7900390625,0.0006351705228736005,0.025139504176877325,0.27207763671545004,0.16223144531,0.35998535156,0.00181579710250979,0.042505506902014954,-0.49958312987855,-0.55676269531,-0.43688964843,0.0006204484511728907,0.024846452642520746,1.02207003342115,0.96441638609,1.09256622422,0.0007167409611662638,0.026705004331780823,Null
0.30800537109224996,-0.90612792968,0.953125,0.49401334223498283,0.7011014730577935,0.36901855468489997,-0.2314453125,1.00769042968,0.07010897739375622,0.2641182169158111,-0.49082824706645,-0.89916992187,-0.30969238281,0.013104801902446126,0.11418965755677654,1.0091068483978498,0.46664226637,1.49034041781,0.02813942199546288,0.16732819513006636,Null
-0.82903869628495,-0.94360351562,-0.71496582031,0.003382194428256915,0.05801106322173065,0.42821105956734995,0.29333496093,0.60375976562,0.00909065340604727,0.09510625709708606,-0.336788940426,-0.59387207031,-0.0380859375,0.010059745532857952,0.10004722287596823,1.00079879531675,0.86653864702,1.1370902028,0.0036303816026533537,0.060101827714638484,lift down
-0.8572680664028001,-0.88537597656,-0.84216308593,0.00011397834399043939,0.0106493404617604,0.3485498046839,0.32263183593,0.36340332031,0.00011417520705321086,0.010658533248901782,-0.43337829589495,-0.45202636718,-0.3896484375,0.00021320476265273126,0.014564983310648441,1.02207167601105,1.01374238197,1.03284621248,2.0996976875702275e-05,0.004570775863168502,lift down
-0.85586853026965,-0.86645507812,-0.84606933593,2.572179103270415e-05,0.005058970456282644,0.34621032714485006,0.33459472656,0.35852050781,3.481826254209485e-05,0.005885929937519166,-0.43248901366805,-0.44165039062,-0.41625976562,4.00869316256375e-05,0.006315575743153534,1.01955401474155,1.00856827335,1.02882876238,2.9159346201611226e-05,0.0053864226969857435,lift down
-0.8571765136684999,-0.86950683593,-0.845703125,3.0523866564481494e-05,0.005511011452688072,0.3405310058557,0.32177734375,0.35852050781,0.0001237425837135015,0.011096119627821881,-0.43393737792574993,-0.44323730468,-0.42541503906,2.8708933212996168e-05,0.00534465981582843,1.0193961819549502,1.00569395167,1.02975886362,2.821529455354796e-05,0.005298510930514366,lift down
-0.8673016357382,-0.9326171875,-0.80163574218,0.00048484800413155845,0.021964147242970775,0.3397851562457,0.22021484375,0.43383789062,0.0026967958230064474,0.05180069346921347,-0.44957702636374997,-0.52795410156,-0.36486816406,0.001384006534600581,0.03710911615664779,1.03605667927985,0.9615928617,1.09041018788,0.0009195596249192631,0.030248335934306647,lift down
-0.8258026123004001,-0.85278320312,-0.80517578125,0.00011407107525878325,0.010653671662036958,0.382874145504,0.36499023437,0.43005371093,0.0003445461463255968,0.01851549123285604,-0.4875311279255999,-0.53771972656,-0.45385742187,0.0003409264970360171,0.01841797666821296,1.0328238552962,1.0129709779,1.0815792379,0.00030110191757648584,0.0173088534567892,lift down
-0.8582220458944001,-0.92272949218,-0.81616210937,0.0012448576374031425,0.0351942232364365,0.33070129394139997,0.23388671875,0.38012695312,0.002428731037325475,0.049158797606723946,-0.44241882323875004,-0.51965332031,-0.3759765625,0.001381672776128607,0.037077815634796556,1.0230294074301,0.99824889913,1.04339897197,8.40780990233696e-05,0.00914645879716586,lift down
-0.8414862060506002,-1.00280761718,-0.68334960937,0.004341744267994261,0.06572697731262475,0.40254028319955,0.0546875,0.73571777343,0.015843991177370897,0.12555784014343366,-0.3838122558557,-0.6826171875,-0.04321289062,0.016041248645949902,0.12633701913026185,1.02252027788265,0.78531664068,1.30225623762,0.007987630963468087,0.08914983347517115,Null
-0.8017651367151001,-1.09729003906,-0.58605957031,0.01348123143678064,0.1158180697456003,0.5113153076138499,0.26123046875,0.86486816406,0.0195520111659915,0.1394784969454487,-0.3958068847621,-0.68408203125,-0.10961914062,0.01690677987716001,0.12970060130074268,1.04615979212495,0.72216525538,1.35722170664,0.016255055264369895,0.1271761769674181,Null
-0.7884875488243,-1.07092285156,-0.51892089843,0.01746910954082035,0.13183991805639234,0.5195697021445,0.24389648437,0.89538574218,0.01621800430107634,0.12703115475965318,-0.39788269042609997,-0.74841308593,-0.14807128906,0.019819152684231494,0.14042812012132874,1.0354743161739,0.6162828745,1.42871831134,0.03116341821001612,0.17608975302091273,Null
-0.80717895507395,-1.26135253906,-0.47131347656,0.0500023214050093,0.22305225799795048,0.5069305419892999,0.27294921875,0.75219726562,0.014457338185241985,0.11993769838676985,-0.2965966796833,-0.54760742187,-0.10131835937,0.008486333827845164,0.09189070768421548,1.0112643294574,0.62825358626,1.44791678273,0.046644974606114616,0.21543386394224107,stairs up
-0.8070056152303,-1.25805664062,-0.4755859375,0.04857026572028036,0.2198349708114679,0.5345843505828499,0.2353515625,0.92553710937,0.0268901335799528,0.16357164458442372,-0.31045043944975004,-0.59143066406,-0.14440917968,0.009990611805644431,0.09970285224915187,1.0296566131032001,0.60546324942,1.4073212411,0.05854168985002438,0.24134825750515426,stairs up
-0.8608203124959501,-1.28466796875,-0.50317382812,0.04465879184519819,0.21079729098347588,0.45252197265234995,0.24682617187,0.71594238281,0.01539825069831822,0.12377907514934271,-0.24989807128564998,-0.53662109375,0.017578125,0.012790216988906847,0.11281075260790663,1.02123112341945,0.69138786593,1.48878190237,0.037996791925920384,0.19443972836406345,stairs up
-0.9007208251911001,-1.13244628906,-0.61108398437,0.02143401997729439,0.14603715238735626,0.33796142577720006,0.24682617187,0.44189453125,0.002360637517450083,0.04846477411339944,-0.3906298828091,-0.60437011718,-0.09301757812,0.019965488083975216,0.14094559462273143,1.0485034254046999,0.72933093105,1.32411187789,0.022401555132970423,0.14929684309222876,stairs up
-0.9147503662067001,-1.21569824218,-0.68017578125,0.02147219471252867,0.14616714315798207,0.34024780273035,0.19287109375,0.46875,0.004334686747390138,0.06567353586988588,-0.4086895751917,-0.58374023437,-0.09228515625,0.02374268918121052,0.15370092951997547,1.06933722954275,0.75027105281,1.40317494828,0.025511237099259742,0.15932256875208686,stairs up
-0.9194976806601,-1.23876953125,-0.63452148437,0.02661747203670484,0.1627402368086065,0.3377020263637,0.21057128906,0.47412109375,0.0025212508346858058,0.05008637120527277,-0.3817980956989,-0.55004882812,-0.15637207031,0.01333193868690751,0.11517499291718221,1.05800225660105,0.74236349729,1.43504298183,0.02831956031160891,0.16786292774180625,stairs up
-0.9249017333943,-1.32006835937,-0.58215332031,0.04325105261812006,0.20744830043899964,0.3283886718713,0.21057128906,0.42907714843,0.0029540782956705997,0.054215384386650314,-0.43376464843355,-0.62561035156,-0.14697265625,0.01537882772517695,0.12370098458197924,1.0830454070293,0.73280356062,1.49695805715,0.039922403659548786,0.1993057742295768,stairs up
-0.8993308603425373,-1.21130371093,-0.58227539062,0.04381663081203721,0.20880286785367105,0.33234766110507463,0.22351074218,0.39880371093,0.0016416721453294365,0.04041663793808615,-0.4045343351557214,-0.58190917968,-0.16162109375,0.01478224638080214,0.12127944123580793,1.0488137784538312,0.69857406731,1.36391002724,0.04304364324626995,0.20695288296477723,stairs up
-0.9350420314423618,-1.27856445312,-0.57263183593,0.04458807448977443,0.21062766630703197,0.31374339961170855,0.19165039062,0.43176269531,0.003071732301312919,0.05528378117135987,-0.3774322049659799,-0.5849609375,-0.12194824218,0.01539883212234525,0.12377984915326005,1.0647310518681912,0.65252777747,1.42930926338,0.044506791446809836,0.2104355940150909,stairs up
-0.9098480224575001,-1.27209472656,-0.52404785156,0.028222593071780377,0.1675752968262968,0.33459838866799996,0.20080566406,0.45361328125,0.003060910856023581,0.05518701207479404,-0.38747558593380005,-0.55187988281,-0.12243652343,0.016366225391277096,0.12761032193486824,1.05253824200065,0.65252777747,1.40883837483,0.029639763982372405,0.17173108385630292,stairs up
-0.9170776367147002,-1.24011230468,-0.62609863281,0.02317187249944478,0.15184206642741516,0.3419622802698001,0.14013671875,0.61364746093,0.006832234358843545,0.0824504286650429,-0.37939025878535004,-0.56408691406,-0.13928222656,0.01871946804161887,0.13647663060542922,1.06062299457285,0.72556295653,1.38892632579,0.025593348504319737,0.15957876350504205,stairs up
-0.9395068359345001,-1.32531738281,-0.54406738281,0.05129368710172661,0.22591418429620125,0.33637145995754997,0.14013671875,0.73400878906,0.013203486680052473,0.11461879970865256,-0.23900939941035,-0.49536132812,0.09484863281,0.028084781208078075,0.16716565826161092,1.047377159122,0.69555862228,1.41252387625,0.04830600865495276,0.2192361252432591,stairs up
-0.9370785233946766,-1.25524902343,-0.60571289062,0.043985602244713026,0.20920508694269252,0.3171453523368159,0.21826171875,0.41064453125,0.002691285937874769,0.05174839568138113,-0.3776339250980099,-0.55810546875,-0.16320800781,0.013198644001445792,0.114599210756079,1.0673825483084578,0.71120633292,1.38984135182,0.04178473870644773,0.20390403241298674,stairs up
-0.9153469986614572,-1.25073242187,-0.58923339843,0.03249050734381875,0.17979777101703467,0.35463940797301496,0.19934082031,0.54724121093,0.00460897811676395,0.06771866376937645,-0.32730915318396986,-0.57885742187,-0.07678222656,0.01567479930852504,0.12488407213413488,1.0451421984849243,0.76349574445,1.39797653294,0.03110369166798683,0.17591870767447174,stairs up
-0.9048614501915,-1.23095703125,-0.58117675781,0.03433126996480961,0.1848231955545233,0.35140502929305,0.04321289062,0.84899902343,0.020349890381373983,0.1422959624496321,-0.33308715819995,-0.6552734375,-0.07836914062,0.026447132866519545,0.16221867094199405,1.0441015449459001,0.65912138504,1.51102153954,0.044001416284105734,0.20924007551777743,Null
-0.89415283202765,-1.05480957031,-0.74340820312,0.003739346661161074,0.06099713048869814,0.3392022705041499,0.166015625,0.52221679687,0.006093211808512304,0.07786363560398231,-0.4102777099571,-0.52575683593,-0.2822265625,0.002874734188616313,0.05348233837140287,1.0448758853678501,0.91687860079,1.17878702039,0.0037923688432660104,0.061428063611428295,Null
-0.88831359862885,-1.21044921875,-0.68469238281,0.009271743470868114,0.0960488664873968,0.31327331542615,0.18090820312,0.47863769531,0.003994716363544675,0.06304556115799867,-0.4271673583946,-0.6181640625,-0.18664550781,0.008694730047061727,0.09301213037462597,1.0393558015156001,0.74157980082,1.39728411736,0.012672872900349089,0.11229206800058204,Null
-0.874878536999403,-1.0419921875,-0.71887207031,0.004643393829183596,0.0679727325281753,0.3362454086946766,0.1982421875,0.46838378906,0.003939350407534133,0.06260792002045504,-0.4417056562853234,-0.603515625,-0.26538085937,0.006762837454769362,0.08203164936341915,1.041200256833184,0.89425539152,1.23196777586,0.004772319733450792,0.06890991836597087,Null
-0.8995532226524,-1.03845214843,-0.75671386718,0.005605961216179875,0.07468555020952163,0.3060009765582,0.12097167968,0.51318359375,0.0064270242135926504,0.07996805044844277,-0.4320849609336,-0.73583984375,-0.16174316406,0.015720668006668718,0.1250682400397294,1.0540811143656001,0.85774517698,1.17980681693,0.006088342725314747,0.07783251898588515,Null
-0.8239316700652762,-1.01940917968,-0.03430175781,0.04640620731464029,0.21487905968930215,0.41454832757231147,-0.07263183593,1.041015625,0.05273816470533622,0.22907018313672847,-0.35888487849060313,-0.55700683593,0.16528320312,0.018541758330550807,0.13582556337292756,1.045698994725176,0.96446644591,1.16355520113,0.002311651023641353,0.047958676867060616,Null
-0.4018334960915999,-1.22192382812,0.15783691406,0.1666879789836597,0.4072524267438334,0.8698120117145999,0.3056640625,1.326171875,0.04067725946542684,0.2011811948669649,0.0202978515612,-0.53039550781,0.22326660156,0.018502710475833357,0.1356841808150611,1.0519037065672001,0.80609567813,1.6267981713,0.03687668178256715,0.19155233847085845,Null
-0.6549633789026,-0.70422363281,-0.61376953125,0.0005582967655133925,0.02356915954559741,0.7775122070271999,0.72924804687,0.80725097656,0.00037656590568017125,0.019356732062819137,0.06378417968399999,0.0087890625,0.12719726562,0.001310902768051088,0.03611576185283695,1.0196914095012,1.00706458617,1.03283969854,3.482146953056308e-05,0.005886200997494926,Null
-0.6720867919879001,-0.72192382812,-0.62390136718,0.0004441792757400706,0.021022806172377898,0.7563189697236001,0.69262695312,0.78100585937,0.0004228997436544616,0.02051305060043945,0.08870849608965001,0.001953125,0.22814941406,0.007045960755849145,0.08373010779922536,1.01951141330165,0.99819103924,1.03461752494,5.848234167128038e-05,0.007628232427169743,Null
-0.6554241943328999,-0.70678710937,-0.58288574218,0.0008945195485324642,0.02983365466699985,0.7726397705043501,0.74255371093,0.83862304687,0.0006169679592228092,0.024776664816449676,0.11019409179305,0.04406738281,0.17944335937,0.0012874216275692062,0.03579084407263065,1.0205654393741999,0.99195602299,1.04532840699,8.942897689448472e-05,0.009433018181367632,Null
-0.6695874023396001,-0.84936523437,-0.57446289062,0.005042042450750504,0.07082960001649559,0.7608447265587999,0.56335449218,0.87219238281,0.0040093746377318495,0.06316112542175915,0.0751513671852,-0.068359375,0.14794921875,0.004202374716890512,0.06466345833085375,1.0223818988374,0.95786101512,1.10137013182,0.0008065236899000654,0.02832827335808812,Null
-0.7706005859348,-1.15686035156,-0.47937011718,0.029125171426701135,0.17023379679008405,0.5598364257774,0.03149414062,0.98425292968,0.05570655952739834,0.23543157547313265,-0.0013012695323999957,-0.59143066406,0.37426757812,0.08429183768698723,0.28960383025532016,1.0325778927288,0.79174075386,1.24566897862,0.009351383132072153,0.09646049044252156,Null
-0.9221459960898,-1.03833007812,-0.74462890625,0.005083392786578224,0.07111944756988298,0.2572387695274,0.09252929687,0.4619140625,0.007249901192962682,0.08493321898408106,-0.3685693359337999,-0.58508300781,-0.2236328125,0.009041006505175324,0.0948461990416561,1.0336451579474,0.8747168747,1.14007473436,0.0052396929441759004,0.07220453226394463,Null
-0.9326660156220001,-0.95361328125,-0.89904785156,0.0001216665584260904,0.011002646301411309,0.36143310546400004,0.34643554687,0.38708496093,6.813979627622915e-05,0.008234020724703577,-0.203425292965,-0.22924804687,-0.16674804687,0.00015183262489572804,0.012291194481060391,1.0208371826518,0.98356778487,1.04245888466,0.00011358144679383315,0.01063078264098481,Null
-0.9155761718712,-0.94177246093,-0.86828613281,0.00023914881087080175,0.015425727432327065,0.37852783202759993,0.29382324218,0.57458496093,0.001913221187918511,0.043630895956637404,-0.21592285155879998,-0.38940429687,0.08093261718,0.005544565047274877,0.07427544831260531,1.0176457073079999,0.93595061221,1.04661406638,0.00024260172113361962,0.015536689239601581,Null
-0.8795361328084002,-0.91296386718,-0.84265136718,0.0005667990535745146,0.023747948507326734,0.3724951171838001,0.36083984375,0.39111328125,5.1370960975562876e-05,0.007149412994832867,-0.28873046874659997,-0.30407714843,-0.27197265625,6.709867985282908e-05,0.008170874277185087,0.9978880815472,0.95938283873,1.03147234831,0.0006059536510187401,0.024554508399958784,lift down
-0.9027978515594001,-0.91149902343,-0.89501953125,1.4244635496926037e-05,0.003764759264473813,0.3756274414024,0.36938476562,0.3857421875,1.4359034488728184e-05,0.00377984646728998,-0.29145019530899996,-0.30078125,-0.27893066406,2.9634686576059007e-05,0.0054301485378559135,1.0203517697562001,1.01322716309,1.03159735349,2.348239258438172e-05,0.004833733610932631,lift down
-0.8161523437458,-1.12658691406,-0.099609375,0.05776082740921083,0.23973323355797954,0.5365063476520001,0.310546875,1.13366699218,0.04225853244856907,0.20505423620673197,-0.25677978515359995,-0.62109375,0.35729980468,0.04405139451537994,0.20935887261542807,1.0495242872392,0.33708885192,1.43090719819,0.062038933103193715,0.24845268852978378,lift down
-0.7687817382778,-1.01672363281,-0.50146484375,0.02171040061129422,0.14697567352537547,0.6573632812462,0.33435058593,0.98278808593,0.033542813751647596,0.18268853188662215,-0.15187744140360002,-0.32287597656,0.04797363281,0.011052030828000426,0.10486548847862401,1.0527828429082,0.90195061843,1.19883191831,0.003859906021430676,0.06197262695193356,lift down
-0.6722290039021999,-0.70141601562,-0.64086914062,0.00027130671481033274,0.016430160718516454,0.7769384765592,0.744140625,0.82409667968,0.0005687903159540854,0.023789627243282208,0.0257763671842,-0.01184082031,0.04907226562,0.0001651697781481941,0.01281966962356882,1.0280114446736,1.00835414495,1.07778897784,0.0003842826593410575,0.01955405957964617,lift down
-0.6815478515586,-0.70788574218,-0.66528320312,0.00012229588762234904,0.011031065596044531,0.7557690429652001,0.73693847656,0.77685546875,0.00010447993950132388,0.010195957032266136,0.0404882812466,0.01220703125,0.06237792968,0.0001452235360878764,0.012020707899597137,1.018665735585,1.00938164735,1.03089393624,2.399969774272007e-05,0.0048866859172660634,lift down
-0.7352362060512501,-0.88781738281,-0.58752441406,0.006426697729557215,0.07996601928887938,0.67906372069995,0.52465820312,0.79650878906,0.006861538861526409,0.082627060744158,-0.0207476806649,-0.32214355468,0.11901855468,0.014389687802236263,0.1196567564461994,1.0138630575712,0.93156897471,1.12716225942,0.0017603185704165372,0.04185112874898901,Null
-0.7791528320271501,-0.89331054687,-0.57287597656,0.006089834825584723,0.07784205580184017,0.6582440185503,0.49938964843,0.86877441406,0.008382368968019319,0.09132610318621517,-0.04992980957065,-0.322265625,0.1123046875,0.012342943682973513,0.11082070638900768,1.0303551806031501,0.8243207552,1.23144150687,0.007946314617013854,0.08891896897697806,Null
-0.7415148925741499,-0.86254882812,-0.6201171875,0.003442707671288083,0.058527721063882564,0.70014282226175,0.56848144531,0.85974121093,0.004285272268349313,0.06529813096105865,0.0085076904301,-0.20043945312,0.21936035156,0.008730771133337301,0.09320470630644472,1.0264058446123001,0.87438494489,1.20027935084,0.0029991836530331296,0.05462771947251655,Null
-0.7558274772261306,-0.86267089843,-0.51879882812,0.004676027612025979,0.06820945671851443,0.6705021690446231,0.59619140625,0.85791015625,0.003562592416567832,0.059537298747194746,-0.08186378670427137,-0.34606933593,0.09375,0.008304148045302736,0.09089784737902439,1.020133016328643,0.87065218523,1.18653837594,0.0033551411865614658,0.05777786064401178,Null
-0.8459193291315921,-0.91088867187,-0.63806152343,0.004115070810367426,0.06398904454092998,0.5532524146809453,0.47863769531,0.662109375,0.0025672126602899843,0.050541472653653295,0.015388147152437808,-0.23779296875,0.13464355468,0.006896151846507484,0.08283623985515505,1.0167997749070148,0.87798906577,1.11186608834,0.0015413076815752938,0.03916170941308003,Null
-0.83975219726235,-0.94677734375,-0.72302246093,0.0034840211422005967,0.058877848436314266,0.56878295898055,0.41003417968,0.75463867187,0.008333249593931955,0.09105813168499723,0.049070434567899994,-0.11462402343,0.25756835937,0.005738731376419136,0.0755647915337364,1.02358814620355,0.95116212279,1.08880544581,0.0008454711910489194,0.029004203748658138,Null
-0.7201666259723,-0.85864257812,-0.62719726562,0.0026491902727166484,0.05134144837607394,0.70889160155915,0.5517578125,0.83117675781,0.005053127267207947,0.07090741590885898,-0.08487365722295,-0.29541015625,0.03125,0.00488555526877226,0.06972178635425515,1.01992150383005,0.95152362374,1.07225148481,0.0006591649116429702,0.025609941176909314,Null
-0.689707080320201,-0.76550292968,-0.64526367187,0.0010532777954841194,0.032372595543769436,0.7806187921988943,0.66027832031,0.85620117187,0.00197576619994079,0.04433776862421308,-0.08541977465095478,-0.14123535156,-0.02966308593,0.0005753221251714437,0.023925531534655785,1.0466084002158291,1.00314570907,1.09625905939,0.0005580076663144416,0.023562758915070744,lift up
-0.6698113436683582,-0.79895019531,-0.56530761718,0.0052038818004247435,0.07195826457898113,0.7599429609732836,0.630859375,0.85302734375,0.005274866804517335,0.07244738564011058,-0.04271307038736318,-0.12451171875,0.04919433593,0.00183627927330291,0.0427450997837797,1.0198184301224378,0.98203568802,1.06170616226,0.00021012046440250536,0.014459429067487997,lift up
-0.6314074706992,-0.6904296875,-0.59631347656,0.0008159845902757949,0.0284939408879224,0.80000671386385,0.75903320312,0.83325195312,0.0005649374054962667,0.02370891643388169,-0.0181634521476,-0.06799316406,0.02819824218,0.0006939544594592391,0.0262770753159849,1.0203159650631002,1.00966628303,1.03348476126,3.606109079005222e-05,0.0059900572064131375,lift up
-0.6564886474570499,-0.6904296875,-0.62438964843,0.0001351923645301403,0.011598120654118476,0.78198059081735,0.76159667968,0.79638671875,8.351501470026565e-05,0.009115779704817594,-0.04026000976135,-0.05639648437,-0.02380371093,7.577852837026248e-05,0.008683296363041583,1.0219444030611502,1.01298907147,1.02973715035,1.4580471593000685e-05,0.003808880312511235,lift up
-0.6179156494106001,-0.6328125,-0.60510253906,5.2149178606200845e-05,0.007203362597646313,0.80653869628545,0.79455566406,0.81872558593,3.3992435687737e-05,0.005815709200888428,-0.0600964355427,-0.07800292968,-0.03564453125,0.00010471044321716705,0.010207197999504135,1.0178916215956,1.00867751798,1.02860578467,2.2657730209991052e-05,0.004748098730959698,lift up
-0.6108630371052,-0.64245605468,-0.56555175781,0.00038820301317245477,0.019653549249603556,0.81765502929285,0.79833984375,0.83972167968,0.00011155798655727923,0.010535663084234084,-0.052412719723650004,-0.12121582031,0.02648925781,0.0009448312899818099,0.0306611665389936,1.0226683518109,1.00164128259,1.03880516967,6.312651313676296e-05,0.00792533157483516,lift up
-0.6160290527304,-0.6953125,-0.56372070312,0.0004805934474301652,0.02186756685580301,0.8069750976521999,0.73571777343,0.82543945312,0.00029522348888287494,0.01713905981780974,-0.06760253905920001,-0.11975097656,0.021484375,0.0007938279877892213,0.028104427548880536,1.0182081125116,1.00011046365,1.03667999258,3.935794028851414e-05,0.006257887070495245,lift up
-0.61643920898105,-0.67822265625,-0.58447265625,0.0007207271307214238,0.026779161582615254,0.7813702392543002,0.74194335937,0.82556152343,0.0005039121153997756,0.022391796596583687,-0.020877075193850004,-0.07580566406,0.06652832031,0.0016336041831975876,0.04031669830580872,0.9966423994213,0.96507861873,1.0271746275,0.0005230968015560278,0.022814059646372623,lift up
-0.7929962158166499,-0.88195800781,-0.658203125,0.00310292876508212,0.05556450414839234,0.62693847655885,0.48315429687,0.77734375,0.006056576002775961,0.07762920277036266,-0.028034667969499997,-0.19567871093,0.11083984375,0.009259853296561276,0.09598725972793717,1.0200768535217,0.94316256979,1.06631322601,0.00045353616285402306,0.021243080803870065,lift up
-0.7602569580046,-0.88623046875,-0.67590332031,0.001425234881735914,0.03765778415317655,0.6563562011678499,0.59716796875,0.724609375,0.0008576127916788591,0.029211722436728458,-0.15898559569985,-0.22973632812,0.04650878906,0.003769906350324036,0.061245871849230915,1.0190818306354,0.92940925794,1.07978269044,0.00042888307677829723,0.020657653821148366,lift up
-0.7577270507777001,-0.87316894531,-0.65270996093,0.0011159296910468915,0.03332191534998637,0.6674304199177999,0.56335449218,0.76916503906,0.0016128208454841472,0.04005941513872521,-0.1419641113259,-0.21838378906,0.05053710937,0.005995133849862528,0.07723443649443697,1.0236755184904,0.9181392917,1.08021913542,0.0005388498753430796,0.02315503457061475,Null
-0.7615570068330498,-1.08203125,-0.56323242187,0.014198079471403488,0.11885743171567553,0.66657897948805,0.40856933593,0.92919921875,0.014912972599795245,0.1218130031515366,-0.037908325195649996,-0.33288574218,0.20654296875,0.01691601560824006,0.12973602248488603,1.0282526724999501,0.72998085659,1.31991107187,0.014298518100089447,0.11927709549443682,Null
-0.8022821044875499,-0.92346191406,-0.67370605468,0.00428711945647671,0.06531220298837215,0.5899304199183999,0.32836914062,0.77490234375,0.007865480530632291,0.08846554768936396,-0.1084979248019,-0.37463378906,0.06066894531,0.011589903938810042,0.10738693784216026,1.01249586176265,0.90851207933,1.09833430325,0.001343902344686948,0.03656751062026937,Null
-0.7955627441361,-1.18688964843,-0.48132324218,0.027799003799689706,0.16631298440197403,0.6475988769493,0.33776855468,0.8798828125,0.017421906514219557,0.13166167620704386,-0.06735595703059999,-0.48828125,0.14099121093,0.023907858096914092,0.15423462259307902,1.0446739930676001,0.59029753704,1.34128399171,0.034452847246125726,0.1851501634076921,Null
-0.7678918456993,-1.06274414062,-0.5087890625,0.015682135171984097,0.12491486899534489,0.6765441894499,0.37036132812,1.06469726562,0.026104265833617687,0.1611637195663143,-0.0562561035147,-0.44201660156,0.09912109375,0.016374618376115244,0.12764303852633196,1.0385288045507999,0.65751140707,1.35003349607,0.030012876939832914,0.17280860092927594,Null
-0.7128393554652999,-1.23010253906,-0.31079101562,0.046503456147882274,0.21510680804461504,0.6755786132777,0.28930664062,1.04833984375,0.024196900680414545,0.1551641588029029,-0.11892211913810001,-0.44958496093,0.12890625,0.01508141441376908,0.12249900955395612,1.0005122456152,0.42738936283,1.59517185046,0.06333365688339149,0.25103184777827403,stairs down
-0.6872363281217,-1.09545898437,-0.46936035156,0.01980343287920311,0.14037241792747993,0.6739624023397001,0.35083007812,1.02075195312,0.019427597672489322,0.1390340234767263,-0.19447631835540002,-0.47155761718,-0.03503417968,0.011322590087202116,0.10614130740087059,0.9907697096119,0.63306485548,1.49975548181,0.03318227528685603,0.18170405584472174,stairs down
-0.7581958007774,-1.27575683593,-0.51452636718,0.03483588312739725,0.1861765391013601,0.6907763671848999,0.35803222656,1.10595703125,0.018385598024479546,0.13525409433491153,-0.1248815917955,-0.37231445312,0.11303710937,0.017507675440667548,0.13198536685354256,1.046307179717,0.648511193,1.68867855066,0.04346238214046705,0.20795449076604408,stairs down
-0.8010534667932001,-1.328125,-0.43237304687,0.03369376882700936,0.1830991534193272,0.6443273925751,0.27124023437,0.88806152343,0.02487327736680878,0.1573178660546053,-0.0546777343742,-0.49621582031,0.2373046875,0.025456112136846572,0.15915034268314454,1.0483798925989,0.51114781393,1.50888861664,0.04455954116062312,0.2105629204176747,stairs down
-0.7813720703092,-1.16088867187,-0.52331542968,0.021623746234728222,0.14668206265100917,0.6631140136681001,0.32446289062,0.93762207031,0.02170645227842269,0.14696230815086764,-0.0699560546853,-0.39672851562,0.09655761718,0.015621304715089778,0.12467236338304624,1.0401835094049,0.63633667417,1.33885446621,0.03199132607483514,0.17841347887550696,stairs down
-0.7461413574184,-1.25048828125,-0.3935546875,0.02952112651215279,0.17138704991799125,0.6534533691368,0.34838867187,1.20190429687,0.020455729450815183,0.14266552072438912,-0.17069824218489998,-0.42565917968,0.09997558593,0.01935743732016557,0.1387827443653019,1.0216705370675998,0.55043306911,1.58358101465,0.03823422741330989,0.19504629264931783,stairs down
-0.7325793457004,-1.04541015625,-0.47644042968,0.019381975796925716,0.1388706805554761,0.7613085937471,0.57604980468,1.01794433593,0.014230153524560571,0.11899160792651627,-0.205195312496,-0.41564941406,0.01098632812,0.01158079427684472,0.10734472649115324,1.0845376519872,0.83472671346,1.43723332999,0.027249677720910075,0.164661559971675,stairs down
-0.7533923339805,-1.34375,-0.43273925781,0.03717735343702194,0.1923316580021002,0.6953210449186998,0.49523925781,0.99047851562,0.021507205452422982,0.14628625849737517,-0.11910644531020001,-0.37084960937,0.11437988281,0.013740150197157883,0.11692497357781226,1.0450016516164,0.7484384911,1.63764466745,0.04551944058622357,0.2128188041111322,stairs down
-0.7847961425746999,-1.16638183593,-0.47106933593,0.028748501597538664,0.16912941521081118,0.6392871093704001,0.32995605468,0.92468261718,0.018599288223999012,0.1360378321750204,-0.0598986816395,-0.50512695312,0.134765625,0.023355748992699304,0.15244333454676137,1.029962008532,0.59251248493,1.38696364805,0.03789862087556292,0.19418838217356132,stairs down
-0.7496362304649,-1.0947265625,-0.51147460937,0.022416359509793045,0.14934616738384712,0.6518737792931,0.3408203125,0.90197753906,0.018221878937936236,0.13465054601911777,-0.07342041015539999,-0.42211914062,0.107421875,0.0170483806079395,0.13024261478064622,1.0093158490637,0.63568166512,1.32812344046,0.03111976037586342,0.17596636489393108,stairs down
-0.7341870117146999,-1.09802246093,-0.51831054687,0.02050827448688427,0.1428486370759268,0.6857495117152999,0.45471191406,1.08996582031,0.01630791444256179,0.12738278875244088,-0.1495617675756,-0.48413085937,0.13037109375,0.018782214691426144,0.1367051704141764,1.0297120223035001,0.78540173768,1.5112617551,0.026799242248479162,0.16329496635609062,stairs down
-0.7314404296836998,-1.30310058593,-0.51953125,0.025034866416719898,0.1578280459380914,0.6700366210904,0.43798828125,0.935546875,0.011791605392382318,0.10831734563503856,-0.1712670898401,-0.37683105468,-0.01904296875,0.007408081281127766,0.08585476617359183,1.0152473413886,0.72164847754,1.51495288418,0.02670633966864586,0.16301168047199144,stairs down
-0.7831481933558,-0.97436523437,-0.63720703125,0.0040710626459929755,0.06364516739519985,0.6407775878869001,0.42993164062,0.7841796875,0.006408928439627023,0.07985539303909842,-0.06394775390400001,-0.26452636718,0.05749511718,0.0066298042765636144,0.0812197959562864,1.0198616023587999,0.88711183716,1.21814429686,0.004937571402012107,0.07009196491040928,Null
-0.7681567382779,-0.95971679687,-0.57104492187,0.004315257258126562,0.0655261853905439,0.6854028320278001,0.54089355468,0.91943359375,0.005549675969144101,0.0743096735916555,-0.0681445312484,-0.38500976562,0.10144042968,0.011354876858153212,0.10629253254044918,1.0390210427274003,0.86984783931,1.27237212778,0.00606480166372658,0.07768190043638189,Null
-0.7956152343718,-1.21166992187,-0.40295410156,0.04229765797384549,0.2051491401005041,0.6492224121054,0.36218261718,0.96789550781,0.018369867949789856,0.13519622261750106,-0.0206213378913,-0.32434082031,0.19763183593,0.017419927159916266,0.13165419675846526,1.0422431236116,0.63003196428,1.43322934812,0.046577757009348346,0.21527858282769702,stairs up
-0.803483886715,-1.22204589843,-0.39025878906,0.055965087228417434,0.2359772484632265,0.604317626949,0.29724121093,0.84948730468,0.02350583844890122,0.15293236824379824,-0.0495324707032,-0.37573242187,0.19934082031,0.02340985837651812,0.15261981878064046,1.0237239264006,0.54897169359,1.47854405102,0.0679349937240295,0.2599909974506989,stairs up
-0.7701293945278,-1.20520019531,-0.44323730468,0.03159453147040251,0.17730357811688544,0.6460107421837,0.29565429687,0.98083496093,0.018990296598466565,0.13746034015480332,-0.0265014648443,-0.41638183593,0.16174316406,0.018019755131518732,0.13390166674041493,1.019277538929,0.55912667308,1.40357414609,0.040669698382329776,0.2011624962323199,stairs up
-0.7255664062459999,-1.05676269531,-0.37902832031,0.026253242804175497,0.1616229457414838,0.6898791503868,0.38586425781,1.04187011718,0.028465196563340102,0.16829400042937775,-0.0098291015622,-0.44116210937,0.49560546875,0.024959837514920685,0.15759136501517487,1.0242971501001,0.70431475116,1.32953167079,0.032735373914545694,0.18047630604866932,stairs up
-0.7471704101514,-1.46508789062,-0.10119628906,0.16301380670861346,0.4027390441403346,0.1599279785139,-0.234375,0.57397460937,0.04992475151737708,0.2228791774926276,-0.5814001464795,-1.15686035156,-0.00744628906,0.08600457530953372,0.29253128453720306,1.0829653630298999,0.65425042514,1.57377240027,0.04673482491887633,0.21564125485231705,stairs up
-0.9534851074184,-1.31652832031,-0.51489257812,0.04567186897582472,0.21317483348403393,0.2849304199181,0.07141113281,0.44396972656,0.006370848859099309,0.07961780337841413,-0.376601562496,-0.58728027343,-0.0791015625,0.020576705668814147,0.14308676437906503,1.0772217035814,0.70252054511,1.47403299549,0.0442187526210576,0.20975618908140067,stairs up
-0.9215722656206,-1.25073242187,-0.58825683593,0.04636179037418767,0.21477891289024797,0.2863549804651,0.17749023437,0.33923339843,0.0015326721524689193,0.03905136094563894,-0.4092663574177,-0.57836914062,-0.16125488281,0.017892327229267507,0.13342737947333436,1.0576479697991998,0.67903836263,1.39212840497,0.04586150221371984,0.21361693449408742,stairs up
-0.9506176757776,-1.34020996093,-0.55285644531,0.05113291004192461,0.22555984902396745,0.28252441405879997,0.04541015625,0.61315917968,0.011434202613486587,0.1066631689029496,-0.3314477539029,-0.61193847656,-0.00732421875,0.02702962500969455,0.16399535628988424,1.0622802922873,0.66550714765,1.48592690104,0.05433262130868593,0.23251012494543652,stairs up
-0.9001708984341,-1.21142578125,-0.56213378906,0.020329722208006384,0.14222543231421853,0.3129687499969,0.18225097656,0.39245605468,0.002454651276644098,0.04942042108542659,-0.4209851074177,-0.5947265625,-0.14416503906,0.0148220087100902,0.12144092665382519,1.0496230002331999,0.76109252032,1.33030434363,0.021301963008760784,0.14558658315146,stairs up
-0.8893518066369,-1.09411621093,-0.70861816406,0.01289805732640992,0.11328533461917244,0.29364868163679997,0.15710449218,0.40246582031,0.0026484008276090754,0.051333798062008135,-0.41519897460535,-0.63122558593,-0.15747070312,0.018890948809231038,0.13710030658311775,1.0341349326808,0.80258824301,1.24592442094,0.015123127297948236,0.12266829933384785,stairs up
-0.9493298339809,-1.20861816406,-0.62158203125,0.02412112337105491,0.15492100488377822,0.2520312499961,0.13671875,0.3642578125,0.0025268453209492704,0.050141909560212444,-0.36878173827699995,-0.53881835937,-0.12536621093,0.014178287389965745,0.11877455936780366,1.0573908563271002,0.72101700933,1.37250385969,0.023410609955842977,0.1526222687095948,stairs up
-0.9610351562463001,-1.259765625,-0.689453125,0.025192673481847592,0.15832469837153756,0.25902465819880005,0.16271972656,0.34973144531,0.0019250336169920204,0.043765379570010136,-0.3701513671834,-0.53332519531,-0.13317871093,0.015799944748230595,0.12538319275121942,1.0705351862115,0.81825291161,1.40746865979,0.024474229544411336,0.15605081991674788,stairs up
-0.9213366699171001,-1.22338867187,-0.54760742187,0.043346149566740946,0.20767623556610237,0.26562194823904994,0.11071777343,0.40148925781,0.003246007019198162,0.05683112689453,-0.38953186034814996,-0.60302734375,-0.11804199218,0.013575564272258358,0.11622257289742413,1.0456201418562001,0.66457721733,1.39362613572,0.04142559591295147,0.20302331869365822,stairs up
-0.90650268554305,-1.2333984375,-0.53002929687,0.034850089021429935,0.18621449614979704,0.29494812011305,0.146484375,0.44714355468,0.002880129963530938,0.05353250707479786,-0.39011108398095007,-0.61254882812,-0.16540527343,0.014971271170862685,0.12205086978390761,1.0377367018130002,0.64984394272,1.36948727234,0.03665195046856844,0.1909677740254245,Null
-0.8864544677696001,-1.04443359375,-0.73950195312,0.0073082752230637215,0.08527446186841875,0.29705505370665003,0.18530273437,0.42993164062,0.003536881504575554,0.05932282104765987,-0.45016479491780004,-0.64367675781,-0.21313476562,0.012241872673338651,0.1103660423770462,1.0449146184738498,0.87446234567,1.24686023851,0.00785588472386053,0.08841156768342719,Null
-0.8898950195277499,-1.072265625,-0.75708007812,0.0035600790966040367,0.059517045467000596,0.28726196288694994,0.20678710937,0.39489746093,0.0013905640448313905,0.03719692493482806,-0.42102355956664994,-0.53857421875,-0.21862792968,0.005405853057839414,0.07334046490546822,1.0299129076558,0.88043902363,1.20158864056,0.0038982540575565987,0.062279714091097234,Null
-0.9225726318319001,-1.44714355468,-0.41052246093,0.06482945710271854,0.25397895546128413,0.2773986816363,0.09326171875,0.43041992187,0.006139840874462524,0.07816099839491696,-0.43516662597285,-0.72705078125,-0.11853027343,0.028007331082941768,0.16693500060660454,1.0740965263809503,0.49276307677,1.59409794094,0.06257153756150471,0.24951689296257515,stairs down
-0.89483764648085,-1.35266113281,-0.50524902343,0.0517493794897264,0.22691547455446437,0.2695471191366,0.14624023437,0.40942382812,0.004085913421816371,0.0637611469055199,-0.4585009765589,-0.71630859375,-0.12377929687,0.02548342251907293,0.1592356913712424,1.0556211685847001,0.5967485104,1.47666014999,0.050441486221079246,0.22402963819542682,stairs down
-1.0012213134730001,-1.56311035156,-0.63220214843,0.03978351155391488,0.1989587746146053,0.28526000976160004,0.05590820312,0.54846191406,0.013342251692275582,0.11521953147715105,-0.37480773925440003,-0.62939453125,0.01574707031,0.031830887314627986,0.17796553845633947,1.12565401010515,0.67000226797,1.6533860781,0.041942864292155754,0.20428693049408464,Null
-0.9123980712857,-1.09167480468,-0.8212890625,0.003769888227501798,0.06124572463743318,0.25783935546500003,0.03015136718,0.41088867187,0.006128124429915615,0.07808638682744923,-0.4369830322227501,-0.61352539062,-0.19299316406,0.00943005698677366,0.09686540508272183,1.05023458171865,0.90126628868,1.21339066497,0.006175172684863378,0.0783855651343987,Null
-0.88011474608995,-0.90197753906,-0.85546875,8.289942788628384e-05,0.00908212148932464,0.2595367431607,0.20288085937,0.32373046875,0.0006104881346385579,0.02464621053966238,-0.44384582519195,-0.49645996093,-0.41027832031,0.00034300218834871886,0.01847395944043873,1.0197074698556499,0.99053737511,1.04678364967,0.00018923376706074413,0.01372179282110907,Null
-0.8814044189419499,-1.0673828125,-0.68347167968,0.006188870955440295,0.07847245759285926,0.27692932128534997,0.14880371093,0.5283203125,0.005525862735987506,0.07415007365004816,-0.43051574706705,-0.56848144531,-0.21252441406,0.005754552126827754,0.07566887977361376,1.02456519697075,0.83416675476,1.18791387272,0.006588445965710788,0.08096606533531338,Null
-0.91981018066065,-1.21081542968,-0.6787109375,0.02344206990570919,0.15272478369989803,0.28799072265225,0.19934082031,0.37646484375,0.0026139043623335965,0.05099838076372551,-0.40018920898079996,-0.63708496093,-0.15881347656,0.01694334058737183,0.12984076356997817,1.0496903309638501,0.76157872795,1.40389704948,0.030226487566979664,0.17342247584769618,Null
-0.8458197021443999,-1.42846679687,-0.38488769531,0.07279747534289986,0.2691347022704158,0.32164428710574994,0.07275390625,0.58874511718,0.01175770196321582,0.10816151558386995,-0.45121093749639996,-0.84521484375,-0.1171875,0.02896215774325479,0.1697567287459867,1.03143097573135,0.48626252003,1.57469315397,0.07191680076186205,0.26750180701829424,stairs down
-0.21343505859295003,-1.66442871093,0.99108886718,0.6613525345091592,0.8112002045343759,0.45028076171509995,0.18359375,0.89184570312,0.0353666497535003,0.18758948932371663,-0.16339660644494994,-0.76843261718,0.3583984375,0.12146551746557609,0.3476466451416556,1.0051126477601002,0.45931704213,1.96018707308,0.07924430466353079,0.28079900843879974,stairs down
-0.38316467285024997,-1.31872558593,1.08508300781,0.6960064980160743,0.832181750296168,0.48422912597275003,0.15380859375,1.11315917968,0.05624638470786079,0.23656955168474553,-0.23375732421769996,-0.72314453125,0.33666992187,0.07753707919739843,0.2777577970128137,1.0963748253402,0.62413614893,1.5750418752,0.05983794377645966,0.24400564349534493,stairs down
-0.9398065185508,-1.44482421875,-0.63806152343,0.030871862202747243,0.17526409470206242,0.3350238037075,0.03100585937,0.74926757812,0.02683648541607235,0.16340839326360196,-0.42898437499619996,-0.65649414062,-0.17846679687,0.017507104753797128,0.13198321571331767,1.09943419560805,0.68987637245,1.58793586582,0.04581774873701502,0.21351501116626423,stairs down
-0.9580102539031,-1.6884765625,-0.22241210937,0.09415336738877202,0.306076135221007,0.3109143066371,-0.0166015625,0.81176757812,0.032501564850858713,0.17983063428293972,-0.401067504879,-0.73608398437,-0.05041503906,0.034431081740099644,0.18509167007566588,1.1204802690600502,0.46491059856,1.80281783351,0.0805136147563673,0.28303894905575355,stairs down
-0.9166271972622,-1.54162597656,-0.53308105468,0.06115368922011676,0.24667371318001474,0.28934265136345,0.16284179687,0.43054199218,0.0038322241458464226,0.06175000425196091,-0.41882324218370004,-0.67004394531,-0.16284179687,0.02279751264865254,0.150610507885105,1.06344761521935,0.61765684317,1.61540542766,0.05604138233395183,0.23613804314909123,stairs down
-0.9049389648403999,-1.50122070312,-0.43786621093,0.07535724472756912,0.2738255987009455,0.31164978027029994,0.154296875,0.58410644531,0.007408287863280346,0.0858559632405574,-0.45003662109000003,-0.67041015625,-0.18347167968,0.014759061474473503,0.1211827799941111,1.0691339699987,0.56752194981,1.61783159946,0.07292723742829957,0.2693744628600827,stairs down
-0.9375512695277501,-1.27258300781,-0.68078613281,0.02634988872861351,0.16192016330577993,0.26491516112919994,0.12451171875,0.41455078125,0.004784884176880987,0.06899970837617056,-0.39911376952745004,-0.6259765625,-0.20593261718,0.014766201727569756,0.12121208982165066,1.058310221484,0.7350070952,1.45961894236,0.034296654751621705,0.18472999615077026,stairs down
-0.9228411865204501,-1.21166992187,-0.53820800781,0.03168089886679959,0.17754575289897978,0.26725646972255,0.17590332031,0.37817382812,0.003106868473298356,0.0555997673640085,-0.38790283202755005,-0.59252929687,-0.07751464843,0.02022646944139048,0.14186379768701926,1.04448456043765,0.58602149361,1.36729062917,0.037509197837595376,0.1931881255367612,stairs down
-0.9443371581995001,-1.70788574218,-0.42687988281,0.09665085712120022,0.3101090176624895,0.28055725097305,0.12756347656,0.53588867187,0.009036936492857786,0.09482484806417302,-0.40039672851155006,-0.67590332031,-0.06469726562,0.02900902616186912,0.16989402882697135,1.08187506737085,0.55626673941,1.78086679502,0.09484648634263977,0.30720067368241005,stairs down
-0.9252276611286502,-1.56860351562,-0.51354980468,0.06972397450210638,0.263392017019491,0.29707214355055,0.15893554687,0.45239257812,0.004462002461498984,0.06663101717062024,-0.4368334960902,-0.67199707031,-0.13745117187,0.02259874596073252,0.14995249991556944,1.0811880855665,0.63883636409,1.65893644511,0.06276855239924793,0.2499094028588194,stairs down
-0.8644470214806,-1.1728515625,-0.69274902343,0.007932923659350671,0.0888440152236149,0.33631591796559995,0.15148925781,0.66101074218,0.014168569640223762,0.11873384855222474,-0.45297363280924996,-0.58679199218,-0.2890625,0.0056408585674455,0.07491764995385448,1.0435742453902501,0.95629716083,1.33765395918,0.0041392925742801,0.06417628932408527,Null
-0.7521881103486501,-0.91430664062,-0.08850097656,0.05342332306494663,0.23055629778781125,0.38252868651954997,0.23254394531,0.81176757812,0.03118567519707713,0.1761526236565659,-0.47438354491854995,-0.66809082031,0.05773925781,0.011442252401953734,0.10670070824480953,1.0131947527975,0.67609543745,1.17873008984,0.006193250617168251,0.07850021887920065,Null
-0.72929016113,-1.13818359375,0.09411621093,0.1672002677024303,0.4078777590944597,0.4617639160123,0.07482910156,1.03112792968,0.0871067584325539,0.2943997701092702,-0.032795410154999996,-0.37426757812,0.45458984375,0.0707645980002245,0.26535028737543015,1.02775095492905,0.81325129473,1.26052176678,0.01340686717240897,0.11549819408348741,Null
-0.9350476074183,-1.06823730468,-0.85717773437,0.002370756952882666,0.048568540930506165,0.25629455566045,0.14489746093,0.36669921875,0.0027751441243242195,0.05254777258554923,-0.3382440185513,-0.5400390625,-0.16638183593,0.007660128422870123,0.08730308001872426,1.03177410861325,0.95343219778,1.15361647069,0.0026071674704827223,0.050932618557563966,Null
-0.8709234619095001,-0.91455078125,-0.84729003906,0.00022311619440376325,0.014899685011158606,0.16792724609030002,0.09802246093,0.20153808593,0.0006383433473955321,0.025202214796691075,-0.48746826171484997,-0.58117675781,-0.35791015625,0.0017045383537408513,0.04118271071666054,1.0132721679230499,0.98541763129,1.05485229617,0.00016605455617668859,0.012853959833288929,Null
-0.8732580566369499,-0.88818359375,-0.83898925781,8.992794021269486e-05,0.009459297041093032,0.16549499511405,0.12915039062,0.1748046875,5.9264011343507006e-05,0.007679042341776055,-0.4943524169888,-0.55676269531,-0.46496582031,0.0002167893530603177,0.014686912755750138,1.0171700646892001,0.98473825261,1.05043884285,8.216077445267477e-05,0.009041569033105448,Null
-0.9260784912069501,-1.22644042968,-0.7177734375,0.012835390839873916,0.113009795529744,0.24449951171469997,0.140625,0.37023925781,0.003231918638086899,0.05670766301741295,-0.32424499511305,-0.55676269531,-0.13427734375,0.007875169323587299,0.0885200173800783,1.0169678901013,0.80904339069,1.33195154169,0.012196258165762999,0.11016023272912137,Null
-0.9423052978484499,-1.19970703125,-0.77416992187,0.007742425481622762,0.08777080012290334,0.20517211913725,0.10876464843,0.34436035156,0.00318266709102841,0.05627391718703496,-0.3246191406218,-0.46667480468,-0.16821289062,0.006573163708260908,0.08087210823095688,1.02166522995995,0.87469903844,1.26249690905,0.00906872580121628,0.09499148473526561,Null
-0.97645202636365,-1.13916015625,-0.82116699218,0.004644579413762309,0.06798055984392522,0.2364459228469,0.10485839843,0.43872070312,0.009028598198482228,0.0947810909806899,-0.16220214843394998,-0.29809570312,-0.03674316406,0.005257786853874371,0.07232909455817209,1.0254893133893501,0.90137434571,1.20530375218,0.0030208589734522294,0.05482476337007729,Null
-0.9643627929652001,-1.04846191406,-0.8837890625,0.0017536743262113364,0.041772071466235426,0.1727832031208,0.08581542968,0.3662109375,0.0047202165162490185,0.06853185707149466,-0.2338452148396,-0.3828125,-0.14135742187,0.005520770663644652,0.07411590119755967,1.012474369725,0.9368618144,1.09628863678,0.0013704071229496365,0.03692634679107708,Null
-0.9453747558551001,-1.01525878906,-0.90393066406,0.00043193419224867366,0.020731003865887207,0.19476989745730003,0.10827636718,0.29541015625,0.001973759094347724,0.04431580190943164,-0.32994262694959997,-0.37475585937,-0.2138671875,0.0012869863039692596,0.03578479247458916,1.0216639440146,0.98531909356,1.08162413006,0.00040993038928410124,0.02019605747015196,Null
-0.9694293212848502,-1.03967285156,-0.92224121093,0.0010841199167880252,0.03284355822994953,0.16817565917590002,0.13256835937,0.20751953125,0.0003848332252763521,0.019568062222661966,-0.33818115233984997,-0.37536621093,-0.28942871093,0.0005125372793384819,0.02258261705254264,1.04102572548105,1.00278946621,1.09718753948,0.0006038350439246509,0.024511545620483167,lift up
-0.9185229492152,-0.95361328125,-0.884765625,0.0006122374714323766,0.024681496795681063,0.1458569335902,0.13134765625,0.15881347656,4.25942638968685e-05,0.006510091595160867,-0.34135498046479995,-0.37353515625,-0.31799316406,0.00018622640988604237,0.013612320810082758,0.990880127333,0.95800396279,1.01983808964,0.00047769056260411766,0.02180142448995242,lift up
-0.9295263671836002,-0.94494628906,-0.90795898437,9.869177738147574e-05,0.009909506470786946,0.1322607421838,0.10168457031,0.15551757812,0.00016368707820275108,0.012761999953445279,-0.38225830077719997,-0.40991210937,-0.33996582031,0.0003115610920759131,0.017606910195020975,1.0139748736074,0.99518066143,1.02646696003,5.990519455275079e-05,0.007720470748599922,lift up
-0.9303204345659001,-1.10852050781,-0.71984863281,0.004439698553152027,0.06646427657310555,0.187911376949,0.09545898437,0.33813476562,0.004030550890567022,0.06332770433320781,-0.3423077392538,-0.42163085937,-0.14392089843,0.004548294771571511,0.06727223273917445,1.0134100018486,0.81509245334,1.20046428525,0.0037181862771815542,0.060824298974962686,Null
-0.9193530273388,-1.15161132812,-0.73657226562,0.0071801304277891885,0.08452354568787471,0.17719970702700003,0.06079101562,0.31481933593,0.0042599840319369675,0.0651051773039386,-0.40961669921559996,-0.59045410156,-0.11120605468,0.009556639188482043,0.09751336314854304,1.0295717106612,0.88402227201,1.27933373434,0.005295907349658057,0.07259082457797104,Null
-0.9351562499962001,-1.11181640625,-0.73999023437,0.007095759238503109,0.08402547496033923,0.18408691405879998,0.01782226562,0.46337890625,0.011949588282122966,0.10904054448099731,-0.37330322265259996,-0.61926269531,-0.0478515625,0.01725870715312689,0.13104355618404614,1.0383232804159999,0.83018862718,1.2521848003,0.0057967835416733535,0.07594603099547063,Null
-1.0055322265584001,-1.31921386718,-0.67504882812,0.03469631806102931,0.18580321975338362,0.2660571289026,0.14025878906,0.46008300781,0.00869035553679973,0.09298872920475756,-0.043024902343600006,-0.20239257812,0.09533691406,0.006898255329757769,0.0828478367436892,1.0487104614724,0.70750815814,1.32908753689,0.034143184914813954,0.18431622009535648,stairs up
-0.9897778320271999,-1.27722167968,-0.68762207031,0.029742145544457164,0.17202742460647047,0.3393749999966,0.21179199218,0.47119140625,0.005578944647124317,0.07450536842328005,-0.0615673828104,-0.17834472656,0.06958007812,0.004299780088130179,0.06540857120966279,1.0538317807294,0.78338782589,1.3632123323,0.027625561683045936,0.16579334689495445,stairs up
-0.9865332031216001,-1.35607910156,-0.67907714843,0.03300425122100996,0.18121597602006537,0.285541992184,0.09228515625,0.46838378906,0.007853007412250932,0.0883953753043092,-0.0576196289052,-0.21838378906,0.09252929687,0.007022396696985743,0.08358997974339277,1.034687015328,0.73309227334,1.41237652627,0.03534175795048696,0.18752346296059735,stairs up
-0.9501269531212,-1.25561523437,-0.71398925781,0.0203029619149797,0.14213179484339458,0.2357739257774,0.0380859375,0.4912109375,0.011732725767609725,0.10804657393352034,-0.2575610351528,-0.4404296875,-0.01025390625,0.01440579652189896,0.11972371335407814,1.0250685173074,0.79878045385,1.35363133253,0.020213135238141174,0.1418170284625597,stairs up
-0.9648974609341999,-1.26867675781,-0.72216796875,0.022281749260260827,0.1488970802734544,0.17883789062080002,0.05529785156,0.32373046875,0.0036537581113152352,0.06029501903771703,-0.285620117183,-0.43566894531,-0.06494140625,0.007787815889437937,0.08802770478656562,1.0276983192944,0.78069777999,1.34740547943,0.022090275119763206,0.1482559399962254,stairs up
-0.9734863281207999,-1.33227539062,-0.65808105468,0.03384720081033525,0.18351557101860208,0.1901586914024,0.03833007812,0.40637207031,0.009961752010906502,0.09955874271429893,-0.2256982421848,-0.35363769531,-0.09826660156,0.004682373066015032,0.06825658357026783,1.0236706072958,0.73197890046,1.37921211589,0.03529951004618752,0.1874113456969897,stairs up
-0.96456481933155,-1.33520507812,-0.66943359375,0.03341185513116187,0.18233155474438884,0.16856750487970001,-0.02575683593,0.35876464843,0.008340435950065814,0.09109738618816396,-0.24801940917555002,-0.42053222656,-0.07592773437,0.006847557476115493,0.08254283547791967,1.0168574558493,0.73844110685,1.38951112306,0.03484591509712835,0.18620334455009854,stairs up
-0.9622875976522,-1.45568847656,-0.6611328125,0.041549622359465285,0.20332701307909865,0.1229321289026,-0.16418457031,0.30798339843,0.011137736747916275,0.105271306936775,-0.23431396483999997,-0.48303222656,-0.03686523437,0.009720251937562565,0.09834455082959478,1.0062408749456,0.71163178173,1.55578370481,0.04581672121588205,0.21351261698036172,stairs up
-0.9525781249964002,-1.06713867187,-0.8486328125,0.0034409774847691393,0.05851301220536586,0.15487060546519998,0.06896972656,0.22778320312,0.0017215655976303137,0.041387893998633976,-0.2874999999968,-0.4423828125,-0.11010742187,0.011883669762163488,0.10873937379511008,1.014646368071,0.91462496218,1.14602406243,0.001507505725923028,0.038729422888721346,Null
-0.9252270507774,-1.06701660156,-0.74597167968,0.0033108374640917434,0.05739584720841121,0.15898437499620002,0.04248046875,0.36267089843,0.005417306818506761,0.07341811959192517,-0.38908447265199997,-0.5634765625,-0.17565917968,0.007722537056295007,0.08765799661761345,1.022702317533,0.82042190185,1.21010562872,0.0031721120494871188,0.05618052588966824,Null
-0.9508715820274,-1.21203613281,-0.71374511718,0.010822516715738285,0.10377092141905456,0.20288574218379998,0.04504394531,0.35925292968,0.005681923262444154,0.07518985068566059,-0.2917211914026,-0.47387695312,-0.14135742187,0.00708702718189403,0.08397375807944146,1.0206107364032,0.80173593693,1.3396007551,0.012309425091227063,0.11067013131722095,Null
-0.9434277343718,-1.0390625,-0.84533691406,0.0029803521429442115,0.054455949006784285,0.1583081054646,0.05676269531,0.283203125,0.0033736522533353124,0.05793775963970851,-0.34283935546500005,-0.49560546875,-0.15563964843,0.007608099924372738,0.08700608843495307,1.0213092095316,0.93261382416,1.17680074526,0.0034934293651367036,0.05895729147706007,Null
-0.9455883789024,-0.98681640625,-0.90405273437,0.00017466965034333373,0.013183182547913726,0.1625634765586,0.11303710937,0.28637695312,0.001669039103221444,0.04075161233258553,-0.3359497070278,-0.38220214843,-0.2646484375,0.0007006434639323343,0.026403413540916874,1.017712884614,0.98284855823,1.07151098743,0.0002196852525576867,0.014784682150621238,Null
-0.9308837890584001,-1.14428710937,-0.70678710937,0.008344360332441082,0.09111881545970008,0.1718774414026,0.03369140625,0.37890625,0.005294005169941121,0.07257778685032643,-0.37818115233979993,-0.5546875,-0.234375,0.003216214761026273,0.05656972412184049,1.023575969465,0.84036481794,1.2694270634,0.008211065001598754,0.0903881058358386,Null
-0.9575579833953001,-1.13049316406,-0.79284667968,0.008095130186183486,0.08974772718711359,0.33233215331620003,0.03625488281,0.60217285156,0.026047367827457875,0.16098798398737896,-0.13534667968585,-0.39440917968,0.21911621093,0.028053055192097134,0.16707121211069442,1.0497753678022,0.90294763248,1.20939756121,0.005564751747708925,0.07441053681415274,Null
-0.6558544921835999,-0.99035644531,-0.3828125,0.033818492074465925,0.18343772680147777,0.5624291992157999,0.16809082031,0.86975097656,0.027390099704059888,0.1650852785851591,0.4218701171846,-0.17468261718,0.72937011718,0.06316038709086795,0.250688223009007,1.0211077761487999,0.88642406188,1.21377213244,0.00555995807617142,0.07437847999112757,Null
-0.9879394531216,-1.01928710937,-0.92224121093,0.0002510248117299093,0.015804103507357187,0.1574658203086,0.09411621093,0.21569824218,0.0007061185309620966,0.02650637542756999,-0.1715258789032,-0.28515625,-0.12670898437,0.0011913429013133757,0.03442943779394036,1.0159665768924,0.96989731375,1.05066670357,0.00019159113825220793,0.013806997594008151,Null
-0.7011474609338001,-1.01416015625,-0.43212890625,0.044636909686182,0.21074564085112435,0.5394311523398,0.06982421875,0.86743164062,0.08294018338629155,0.2872724881873656,0.1757543945302,-0.36401367187,0.58557128906,0.10182638341247663,0.31830370952191905,1.0199340516548,0.92633892919,1.12175134652,0.0014817353426215272,0.03839696167548182,Null
-0.6095776367151999,-0.62133789062,-0.58801269531,0.00010066392433684671,0.010008027014110348,0.8231054687464001,0.79907226562,0.84094238281,0.00013054953149396102,0.011397227023995407,0.2104809570274,0.18762207031,0.22546386718,7.753324867128942e-05,0.008783255798844354,1.0457081639104002,1.01533343458,1.06309242421,0.00019234174818293808,0.013834017472954969,lift up
-0.5850439453088,-0.61730957031,-0.56018066406,0.000235826789429819,0.015318213194843252,0.7791455078092,0.73828125,0.8330078125,0.000621271229270549,0.024862921653019707,0.1941601562462,0.17419433593,0.21984863281,0.00018055544428622063,0.0134034572802986,0.9935637308169999,0.94794247228,1.05580764203,0.0009104367400274324,0.0300979161459277,lift up
-0.8844531249956,-1.21520996093,-0.55139160156,0.029985087696899372,0.17272857973831335,0.37546630858979996,0.13037109375,0.72888183593,0.03334087204672125,0.1821377711692104,0.06898681640620002,-0.34033203125,0.46118164062,0.06607048236368886,0.2563983813362916,1.0249618646326,0.86948691338,1.27287323274,0.00622522209681332,0.07870257928638205,Null
-0.9533233642535001,-1.10864257812,-0.84875488281,0.0027133701790446963,0.05195963171683834,0.16366333007474998,0.07263183593,0.33972167968,0.004024572814234275,0.06328072336946776,-0.3236968994105,-0.4755859375,-0.18225097656,0.004486753104519156,0.06681556210192773,1.0247064528107002,0.94146321547,1.19936212185,0.002606394440356253,0.0509250671885121,Null
-0.9738769531208001,-1.26440429687,-0.65588378906,0.013524149530406072,0.11600227921361736,0.18802612304445,-0.00952148437,0.56237792968,0.022748342768907064,0.1504480011667238,-0.22060729980085,-0.37939453125,-0.03503417968,0.008917546583567618,0.09419638448820518,1.03218652963365,0.73421584088,1.2967384795,0.012073145952981576,0.10960282944895477,Null
-0.9627197265587999,-1.18725585937,-0.67114257812,0.0175533923672254,0.1321575779340302,0.2872949218712,0.0712890625,0.47631835937,0.010063801722334051,0.1000673908609712,-0.13821289062340003,-0.45178222656,0.07141113281,0.02271206448368036,0.1503279886157663,1.0284275499939999,0.76988161892,1.27956116836,0.02098978278029127,0.14451586025896884,Null
-0.95875549315945,-1.36059570312,-0.64086914062,0.04726511089326956,0.21686121215838303,0.20210510253575,0.03430175781,0.3408203125,0.005498274770988046,0.07396474428491662,-0.196761474606,-0.45947265625,0.02075195312,0.012394808091889918,0.11105329374417702,1.0088679002409,0.68867182566,1.37854850818,0.04425103436681195,0.20983274099858173,stairs down
-0.8357415771450999,-1.43994140625,-0.18688964843,0.09307700483883027,0.30432157303522883,0.45358764648015,0.11071777343,1.02331542968,0.05664319153262737,0.23740256016935501,-0.2276129150365,-0.68627929687,0.17858886718,0.052265089194943534,0.22804333743604266,1.05638845072155,0.56866648658,1.59975488115,0.041238368061896874,0.20256400524670562,stairs down
-0.8195898437464498,-1.4150390625,0.82421875,0.20861442864080973,0.45559999615628366,0.28973754882475,0.04663085937,0.58312988281,0.02118340357897656,0.14518087532826657,-0.4440148925747999,-0.95104980468,-0.13220214843,0.024126411728774652,0.15493798653051735,1.0784567251592,0.50570897403,1.73258058838,0.041704142766684986,0.20370474234256689,Null
0.11003784179669993,-1.06909179687,0.97900390625,0.6895258581624639,0.8282983936189009,-0.019265136717950035,-0.541015625,1.39892578125,0.23702552281718378,0.4856340136389727,-0.38780456542655,-0.80432128906,-0.0517578125,0.02035643937558152,0.14231885742481076,1.01787106582545,0.1437281903,1.87431426224,0.06933027909228907,0.262647344735917,Null
-0.6577655029256999,-1.35681152343,0.97900390625,0.376557778661976,0.6121070084296258,0.39093139648119996,-0.18798828125,1.5771484375,0.125086966170186,0.35279105904109176,-0.4215069580049,-0.73266601562,-0.01843261718,0.02534067233601384,0.15878907070177647,1.0983834107631,0.52703317044,1.6007627258,0.081462615360999,0.2847021290475258,Null
-0.96608886718365,-1.37622070312,-0.60339355468,0.03442405486237373,0.18507278186719373,0.2602136230432,0.0849609375,0.42687988281,0.004732464592362268,0.06862071312220863,-0.38886596679335,-0.67761230468,-0.1083984375,0.02408766195240148,0.15481351246787045,1.08499262112775,0.64271328324,1.5056296939,0.038165368486076046,0.19487057664933838,stairs down
-0.9611346435507001,-1.49731445312,-0.58117675781,0.06492713927639036,0.2541702255969578,0.27831909179255,0.04846191406,0.46032714843,0.0073584791388727555,0.08556685540078232,-0.40371154784734997,-0.68566894531,-0.17687988281,0.019460782527942425,0.1391527168807807,1.0911308629346,0.63080752605,1.64248389337,0.06527180165484107,0.25484395744566296,stairs down
-1.0165728759730002,-1.58605957031,-0.52551269531,0.06608090642972553,0.2564186067694326,0.2953192138636,0.09216308593,0.55065917968,0.014541628072708644,0.12028682360235929,-0.39229309081624997,-0.6728515625,-0.13903808593,0.020451292661943368,0.1426500480148312,1.1396842416275998,0.61030446595,1.76937452047,0.07659900176899294,0.27607246650136624,stairs down
-0.9449981689418001,-1.21008300781,-0.7333984375,0.01905521951691945,0.1376951103682874,0.2873266601522,0.19616699218,0.41345214843,0.00438510610229943,0.06605437587160999,-0.3765838623006499,-0.59020996093,-0.13745117187,0.013223070211349532,0.11470377003522066,1.06215763160315,0.78663356778,1.37993820414,0.025823918354019624,0.1602959723831186,stairs down
-0.9568737792933001,-1.69592285156,-0.5244140625,0.06702806176668764,0.2582497269269693,0.28399780273085,0.07751464843,0.51257324218,0.00908057563725499,0.09505352575822064,-0.39861267089544994,-0.7509765625,-0.09729003906,0.031820661695032344,0.1779369505936223,1.0893176934209001,0.5559157755,1.81807080774,0.07631242035957268,0.2755555447777722,stairs down
-0.9356872558562,-1.50793457031,-0.56750488281,0.06304400826057052,0.250457158450837,0.2764959716768,0.12817382812,0.46484375,0.004584348860310477,0.06753833811998133,-0.41271606444949993,-0.66955566406,-0.07250976562,0.03692277530776381,0.19167201525320537,1.0762303412867,0.62366690322,1.63563285803,0.06839381129694923,0.2608674802279205,stairs down
-0.8364965820267001,-1.5009765625,-0.29235839843,0.08710812329679496,0.29440207655570466,0.3029998779264,-0.15161132812,0.73559570312,0.03429290643800044,0.18471990121752024,-0.49178833007504996,-0.82080078125,-0.18920898437,0.022786052489320245,0.1505726476717257,1.05262797355245,0.55427042633,1.68023187554,0.06917760349221007,0.26235799106325886,stairs down
-0.9586053466750499,-1.36596679687,-0.55871582031,0.02790561339327856,0.16663158562023037,0.28785705566115,-0.14733886718,0.48657226562,0.015216690651768595,0.12304717468723023,-0.3952990722619,-0.94555664062,-0.07800292968,0.029591718149866206,0.17159184001320363,1.09490044155165,0.71178629792,1.45881819895,0.0317494742488157,0.1777378037378982,Null
-0.89651733398,-0.97204589843,-0.75830078125,0.001934090258116772,0.043868209523824746,0.30460205077795,0.236328125,0.39233398437,0.0009705120295021929,0.031075061856007332,-0.3993585205043,-0.58996582031,-0.24084472656,0.005700907185573453,0.07531535467383517,1.0309437006777,0.9478287822,1.15187088914,0.0017392314836123899,0.0415997034387786,Null
-0.9647900390583,-1.47058105468,-0.57556152343,0.04678356716981587,0.21575367745178015,0.28379028319934996,0.12780761718,0.49450683593,0.005317708713685258,0.07274008640438112,-0.41118286132345,-0.60046386718,-0.11889648437,0.015219129987442681,0.12305703692802565,1.0953392825014499,0.6101223935,1.56118173301,0.04788316563187651,0.21827448271320476,Null
-0.9931866455041499,-1.47058105468,-0.59155273437,0.03184635436687838,0.17800877111829067,0.27104675292535,0.14099121093,0.44360351562,0.004520032914755091,0.06706290144469829,-0.3702667236296,-0.64453125,-0.03784179687,0.026134404021528987,0.16125672699587246,1.1081399540500498,0.78292987461,1.55246112746,0.031354403308434926,0.1766285121148133,stairs up
-0.99037597655865,-1.32531738281,-0.68615722656,0.03711185015606186,0.1921621474309692,0.2845709228482,0.19775390625,0.40698242187,0.0036795162222868468,0.06050717842682315,-0.38337890624619997,-0.61181640625,-0.12512207031,0.022680295028991656,0.1502228130273385,1.11010559090835,0.72691170698,1.47425640504,0.039823568809253494,0.19905891330258796,stairs up
-0.9434167480429,-1.24731445312,-0.58386230468,0.0315910568654488,0.17729382837854665,0.34343322753624994,0.15930175781,0.96301269531,0.03763692464307462,0.19351676935051196,-0.35019287109055,-0.60180664062,0.0185546875,0.02739510511610791,0.16510036217563961,1.0916921436743001,0.69864793206,1.4967069639,0.035140526492537474,0.1869888335170707,stairs up
-0.3556170654276001,-0.90063476562,0.12390136718,0.07267653326150367,0.2689110458779932,0.80220886230085,0.51647949218,1.35302734375,0.04894959195748433,0.22069173975864367,0.25313293456904995,-0.20788574218,0.9091796875,0.09172880339109163,0.30210951553060383,1.010290743758,0.73971845619,1.36759145491,0.025808648829513503,0.16024857436297502,stairs up
-0.9921813964812,-1.23266601562,-0.77612304687,0.015000072218965795,0.12216821132304004,0.33705993651965005,0.17663574218,0.55310058593,0.008065818646639486,0.08958509671483471,-0.02192077636715,-0.17993164062,0.09948730468,0.005185277533010682,0.07182862344041982,1.05476287175425,0.85972250068,1.31330856326,0.014169891148298834,0.1187393855995446,stairs up
-0.973588256832,-1.22302246093,-0.71435546875,0.018122361709338224,0.1342823514122073,0.36069641112905004,0.22839355468,0.50134277343,0.0039936554847648,0.06303718908185053,-0.0502050781238,-0.22961425781,0.1328125,0.008381733666254113,0.0913226423069484,1.04567042600025,0.77975295638,1.28253942828,0.017502680409644103,0.13196653745399203,stairs up
-0.97787170409835,-1.29626464843,-0.67517089843,0.03546591004800605,0.18785254988358827,0.38360046386359997,0.23181152343,0.55895996093,0.007392392056241892,0.08576380411316117,-0.05386291503684999,-0.23779296875,0.12768554687,0.008928853886529807,0.09425608530539106,1.06001293624255,0.74017246158,1.39106219095,0.03435617525368444,0.18489022250356024,stairs up
-0.99316040038615,-1.27209472656,-0.67956542968,0.028381095745950345,0.1680452030473366,0.37887939452720004,0.22790527343,0.53393554687,0.006373906429132521,0.07963690662617966,-0.04707763671795,-0.16516113281,0.17590332031,0.0070333137040027634,0.08365492893716872,1.0704943970868,0.79273756067,1.33501680336,0.027894070833307815,0.16659712026064938,stairs up
-0.9542718505822998,-1.09143066406,-0.76953125,0.006065631915737158,0.0776872174566606,0.22898315429285,0.04602050781,0.61730957031,0.020962552375813074,0.14442208838655538,-0.22782897948850003,-0.40734863281,0.19250488281,0.019696862769001712,0.13999420864863196,1.0284733418032,0.91090534146,1.21736421416,0.0037267343544297015,0.06089417609802725,Null
-0.9332110595664002,-1.10412597656,-0.81713867187,0.003521887902232956,0.05919694639693665,0.21494567870689998,0.11157226562,0.45141601562,0.006616972465886816,0.08114115850514696,-0.3374847412071999,-0.42785644531,0.00061035156,0.012521663942638367,0.11162013986250499,1.0249436816799002,0.92840026247,1.19544152579,0.0030333146881097272,0.05493767482037421,Null
-0.93806518554365,-1.11572265625,-0.76391601562,0.006912839219581451,0.0829353665421667,0.1873962402314,-0.09057617187,0.33752441406,0.007387058481642356,0.08573285944860433,-0.32176818847245003,-0.46398925781,-0.15100097656,0.005836728969734645,0.07620725244283494,1.0159434459027,0.87578336526,1.20295333256,0.00654599855246029,0.08070482364578953,Null
-0.9443518066369001,-1.06994628906,-0.828125,0.004448157205882597,0.06652756135507436,0.24220886230129998,0.00671386718,0.45007324218,0.012252666608446294,0.11041468777026027,-0.2806512451129,-0.41577148437,-0.10021972656,0.008203909115165785,0.09034871094592306,1.0251527107351501,0.93627825442,1.15678224685,0.0030881587908260523,0.05543210258389918,Null
-0.9386614990200001,-1.01721191406,-0.84167480468,0.0019887974779821834,0.04448430611566592,0.21290466308249997,0.09375,0.37524414062,0.005982387481838188,0.07715228800514601,-0.32455627441000007,-0.49499511718,-0.19812011718,0.006495995284597977,0.0803959906225117,1.0223575742353501,0.94757593322,1.10213602976,0.0009350907660744007,0.030502709916399702,Null
-0.94254089355145,-1.056640625,-0.87463378906,0.0015366679157157218,0.039102232367694084,0.204793701168,0.05212402343,0.37829589843,0.006173723623129035,0.07837636764365512,-0.29926513671439997,-0.44702148437,-0.1259765625,0.005284617947546703,0.07251341157199107,1.0149836030394999,0.95695186207,1.14870608685,0.0017286633575284266,0.04147312431853651,Null
-0.9196777343707001,-1.02917480468,-0.76879882812,0.0019063564700646696,0.043552550874941254,0.1690728759729,0.06115722656,0.31311035156,0.0030355200841565098,0.0549576426326287,-0.37775451659824993,-0.47314453125,-0.21875,0.004817056382876324,0.06923128700928463,1.0128739579174,0.90093003208,1.16794793483,0.0008921919035235447,0.029794814045500048,Null
-0.96476074218435,-1.13037109375,-0.8095703125,0.005377860488576423,0.07315033278211071,0.30516418456600003,0.14147949218,0.52954101562,0.010662756912313033,0.10300215108312771,-0.1474987792932,-0.48950195312,0.05102539062,0.015138843908597191,0.1227320238937426,1.03479727015935,0.88950824993,1.25044542959,0.005891992731326174,0.07656717813573609,Null
-0.9709167480428499,-0.98767089843,-0.9443359375,9.431937081138804e-05,0.009687506075215183,0.2618670654258,0.23767089843,0.29077148437,0.00016908338285682428,0.01297065788395254,-0.1573132324173,-0.19348144531,-0.10192871093,0.0006800950756796544,0.02601335426855322,1.0182306786984,1.00019526065,1.0351162021,6.723442219699433e-05,0.008179135045101612,Null
-0.9464001464806,-1.03161621093,-0.88232421875,0.0013988307357916275,0.03730732611850746,0.28016052245725004,0.17065429687,0.38427734375,0.003999841563387016,0.06308599175387576,-0.22353515624639997,-0.43237304687,-0.01708984375,0.012232630995571583,0.1103243755504364,1.0203793069293001,0.97339078445,1.05960479539,0.00044198087041588967,0.02097071687052711,Null
-0.9274133300741001,-0.95043945312,-0.88256835937,0.00024628449174846675,0.01565417098698377,0.1547473144495,0.08776855468,0.25158691406,0.0016289469270398989,0.04025918767691047,-0.3770202636677,-0.41735839843,-0.34191894531,0.000432778056249207,0.020751244925737853,1.0140154227245,0.97860112835,1.05573755903,0.00025697211211969537,0.0159902236244243,Null
-0.8947528076135001,-0.9189453125,-0.87963867187,0.00015111830329414747,0.01226224741952619,0.09320312499625,0.06225585937,0.10864257812,6.595388130903848e-05,0.008100871058256222,-0.41817138671475,-0.4365234375,-0.39294433593,0.0001105717738000985,0.01048899017689968,0.9920997211163001,0.96852686065,1.02021071202,0.00020187639140848391,0.014172755887668477,lift down
-0.9409387206987501,-1.01452636718,-0.84582519531,0.0018602970721481745,0.04302319823987326,0.17108032226204997,0.04541015625,0.24255371093,0.002421060996722433,0.04908111339139344,-0.39151794433245,-0.45202636718,-0.32409667968,0.0007294182168713596,0.026940139676456816,1.035150244916,0.9554272815,1.11368487219,0.0014671833979231618,0.0382079504937591,lift down
-0.9234497070271,-0.94543457031,-0.91259765625,6.190990682902979e-05,0.007848589509898236,0.1665161132779,0.14416503906,0.18371582031,7.403870323897257e-05,0.008583036159936512,-0.39716430663659996,-0.42126464843,-0.37219238281,7.484583847521694e-05,0.008629693464013705,1.0189947020115,0.99889921905,1.04165448737,8.643377344399607e-05,0.009273705008073962,lift down
-0.9287365722616001,-1.10900878906,-0.76452636718,0.0023598126715563637,0.04845630617575572,0.17639404296470002,0.10546875,0.65795898437,0.007585573430025731,0.08687718666528976,-0.3555285644496,-0.41491699218,-0.10192871093,0.006134183710946334,0.07812498187130415,1.0173719283246998,0.92218314694,1.16853192635,0.0010256991068362438,0.031946370862776616,Null
-0.896470947262,-1.1474609375,-0.6259765625,0.01622920865841298,0.12707502750391564,0.4736755371055,0.20593261718,0.77880859375,0.02475534562954353,0.15694447712932053,0.004549560547599993,-0.47180175781,0.42565917968,0.03882838968403149,0.1965559659120306,1.0479848362967,0.85568587278,1.25822956563,0.009237220484434192,0.09586988255970703,Null
-0.9663854980431,-1.03771972656,-0.87902832031,0.0010690445441976116,0.032614403589160165,0.23237792968359997,0.02380371093,0.48291015625,0.01079116590066083,0.10362050989624365,-0.2433471679651,-0.4296875,-0.05395507812,0.010419288023036311,0.10181940671071076,1.0335306641651,0.94927100834,1.12362238194,0.0011062757746480674,0.03317746819416495,Null
-0.9543066406212,-1.14916992187,-0.66577148437,0.010963137089830386,0.1044429097851129,0.18756835937170002,-0.02185058593,0.46154785156,0.015948159407040873,0.12596991152654538,-0.2458862304641,-0.52453613281,-0.01501464843,0.01582135192721446,0.12546810418420448,1.0199998164394,0.76567176753,1.18838131976,0.00850497663192238,0.09199158520627182,Null
-0.7275695800749,-1.14721679687,-0.42993164062,0.044209206635836884,0.20973354667925134,0.5461364746053,0.26489257812,0.81396484375,0.02548320580235447,0.1592350142818554,0.25792114257739995,-0.30590820312,0.71032714843,0.1076640091014993,0.3273006096175071,1.032315683018,0.91505844926,1.21017607468,0.004964651819987751,0.07028391395538393,Null
-0.6733825683557,-0.7919921875,-0.57189941406,0.0021559028095264063,0.04631547576651646,0.7272583007777,0.60620117187,0.82238769531,0.0031292098550958643,0.055799317252278144,0.17664062499730002,-0.01721191406,0.55847167968,0.037091542404026304,0.1921095642908134,1.0272341362301,0.97402485537,1.07966098007,0.0005079708262061905,0.02248179201209636,Null
-0.6681274414027,-0.7138671875,-0.63305664062,0.000502572736550177,0.022362018532937185,0.7698547363249,0.73864746093,0.79748535156,0.00035699629157260134,0.01884705043540602,-0.0616601562462,-0.08874511718,-0.01721191406,0.0002720515572024321,0.016452698849016227,1.0217437259549,1.00890955246,1.0403054053,3.8481224458655906e-05,0.0061877959190945065,Null
-0.7199023437462,-0.73107910156,-0.69445800781,7.619669688469127e-05,0.008707221910590531,0.7517517089801999,0.73864746093,0.76672363281,4.1806031422090474e-05,0.006449573727385401,-0.1201843261684,-0.13537597656,-0.09460449218,0.00011211315441310756,0.010561845891748375,1.0478409207187,1.01856781758,1.06310384785,9.312453862753584e-05,0.009625950131514197,lift up
-0.6522009277303,-0.71118164062,-0.47021484375,0.0027766425570422497,0.05256195719583736,0.7405358886684,0.68676757812,0.91467285156,0.0023644175526882534,0.04850356136331447,-0.0767443847631,-0.15185546875,0.20568847656,0.011164187394456335,0.10539623549958535,0.9974693413393,0.94625641852,1.07994822433,0.0009324497367315381,0.030459604200446865,lift up
-0.9665551757771,-1.15734863281,-0.77038574218,0.007661256053548587,0.08730950562957532,0.29450683593390004,0.12133789062,0.62145996093,0.016858082620407354,0.12951367575397324,-0.0607836914051,-0.41162109375,0.10888671875,0.01430437637270282,0.11930152761318401,1.0282175369795,0.88704224285,1.20283749476,0.006086567331041219,0.07782116996284502,Null
-0.9775493868506966,-1.1162109375,-0.83435058593,0.004778043297079361,0.06895122868660426,0.2990667997860199,0.06958007812,0.52807617187,0.011823039397410891,0.10846298126956258,-0.07032829018820895,-0.50646972656,0.12731933593,0.015654261755151742,0.12480536789686725,1.038012048702338,0.89629036958,1.1983795709,0.004638758114876932,0.06793879389785673,Null
-0.9561559015748745,-1.07287597656,-0.82971191406,0.004397287979137412,0.06614522699801652,0.317850850931005,0.14074707031,0.62060546875,0.009510492851731648,0.09727641764768151,-0.09798749607286433,-0.5712890625,0.24230957031,0.04225414108281467,0.20504099276867624,1.0380004873615074,0.93454805385,1.13762003768,0.003316174571954653,0.05744136469588562,Null
-0.7667333984338,-0.82971191406,-0.61120605468,0.002319719827320893,0.04804291028012654,0.282485351559,0.17492675781,0.625,0.007304584944166221,0.08525292968247714,-0.6042822265583,-0.82495117187,-0.42883300781,0.004139473414265505,0.06417769119557183,1.022275655313,0.88141854547,1.12942016018,0.0014899812098022713,0.03850365312218128,Null
-0.7873388671836,-0.80651855468,-0.77392578125,6.950179536534773e-05,0.008315905626479957,0.24095581054299997,0.22668457031,0.25390625,2.88304057565165e-05,0.005355954978127983,-0.6065734863244,-0.6357421875,-0.58911132812,0.00012080105556399138,0.010963441534763224,1.0227703558672,1.00563158585,1.03659522607,5.268892013237367e-05,0.007240543869883795,Null
-0.7000976562459499,-0.73742675781,-0.60095214843,0.0015778161173660747,0.03962230478883383,0.41903076171475,0.38122558593,0.50463867187,0.0013407293576259687,0.036524316705967806,-0.65896179198895,-0.76049804687,-0.59387207031,0.0015678278281620517,0.03949669212758508,1.0505832356448999,0.99778158017,1.10702755213,0.0006964394653769406,0.02632408152338949,lift up
-0.7013405651264322,-0.73352050781,-0.67248535156,0.00032806117840371383,0.01806689319635557,0.38888595810723614,0.3515625,0.41564941406,0.00020388588570528229,0.014242939777862172,-0.600082320780251,-0.62731933593,-0.57141113281,0.0002456412667181735,0.015633518109928395,1.0016775283235677,0.96201730551,1.03657582669,0.0006286375047008658,0.02500956861413613,lift up
-0.9139294433557,-1.06860351562,-0.75512695312,0.007839339790291666,0.0883184187547547,0.3010595703082,0.17175292968,0.41040039062,0.003938953505055405,0.06260398339986145,-0.3880651855435,-0.6142578125,-0.14965820312,0.012096396179876536,0.10970831417434666,1.0432093470604,0.81873556881,1.24730914285,0.012028195751423004,0.10939860498500832,Null
-0.9145277032768159,-1.10217285156,-0.7412109375,0.004892676533432422,0.06977345382834892,0.29488239952203976,0.04797363281,0.41784667968,0.0054479195161985594,0.07362618718230315,-0.37906901041278607,-0.55163574218,-0.16564941406,0.007894278814485973,0.0886284592865544,1.039197449711443,0.85354699747,1.23298127526,0.005248792267192882,0.07226810411812903,Null
-0.65373107909925,-1.13916015625,0.20861816406,0.17622889423561,0.41874544745517167,0.4841577148394499,0.1640625,0.81970214843,0.0508209094266516,0.2248706403235388,-0.4721612548791,-0.72583007812,-0.26000976562,0.015148484706637572,0.12277109709986461,1.04982075494555,0.66656522922,1.3978457131,0.023691403661501523,0.15353483853247776,Null
-0.9238262847403517,-1.11010742187,-0.79260253906,0.00743431793274322,0.08600557860494659,0.311795181960201,0.19458007812,0.48937988281,0.005460470374839146,0.07370909594627273,-0.35125517724909533,-0.61560058593,-0.00268554687,0.02142124236909544,0.14599177351850987,1.0500380136636684,0.89672367999,1.21209089662,0.005643557173829207,0.07493462210514656,Null
-0.90174133300415,-0.91711425781,-0.88037109375,5.7982751087016903e-05,0.007595580118172793,0.3187298583940001,0.28955078125,0.36022949218,0.0003137051426337332,0.01766738851445127,-0.3602709960893,-0.41271972656,-0.32934570312,0.0002719290352534524,0.016448993588581193,1.0222616336918,0.99076708547,1.05989829757,0.00014361410359286294,0.011953912877166982,Null
-0.8889888934195522,-0.96838378906,-0.80688476562,0.0012541355459548724,0.035325572403384194,0.31247449276691547,0.16186523437,0.56396484375,0.007445853145747134,0.08607443929672678,-0.3173457662826866,-0.43737792968,-0.09313964843,0.004924867338577731,0.07000261074433309,1.0002735646316916,0.89490396322,1.08998921835,0.0016680620239117288,0.040740191554193346,lift down
-0.49010314941,-0.9501953125,-0.29272460937,0.025389674311536044,0.15894252401411763,0.73439270019055,0.291015625,0.97814941406,0.026308634382570414,0.16179335960000818,0.31812316894334997,-0.47436523437,0.7392578125,0.160616483080034,0.39976668278463856,1.0435165620381,0.90899468659,1.18902832112,0.003077877735124022,0.055339753762086816,lift down
-0.7897119140584499,-1.10681152343,-0.46228027343,0.034490597122602745,0.18525156986376587,0.5240673828089,0.17565917968,0.91479492187,0.04786927173490016,0.21824281288561523,-0.10576171874885003,-0.533203125,0.5400390625,0.10528950894708526,0.32367122424205375,1.0408143637224,0.7100035223,1.31681296746,0.012726763469032239,0.11253057207571229,Null
-0.9168048095667999,-1.12524414062,-0.66076660156,0.0056411999670550736,0.07491991702624742,0.31357788085509997,0.17565917968,0.49169921875,0.002932301884018759,0.05401518651822527,-0.3835595703091,-0.66235351562,-0.14782714843,0.012911869437042943,0.1133459751815552,1.0488267499528499,0.7100035223,1.26528786065,0.007357269545112195,0.08555982233143448,Null
-0.9555919134751742,-1.31066894531,-0.62219238281,0.022551033140869255,0.14979599108834177,0.30706513817248754,0.06481933593,0.5078125,0.013186168532901442,0.11454503788632463,-0.3950960529347263,-0.75341796875,-0.12292480468,0.027596418933373237,0.16570794584687026,1.0933871246994529,0.65985491042,1.47555413202,0.031224263329648526,0.17626377601756035,Null
-0.9088134765582001,-1.32653808593,-0.55065917968,0.04740861193019036,0.21719016752730638,0.2735498046836,0.15380859375,0.45031738281,0.0033234237067118395,0.05750483969352737,-0.4132128906216,-0.66162109375,-0.1806640625,0.016082491083897598,0.1264993226403925,1.0484827045316,0.6555439125,1.40673465324,0.03887517204092422,0.19667434042273946,stairs down
-0.968657987197588,-1.64440917968,-0.40795898437,0.07921696182866976,0.280747015377904,0.2763935644988944,-0.14367675781,0.61169433593,0.02469875819352909,0.15676301805830206,-0.41564389329095475,-0.70935058593,-0.18395996093,0.024283300941607463,0.1554389729241349,1.1100772794811558,0.47867151951,1.75101949593,0.0831526354888832,0.28763654678993866,stairs down
-0.9681500244100502,-1.46826171875,-0.63842773437,0.042672876403936126,0.20605706011179634,0.3132275390585,0.07678222656,0.60583496093,0.016289278466329053,0.12730998418819087,-0.4326068115191001,-0.75268554687,-0.20446777343,0.01627361875948337,0.12724877471192386,1.11537485985135,0.76032035796,1.6350307318,0.053641337827378385,0.2310262563827789,stairs down
-0.9753290432566668,-1.26379394531,-0.70532226562,0.025526282698448047,0.15937153531014403,0.2873359034856716,0.12585449218,0.56237792968,0.01107527947547649,0.10497703835869857,-0.4058509940497513,-0.74084472656,-0.09252929687,0.030049558095336784,0.1729163318090725,1.1076361454295525,0.7383118174,1.43589539741,0.03819541234587167,0.1949496997145104,stairs down
-0.9848120117147999,-1.34948730468,-0.61450195312,0.0489897692563026,0.22078229188506285,0.2802294921842,0.162109375,0.41552734375,0.0048456046808688985,0.06943613365866906,-0.3828271484336,-0.65258789062,-0.10998535156,0.021404955638793837,0.14593810626632056,1.1040173391363999,0.67024510095,1.51623167107,0.051205763920710586,0.225720480021435,stairs down
-0.8277978515594,-1.40380859375,-0.31005859375,0.05823407307340027,0.2407133205870279,0.5084570312462,0.08935546875,1.12133789062,0.07596382366332748,0.2749254527049303,-0.1557788085926,-0.58227539062,0.29907226562,0.05709285892309937,0.2383430188373133,1.0592881777729999,0.67030767114,1.50359849134,0.036470081596919494,0.19049338883261777,stairs down
-0.9765723146950753,-1.52563476562,-0.63415527343,0.05450088799567252,0.23286694524266222,0.2554324356109548,0.12194824218,0.3955078125,0.006822549164067449,0.08239092788295228,-0.1123102082657789,-0.35290527343,0.09191894531,0.01143966980858802,0.10668731897772771,1.0266547368471355,0.69248530136,1.57908138717,0.0501824856902658,0.2234509171951188,stairs down
-0.9766027831994001,-1.55651855468,-0.63110351562,0.039405271202923156,0.19801071902023015,0.29331970214434994,0.10168457031,0.48425292968,0.00551044116331786,0.07404653237999245,-0.12677001952750003,-0.42102050781,0.05737304687,0.015854876993733842,0.1256009657955112,1.0382401136833501,0.72627089401,1.59355520479,0.038577170272780605,0.1959190762060109,stairs down
-0.9702160583755224,-1.17858886718,-0.75036621093,0.015427141188066455,0.12389668777597394,0.34117316250442786,0.20446777343,0.50622558593,0.007912825166580328,0.08873250744340744,-0.10617991584761194,-0.27722167968,0.03161621093,0.004812858320980982,0.06920197795019939,1.0392159380692039,0.83128360056,1.2951448286,0.01712067369001447,0.13052009886975116,stairs down
-0.9647070312466001,-1.46643066406,-0.43591308593,0.04981930629683615,0.22264368341669155,0.35707031249660004,0.150390625,0.58813476562,0.010340315396933928,0.10143280445669071,-0.04076416015459999,-0.20385742187,0.13525390625,0.0053815394846447725,0.07317534958728622,1.0417754009164,0.63606285762,1.54820162788,0.03993773906985417,0.1993440502611124,stairs down
-0.9707714843708,-1.40600585937,-0.63623046875,0.031208589544250393,0.17621732774199347,0.34773437499640003,0.185546875,0.50695800781,0.007935289018713442,0.08885725954371919,-0.0379956054678,-0.25634765625,0.08996582031,0.0058240661725483525,0.0761245416517276,1.0398782352968,0.73594741693,1.4398733791,0.02829798716041487,0.1677989786161191,stairs down
-0.939919936593216,-1.30346679687,-0.5166015625,0.044156926211174057,0.20960685129453752,0.3062805482448241,0.10339355468,0.54760742187,0.008424232064688232,0.09155271290487553,-0.23857017018417084,-0.42895507812,0.02844238281,0.011924136484075965,0.10892298288348694,1.0290589244361306,0.66145145733,1.40868345155,0.039590813943013,0.19847383991153345,stairs down
-0.9288580322231,-1.1982421875,-0.72607421875,0.007901637293217181,0.08866864782295428,0.21328857421519998,0.072265625,0.36486816406,0.004152677652267769,0.06427996782829336,-0.3389715576136,-0.50207519531,-0.10546875,0.010312110544749382,0.1012943729534155,1.0184087732737002,0.79629916534,1.29483808128,0.008310694141129716,0.09093481550222703,Null
-0.8908879673860198,-0.92785644531,-0.8447265625,0.00026549668749345544,0.016253486039960765,0.17698251904134332,0.05554199218,0.23718261718,0.0016419797320430685,0.0404204240285752,-0.44824886796089547,-0.53942871093,-0.36499023437,0.001002127855842182,0.03157755761797608,1.0142201786386567,0.98795522808,1.04970613948,0.00018470692395767513,0.013556842701657627,Null
-1.00320068359,-1.3798828125,-0.64294433593,0.039687536643783335,0.1987186427101504,0.1920190429654,-0.04040527343,0.42028808593,0.016792113750558745,0.12926002159138747,-0.0715380859346,-0.23376464843,0.08337402343,0.006145951112523143,0.07819988079888951,1.0345251504502,0.64730867692,1.4146678535,0.040674179639926825,0.2011735786372733,stairs up
-0.9832812499962,-1.2041015625,-0.72973632812,0.02052679970052676,0.1429131404106149,0.3001318359346,0.12561035156,0.4873046875,0.007964206963916034,0.08901902004120497,-0.119394531246,-0.26391601562,-0.00109863281,0.00432055310388054,0.0655663811595633,1.0409044189938,0.7925538448,1.29521256488,0.020443901623904154,0.14262426902804667,stairs up
-0.9714324951134,-1.27038574218,-0.59582519531,0.03826123946815729,0.19511517949871687,0.33993225097285007,0.20104980468,0.7060546875,0.009464452904393926,0.09704190146463514,0.008619995118400002,-0.17468261718,0.52490234375,0.021028795983987714,0.14465010198429787,1.0450205102159997,0.73694317778,1.33434103781,0.035831337963175156,0.1888178521045065,stairs up
-0.8591040039016,-1.08020019531,-0.51123046875,0.021209699598412277,0.14527095752565347,0.37230224608960005,0.07849121093,0.931640625,0.03645476279549542,0.19045337744843996,-0.09187255859280001,-0.48876953125,0.62915039062,0.11747177275312108,0.34188362623757734,1.0213981949986,0.74917487611,1.30320843788,0.0161964826264563,0.12694684010767665,Null
-0.9231982421838001,-1.01391601562,-0.83154296875,0.0016870410957618434,0.04097079313709993,0.1365771484336,0.07482910156,0.22119140625,0.0011993558922392053,0.034545030218224,-0.39249755859019997,-0.5703125,-0.18383789062,0.006374518841467989,0.07964073233754602,1.0164330094004002,0.93568158225,1.14711125666,0.0010866271331858455,0.03288151452594476,Null
-0.8820166015588,-1.02270507812,-0.58959960937,0.006386443142800348,0.07971518630152191,0.1409179687458,0.04187011718,0.33557128906,0.004111770409461267,0.0639625793524148,-0.4626416015592,-0.72814941406,-0.34838867187,0.006360251076815664,0.07955155448783881,1.0121778253212,0.78608668411,1.16340906249,0.004139329718637198,0.06417657726962395,Null
-0.9315356445270001,-1.31774902343,-0.61804199218,0.02929373123504151,0.17072569396217518,0.2188183593714,0.033203125,0.52258300781,0.013391208504952672,0.11543072581608377,-0.3611791992153999,-0.63720703125,-0.15466308593,0.013740487008800541,0.11692640665716422,1.0331196869226,0.75791034853,1.45304442766,0.03507292208976857,0.186808879551588,Null
-1.0216748046836,-1.33850097656,-0.70275878906,0.038172890289193115,0.19488977868976903,0.327924804684,0.06848144531,0.51867675781,0.013195724199729595,0.11458510190566201,-0.00013183593780000002,-0.16088867187,0.16381835937,0.009898814028180436,0.09924374014535896,1.0845056325132,0.77549740034,1.39571295285,0.03634444809660447,0.1901649964008136,stairs up
-1.0099316406207999,-1.27392578125,-0.72204589843,0.03123510408627098,0.1762921681920091,0.360991210934,0.17858886718,0.54577636718,0.009381894825704852,0.09661772793631782,-0.0818457031224,-0.22351074218,0.07312011718,0.0072876036700828106,0.08515377649718418,1.0834450348324,0.79173549344,1.37549985664,0.03094193797572984,0.1754628971772984,stairs up
-0.997565917965,-1.3115234375,-0.67663574218,0.034988089068834945,0.18658281974364835,0.2761596679654,0.11889648437,0.49633789062,0.010412962143153454,0.10178849312391694,-0.0634912109362,-0.263671875,0.06994628906,0.008922969060375941,0.094225019050537,1.0455039948602,0.72974549661,1.39764503316,0.03658980267693443,0.19080580091692642,stairs up
-0.9400488281214001,-1.20043945312,-0.69079589843,0.017811018402217133,0.1331238645405325,0.26975585937200003,-0.1142578125,0.5380859375,0.022304197268113925,0.1489720654410529,-0.2462451171844,-0.44299316406,-0.00756835937,0.016180357477987264,0.12688363050684406,1.0273232636841998,0.81804645537,1.32538047402,0.01780672143812342,0.13310780529680746,stairs up
-0.9995953369100502,-1.31274414062,-0.73608398437,0.023981822581868758,0.15447301857916618,0.16463500976215,0.00732421875,0.3134765625,0.007410070163815975,0.08586629031812715,-0.21695556640230002,-0.37170410156,-0.06018066406,0.005751020494889425,0.0756456567980937,1.0429423500620498,0.79675801671,1.37146890838,0.025937791670311565,0.16064900470267474,stairs up
-0.9956811523401999,-1.28295898437,-0.68908691406,0.027809081898274985,0.1663431287693712,0.2167968749964,0.00549316406,0.42333984375,0.010699261373019419,0.10317831684106077,-0.11406005859139999,-0.25158691406,0.03442382812,0.006341892205103117,0.07943665869154871,1.0334698474808,0.71090012756,1.36037360157,0.028098088185912935,0.16720525633180128,stairs up
-1.0004296874962,-1.27856445312,-0.71276855468,0.028109411642341216,0.16723894457969266,0.30761474609020006,0.14465332031,0.47265625,0.009152514545083583,0.09542930353071935,-0.0577294921868,-0.15783691406,0.06433105468,0.004856411439865035,0.0695135194236755,1.0556357322718,0.80249924012,1.35528711646,0.026492495071173926,0.16235773032356068,stairs up
-1.0293146641377386,-1.34704589843,-0.69592285156,0.031691952394047235,0.17757448113922814,0.30464210701613065,0.15344238281,0.45703125,0.00668238182288206,0.08154018650166846,-0.024488899574773865,-0.24206542968,0.10437011718,0.007711773358018311,0.08759578030977588,1.0797184844203518,0.77047866746,1.38719510238,0.03096490668096239,0.1755257933604828,stairs up
-0.9529148690102488,-1.09448242187,-0.77136230468,0.005573118656755947,0.07446738680969424,0.18408263856189055,0.02502441406,0.3447265625,0.008616821244138782,0.0925956342745448,-0.2957022747550249,-0.48974609375,-0.01635742187,0.01660213723415578,0.12852836082543578,1.0286273073946268,0.95376720055,1.10677338842,0.0019474346294680077,0.044019835301465714,Null
-0.9158389604231658,-0.99230957031,-0.81677246093,0.00093660113760932,0.030526948737621545,0.17006296128773868,0.06494140625,0.32421875,0.0011533963989423539,0.03387625181655467,-0.39770937205165824,-0.52282714843,-0.203125,0.0037404320421355955,0.061005212082414245,1.0152284766393969,0.92895884769,1.10639368325,0.0008884680345300588,0.029732194184754646,Null
-0.968659667965,-1.22119140625,-0.70349121093,0.023307947543307648,0.15228725424536063,0.19602539062039998,0.04724121093,0.37939453125,0.0063205995512723686,0.0793031938418372,-0.2705908203088,-0.42980957031,-0.06396484375,0.008152249135043177,0.09006379899475683,1.0304202180347999,0.78232244315,1.32785110454,0.025902477045620875,0.16053960464755346,Null
-1.0332666015588001,-1.28784179687,-0.68395996093,0.020637551887689037,0.14329816512520524,0.2239672851524,-0.01086425781,0.44018554687,0.010873570999210767,0.1040153985918177,-0.0439453124978,-0.24841308593,0.05627441406,0.0048032394003778905,0.06913192607888197,1.0660271107602,0.70907022676,1.32099698737,0.019549140509004994,0.1394682573435976,stairs up
-1.015660831580995,-1.32666015625,-0.72473144531,0.03138087419287903,0.1767052643264361,0.25055812246940296,0.11218261718,0.45080566406,0.008893463850406645,0.09407028096906404,-0.11587812888263682,-0.41540527343,0.01123046875,0.007073952104858653,0.08389730814091827,1.0610847165320398,0.78113212649,1.3692021703,0.029130919097827664,0.17025272142338085,stairs up
-0.9975134277309,-1.33654785156,-0.69860839843,0.03267487423949169,0.18030945584825614,0.27512756347239997,0.03857421875,0.63732910156,0.016697556993015984,0.12889557481950614,0.0120996093765,-0.14868164062,0.27783203125,0.01333096556853862,0.11517078944201053,1.0492912061362,0.76152884243,1.36353198043,0.032414532436021076,0.17958969840678773,stairs up
-0.7561560058567,-1.296875,-0.11291503906,0.09858791964587543,0.3132011814276026,0.47295471191065,0.24584960937,0.96911621093,0.03343808212120246,0.18240310225047282,-0.06970275878769999,-0.55700683593,0.712890625,0.16630693408669917,0.40678667556382136,1.03413606126735,0.66108562577,1.53386457717,0.027859715836535442,0.16649449617735945,Null
-0.88315662786201,-1.03369140625,-0.25390625,0.01776740417681829,0.13295909423105975,0.3447063196812059,0.2236328125,0.78759765625,0.02515397992433368,0.1582010683123416,-0.30581312323070353,-0.47033691406,0.16430664062,0.02138500941108966,0.1458682523794673,1.0252082954897992,0.8125437578,1.2274993975,0.0052674085612728965,0.07239433107307337,Null
-0.354973144529,-1.13269042968,0.0322265625,0.16771010142989967,0.40849914433539536,0.5839501953089999,0.16662597656,0.86743164062,0.052173981139230836,0.22784448914453623,0.33665527343580004,-0.47314453125,0.78979492187,0.2306760894800447,0.47908528367363207,1.012301573664,0.84874549003,1.17540125235,0.0039129972026995825,0.06239737347586102,Null
-0.599558360537015,-0.90588378906,-0.14453125,0.08117731518254459,0.28420669932784914,0.4638532192517413,0.17236328125,0.75903320312,0.05106708603809205,0.22541743706604625,0.13310583313910446,-0.54138183593,0.94250488281,0.3316439172846411,0.5744509966454115,1.0242773015237314,0.88107045218,1.19978478831,0.004807543653763249,0.06916375876232136,Null
-0.8077490234328499,-1.5263671875,-0.08044433593,0.12121046029185192,0.3472814535652497,0.36360534667685,0.10083007812,1.14721679687,0.06229180495900765,0.2489585225177331,-0.18737854003695,-0.69067382812,0.89050292968,0.20942304369177597,0.4564821228408809,1.0791352891756,0.70242641501,1.62687135195,0.04643795006001758,0.2149552518774954,stairs down
-0.9234552001914001,-1.50646972656,-0.48620605468,0.06314447644928615,0.25065664576675345,0.24145935058314996,0.00415039062,0.38818359375,0.0057212438381717,0.07544957003840938,-0.40258056640205,-0.63037109375,-0.13452148437,0.018577737970255366,0.13595899852677676,1.0493154622822498,0.58835388383,1.613404992,0.05938345605023225,0.24307722799550988,stairs down
-0.9629709828404523,-1.75402832031,-0.48767089843,0.08995910521392718,0.29917728758853346,0.2794569772651256,0.05786132812,0.48547363281,0.010965693831141635,0.10445376892214288,-0.38584156131819086,-0.60534667968,-0.17749023437,0.009437709453624162,0.09690347660418488,1.0869731244866332,0.5966921741,1.88679595062,0.08299744865543457,0.2873680150071087,stairs down
-0.9692826152413432,-1.34631347656,-0.74853515625,0.0209927256769906,0.14452779751906564,0.2193652100790547,0.10266113281,0.37194824218,0.004346565282384817,0.06576428042248604,-0.41697943388094527,-0.66955566406,-0.20910644531,0.016210913569117663,0.1270049694217849,1.0837312919288058,0.80518123146,1.52435241027,0.02851356439780882,0.1684390271536454,stairs down
-0.9746374511690999,-1.21569824218,-0.740234375,0.021976393178243563,0.14787329445289418,0.22707641601144998,0.13452148437,0.41235351562,0.005183880291732186,0.07181894520440638,-0.41066101073860006,-0.64990234375,-0.13391113281,0.021351691418177648,0.14575641653487081,1.0895913740346002,0.78962793958,1.38731145415,0.03134107373389138,0.1765909634302444,stairs down
-0.9588665771444,-1.52014160156,-0.52490234375,0.06917185735120453,0.26234709463694944,0.23431030273035,-0.01086425781,0.44897460937,0.010346520173241402,0.10146323261347036,-0.42195312499675,-0.64794921875,-0.17858886718,0.017123018832711837,0.1305274060822028,1.09190923459635,0.61165507778,1.55725611504,0.05654601327187962,0.23719882631564648,stairs down
-0.9326354980437,-1.43334960937,-0.55944824218,0.053509548044226335,0.23074228113634745,0.17009155273034998,0.06518554687,0.35278320312,0.003257616499186657,0.05693266563837252,-0.42665771484014997,-0.59558105468,-0.21899414062,0.014381270426527213,0.11962175418540967,1.0504776746975,0.68241445999,1.52772367488,0.04830780091681057,0.21924019228286248,stairs down
-0.96454895019195,-1.45300292968,-0.5078125,0.05931311805003465,0.2429332263396353,0.23169616698860002,0.09704589843,0.46044921875,0.00849869550748702,0.0919576099621428,-0.44185729980094995,-0.70422363281,-0.28112792968,0.011748175405100373,0.10811768832191554,1.0981271886583,0.65543760241,1.56534154956,0.05281862416826305,0.22924775036501827,stairs down
-0.97915344237935,-1.33374023437,-0.61901855468,0.02941124544678809,0.1710677912979359,0.26668945312225,0.06884765625,0.52331542968,0.014155433728951422,0.11867879574846833,-0.48621459960555,-0.74133300781,-0.21069335937,0.017495456878517442,0.13193930268924745,1.13433783368735,0.76007119042,1.4832729515,0.04050640144683392,0.20075823629330816,stairs down
