avg_accX,min_accX,max_accX,var_accX,std_accX,avg_accY,min_accY,max_accY,var_accY,std_accY,avg_accZ,min_accZ,max_accZ,var_accZ,std_accZ,avg_magnitude,min_magnitude,max_magnitude,var_magnitude,std_magnitude,Label
-0.8747495344849224,-0.8974609375,-0.85534667968,7.350397311317128e-05,0.008551205968256677,0.4709567529515026,0.44140625,0.51477050781,0.0002368766064869196,0.015350871850059056,0.2160176489600518,0.17761230468,0.23461914062,0.0001683287653797287,0.012940502139056344,1.0168830879390156,0.98941090821,1.03738352282,7.604435651750659e-05,0.008697720638625462,Null
-0.8741162109332001,-0.88500976562,-0.86462402343,2.314311176292056e-05,0.004798686924993748,0.4786376953088,0.46545410156,0.49658203125,4.568710998111897e-05,0.006742304830784009,0.2075952148402,0.1875,0.2236328125,7.457343177782552e-05,0.008613974960431241,1.0180327523666,1.00853955856,1.02731339152,2.1073927595563474e-05,0.004579143801802435,Null
-0.8608886718716,-0.94860839843,-0.80859375,0.0008153508056160098,0.028482872951792096,0.5095678710902,0.41467285156,0.61352539062,0.0022834838275328944,0.04766619775475311,0.2112475585908,-0.01794433593,0.32824707031,0.004567247665064435,0.06741224982700927,1.0258210152968,0.93519494877,1.10670480269,0.0007369327418271335,0.027078553840964217,Null
-0.8833325195271999,-0.96923828125,-0.78967285156,0.0019727315195857253,0.04430426460271964,0.46959716796479994,0.33544921875,0.62866210937,0.005185173630042271,0.07182790378322383,0.1524877929646,0.02099609375,0.33068847656,0.004450219773771141,0.06654298366396179,1.017199407569,0.91939633334,1.06899425325,0.0009103686029438231,0.030096789860865628,Null
-0.6755493164024,-1.20202636718,0.03686523437,0.13450599270720676,0.3658325610763355,0.6137622070274,0.27856445312,1.03649902343,0.03610092396106041,0.18952683013561725,-0.020202636719599997,-0.56811523437,0.33288574218,0.07122322856899643,0.26620877601264664,1.0284270210668,0.74889312963,1.47930219582,0.016520531710583996,0.12821048729347798,Null
-0.8272265624958,-1.63122558593,-0.11071777343,0.0912495874040941,0.30131933138627803,0.5243847656214,0.18615722656,1.21350097656,0.04663822852208744,0.2154182846916134,0.08447265624820002,-0.78283691406,0.72900390625,0.09712732556908713,0.31087246410906466,1.0721244483641998,0.44138877969,1.76171112904,0.05106334751513695,0.22540636809451783,Null
-0.8897294087597488,-0.97521972656,-0.80139160156,0.001079390178608919,0.03277142211378121,0.45473277029286413,0.38610839843,0.6064453125,0.001759095790345959,0.04183606235065075,0.1801438834757789,0.1396484375,0.23205566406,0.00041621219118584906,0.020349955101600998,1.0164447667201006,0.96190645631,1.08296963045,0.0009352105946560077,0.030504279108497106,Null
-0.8987442248924874,-1.0068359375,-0.83081054687,0.0006720155491689136,0.025857383911108096,0.44723154445248725,0.41259765625,0.47277832031,0.0002019230234258575,0.014173850339947463,0.17966767131558375,0.11450195312,0.20971679687,0.00025742279039004507,0.016003626955100346,1.020290383730812,0.95240925664,1.10393072102,0.0005758423123772874,0.02393573176140751,Null
-0.903038418166031,-0.95068359375,-0.84252929687,0.0005083190223419205,0.022487748246452513,0.4475047317939175,0.39379882812,0.47961425781,0.0003256752755142298,0.01799990380476105,0.16399013872860824,0.08911132812,0.21508789062,0.0005229545403733486,0.022809184518799906,1.0214630088139176,0.95809097006,1.07053761307,0.0005979935872281593,0.02439080043903603,lift up
-0.9226451294544503,-0.9775390625,-0.87414550781,0.000523594709985959,0.0228222123473125,0.4447718115973821,0.4140625,0.47998046875,0.00038523507711572585,0.019575958202325723,0.18644163121387433,0.16479492187,0.2177734375,0.000162023166282124,0.01269546680722776,1.0411958175739267,0.98757598047,1.10931750941,0.0008373812028502748,0.02886168754717842,lift up
-0.8970330420926595,-0.93225097656,-0.85754394531,0.00035195036645134937,0.01871037920604644,0.44361780044510624,0.40954589843,0.48608398437,0.00023391200782084187,0.015253451904840563,0.1832509142248404,0.15661621093,0.21020507812,0.00010517455567834247,0.010228153134969864,1.0175705995700002,0.9882398001,1.05556783316,0.0002848804562712332,0.016833452845311396,lift up
-0.8967859216602703,-0.93371582031,-0.8583984375,0.0002492991872461704,0.015746479735860543,0.4393376530788648,0.40283203125,0.46643066406,0.00017328410201580572,0.013128116056544391,0.18074192356005406,0.15502929687,0.19970703125,8.485407407794558e-05,0.00918669708912044,1.0149746588204325,0.98682918851,1.05167981551,0.00024265368720911685,0.015535187338961675,lift up
-0.9040794164063934,-0.94226074218,-0.86242675781,0.000293208941731446,0.0170764957493385,0.4346323482285245,0.41186523437,0.46740722656,0.0001871734642729587,0.013643703985987804,0.18252980383021863,0.15576171875,0.20336914062,0.00013242688348860074,0.011476203175115536,1.0197406718171036,0.97681128575,1.06312098307,0.00032218198871871974,0.0179003193100938,lift up
-0.9047980414465556,-0.95080566406,-0.86840820312,0.00037040865244248835,0.01919246796520931,0.4335625542493889,0.40161132812,0.46240234375,0.0001464734400808658,0.012068955992424666,0.18538343641161115,0.16088867187,0.20812988281,0.00011613951114371753,0.010746827049755827,1.020395582161111,0.98282147996,1.06913381956,0.0004277398034029874,0.02062434171463079,lift up
-0.807713883642247,-1.07067871093,-0.26293945312,0.03549443962427005,0.1878697225741518,0.5838437883999438,0.42163085937,1.08557128906,0.03574649769926616,0.18853560586394222,0.16670004169252808,-0.30090332031,0.330078125,0.01354934691621783,0.11607423051531388,1.0413082169774157,0.5708052453,1.48866922723,0.021174279193621918,0.14510452290999978,lift up
-0.880244861945966,-1.24548339843,-0.58422851562,0.0179405672035968,0.1335613423212992,0.5401736172722159,0.34155273437,0.98486328125,0.02127245751100698,0.1454358665362468,0.15669735994982953,-0.33764648437,0.45397949218,0.03404134948011277,0.18397807674204836,1.0687261129147727,0.71631897422,1.37880112568,0.021960041090326114,0.14776761529369561,lift up
-0.888999500490517,-0.92224121093,-0.84252929687,0.00029820665586154674,0.017218966998807466,0.43465309581132183,0.40063476562,0.45617675781,0.00018651016676695867,0.013617572076431383,0.20718769643114943,0.18981933593,0.23583984375,0.00010284671215083774,0.010112153039412507,1.0111186754099426,0.95305634079,1.04512156779,0.0003963295719316637,0.019850738418787775,lift up
-0.8817009420915295,-1.17517089843,-0.60119628906,0.009508801466986027,0.09722585736680155,0.4269990808781176,0.20874023437,0.67504882812,0.008700958891135658,0.09300417614285571,0.19814094094276472,-0.0634765625,0.36926269531,0.01135704644785988,0.10625554240736919,1.0083650812081764,0.65877224233,1.30930495222,0.011645851257067128,0.10759807735118976,Null
-0.8952033633231548,-1.26782226562,-0.77099609375,0.007029588885769816,0.08359273948605281,0.46272786457958337,0.30444335937,0.78234863281,0.008657729316397396,0.09276958129324289,0.21879359653636904,-0.09509277343,0.30261230468,0.00703371343583547,0.08361725954583478,1.037847000039762,0.90042824159,1.49016308895,0.008889079348746927,0.09400089447525083,Null
-0.908214155445783,-1.42504882812,-0.59362792968,0.030675594702184,0.17461615607673367,0.5029701324790964,0.24597167968,0.93176269531,0.020537864690193666,0.1428780690440164,0.14285241551915662,-0.43872070312,0.40441894531,0.03517167052187625,0.18697538070187728,1.0762613846841569,0.69192862308,1.49406589495,0.025921039183349415,0.16051444902218462,Null
-0.7999885464854322,-1.44677734375,-0.46374511718,0.03509901811025106,0.18676819189742194,0.5682697060635803,0.33203125,0.86181640625,0.018524687629498875,0.1356846996011709,0.11424123504753086,-0.29821777343,0.43566894531,0.02126992702167132,0.14539130364591457,1.0042350318090125,0.67250816318,1.67225496484,0.04216680934267589,0.20471082139475716,stairs down 
0.21546926557546583,-1.21020507812,0.96716308593,0.27903403094793894,0.5265936766814933,0.2899655170295652,-0.13171386718,0.75927734375,0.039996317080491325,0.1993687356402674,-0.696486952879441,-1.19165039062,-0.05871582031,0.08383995610191972,0.28865067301664776,0.9558970184052795,0.19621381693,1.67102758375,0.10286891265908546,0.3197342260587328,stairs down 
-0.9035621499076101,-1.89892578125,-0.14001464843,0.1899962758105583,0.43451275088272645,0.46365989828672943,-0.02172851562,1.27416992187,0.08763535995160265,0.2951003120393869,-0.030467675165786155,-0.82373046875,0.90185546875,0.13428020386865672,0.36528848090868826,1.119162978909623,0.2230977817,2.35175985794,0.18987766980665707,0.43437710647026867,stairs down 
-0.9124122329865824,-1.63024902343,-0.23754882812,0.09061477019539997,0.3000687571068198,0.45116105863917716,0.00085449218,1.0078125,0.06406659217754745,0.2523115285057939,-0.0009070287768354402,-0.224609375,0.4033203125,0.02725642698628934,0.164571923348822,1.0779087560207594,0.62592788007,1.66899586037,0.05529215484346813,0.23439753517551667,stairs down 
-0.8605773925744377,-1.25158691406,-0.50073242187,0.024148317665554184,0.15491091207576202,0.5743492126430625,0.30456542968,0.93005371093,0.026641122973041723,0.1627102208051486,0.18636016845374997,-0.06323242187,0.40478515625,0.01597050130103724,0.1259789096154819,1.0681743859226873,0.67920667807,1.53162163486,0.030738870563159396,0.17477629307815076,stairs down 
-0.8357233011462892,-1.10217285156,-0.61560058593,0.016937962196658975,0.1297360170982948,0.5734778830049685,0.33227539062,0.91918945312,0.017386649250940845,0.13144314077064617,0.18587239583,-0.09680175781,0.44580078125,0.020164469122984138,0.14155440142384207,1.045355735988365,0.72871774523,1.37911349244,0.023383700394517933,0.1524356687145079,stairs down 
-0.8460229801189241,-1.08520507812,-0.60107421875,0.013021567560275747,0.11375039593652868,0.5623338916596202,0.36511230468,0.88891601562,0.012613044464377587,0.11195184263348873,0.16626208341341772,-0.14514160156,0.43054199218,0.021312097544067807,0.14552391848335766,1.044084673443101,0.71988953565,1.34559459276,0.016257034782441733,0.12709894632622415,stairs down 
-0.8663611778811537,-1.54968261718,-0.17712402343,0.12326034958252567,0.34995745332323447,0.4498361440773718,-0.52551269531,1.0126953125,0.10192657021518707,0.3182344965038984,0.022830278446153842,-0.29467773437,0.48669433593,0.04296495471091663,0.2066144678732944,1.0683776090118589,0.60671703498,1.58697627018,0.07896388421435133,0.28010302652664704,stairs down 
-0.7574212489947436,-1.30187988281,-0.35522460937,0.0412546697584913,0.20246040785106334,0.5690385867365385,0.17822265625,1.03479003906,0.031560194526637136,0.1770815789046501,0.015355036808974355,-0.87414550781,0.30358886718,0.039181674104381635,0.1973081587942816,0.9756991465651922,0.40374816294,1.52439585154,0.06172117076680298,0.24763990436972502,stairs down 
-0.8318006727395424,-1.21228027343,-0.52172851562,0.0376493453499109,0.19339925335248093,0.6019191367914379,0.31408691406,1.04736328125,0.025971329237467783,0.16062870847874514,0.0806230532564706,-0.12084960937,0.36352539062,0.013159232904854908,0.11433820379319085,1.0411462810069936,0.70195509751,1.53745736008,0.0533402115329154,0.2301990067297575,stairs down 
-0.836080589038543,-1.49169921875,-0.47729492187,0.03237388010068273,0.1793306542220949,0.5847386240133112,0.28405761718,1.35034179687,0.04101447146844883,0.20184858793685304,0.1204914825628477,-0.138671875,0.50695800781,0.02056497845364468,0.14292930610394652,1.0454091056533774,0.7102993417,1.71821833103,0.05629192571714759,0.23647226371627658,stairs down 
-0.9060961664905103,-1.46484375,-0.54260253906,0.047057014530363137,0.21637219720087594,0.4709148796195408,0.10974121093,0.80676269531,0.018654216115728355,0.1362315732262875,0.15122581014545913,-0.04919433593,0.384765625,0.013585735597062555,0.1162601420071665,1.047316255702857,0.63800174658,1.57218692179,0.04646673531040618,0.2150108372390821,stairs down 
-0.9060037302381976,-1.21032714843,-0.56689453125,0.025038208611867393,0.15777400809881784,0.4866794320002907,0.11767578125,0.99377441406,0.027657615200403954,0.1658216364411759,0.15891070698337206,-0.17846679687,0.37780761718,0.020623466413215222,0.14319065101716588,1.0581475713269766,0.6590316154,1.57532344611,0.036380488577743765,0.19018142419613043,stairs down 
-0.8943969080654498,-1.2392578125,-0.64270019531,0.01831370965367677,0.1349696696261839,0.4584857597513757,0.10400390625,0.84399414062,0.023634132762336585,0.1533267244835118,0.17688504980693123,-0.19323730468,0.40283203125,0.02071779218551027,0.14355547442518096,1.0371366966760318,0.69950670035,1.50331931117,0.028274485154320225,0.167704754565183,stairs down 
-0.8313770783215384,-1.14624023437,-0.482421875,0.020211074996113368,0.14170926865615163,0.5450955904414102,0.240234375,1.01867675781,0.020680443901842132,0.1433453067029172,0.15422331980955128,-0.23767089843,0.51049804687,0.026672438205200433,0.16279269343928915,1.0238223366345511,0.67088466669,1.56212165543,0.031220691913752284,0.17612654335244166,stairs down 
-0.8414192199665624,-1.35571289062,-0.51879882812,0.04859529648693282,0.21986858798927306,0.5718930562298438,0.33959960937,1.14501953125,0.026372392723795775,0.16197233255001509,0.06574440002390625,-0.17614746093,0.36511230468,0.0145542009040733,0.12032621399497528,1.033480758364271,0.68793511709,1.70923533749,0.06065938428315362,0.2456490382436133,stairs down 
-0.18909050436458819,-1.20983886718,1.13684082031,0.47447368562659104,0.6867915724194893,0.6632015452635294,0.14770507812,1.13757324218,0.05861797086986326,0.24139834149494716,0.15794175091635293,-0.18481445312,0.62145996093,0.038367337253407574,0.19529886593185808,1.0011227611070002,0.6018355852,1.6493952125,0.06678061978918275,0.25765828652296874,stairs down 
-0.7918960492192745,-1.51428222656,-0.47912597656,0.06038207997633304,0.2450902271783209,0.6183259795945077,0.38366699218,1.14904785156,0.03334387115790794,0.1821293633275681,0.12899100347829015,-0.09057617187,0.49267578125,0.014542237619503328,0.12027838225572841,1.0266161100196374,0.61789502259,1.90620580997,0.0802474148346456,0.282544908148203,stairs down 
-0.820862589000696,-1.35803222656,-0.45910644531,0.03995538948952088,0.1992548801850582,0.5643125123577848,0.32873535156,1.05725097656,0.02077851557016417,0.14369066071929637,0.19097436832234174,-0.080078125,0.47033691406,0.022409579866655146,0.14922381540052168,1.032736262491709,0.63351436827,1.52344367197,0.04509368653190194,0.21167967179818215,stairs down 
-0.8465595860594624,-1.20031738281,-0.56188964843,0.018571608852148,0.13591085862699806,0.5348963583637634,0.3447265625,0.78430175781,0.011270737237407237,0.10587795746006722,0.21960121072526884,-0.10754394531,0.4208984375,0.02032434415659489,0.1421797224961644,1.0384981575891397,0.67973357077,1.42063205489,0.022541684083962014,0.14973473956984143,stairs down 
-0.8403120431247367,-1.07861328125,-0.58068847656,0.015478446151966734,0.12404809117035161,0.5242712902008771,0.23986816406,0.85864257812,0.016846596150099664,0.12941436567846218,0.1975347507736842,-0.13232421875,0.40515136718,0.019863220683736253,0.14052423811731285,1.02557845207731,0.6849404503,1.27669803969,0.02019469806613192,0.14169192078810414,stairs down 
-0.8204237054118324,-1.52197265625,-0.45812988281,0.05417758802747542,0.23215067463640474,0.5732945946457592,0.30712890625,0.94409179687,0.02701144444286038,0.1639207835137658,0.14586443676109945,-0.13549804687,0.44116210937,0.020159268364835056,0.14161116642823673,1.0282062341630367,0.64334123744,1.80867233682,0.0669985819667467,0.25816235986427305,stairs down 
-0.7652565423658896,-1.23974609375,-0.45922851562,0.029952568675370255,0.17253640365249678,0.5859322577128834,0.33935546875,0.93115234375,0.023899494194297467,0.15411966626789966,0.11808093486042943,-0.08984375,0.48010253906,0.013107871881457471,0.11413787929318947,0.9859536971701226,0.70839552162,1.55343945886,0.03755211918316888,0.19318834872705348,stairs down 
-0.8130977957545713,-1.26831054687,-0.51391601562,0.033890453747267964,0.1835668652332694,0.5741266741026855,0.35546875,0.87048339843,0.018549114674232783,0.13580544809851028,0.12979003905897143,-0.07873535156,0.44799804687,0.015172444362482622,0.12282403950534802,1.0162586309355428,0.73572345463,1.54228870519,0.04228057437501225,0.20503407300463336,stairs down 
-0.8323715873349455,-1.27465820312,-0.51196289062,0.027952572095413245,0.16673528703523072,0.5302163828936414,0.29467773437,0.87048339843,0.01877050531721361,0.13663268899263892,0.14415707795201085,-0.06982421875,0.44860839843,0.011611721816479964,0.107464480795725,1.0092808424015216,0.69944889394,1.54228870519,0.03430954356506936,0.1847243315169651,stairs down 
-0.8151747385621876,-1.19140625,-0.49780273437,0.023603612332253925,0.15323405904483758,0.5838775634726041,0.28735351562,0.91711425781,0.02283557992020275,0.15072041868346292,0.15063158670822918,-0.15307617187,0.40942382812,0.019850229784986417,0.14052346128502152,1.0308979331058854,0.67979995849,1.43744325007,0.031470262198540974,0.17693601833127018,stairs down 
-0.834598935880115,-1.2373046875,0.25891113281,0.05142879053633362,0.22612656362008987,0.5311054799705746,0.21350097656,0.93395996093,0.026457808964664965,0.16219048243132153,0.08724940508201147,-0.50842285156,0.38146972656,0.05124621488239941,0.22572482452327608,1.0451300087087354,0.65865232494,1.40740324522,0.022463912934161685,0.14944835223669817,stairs down 
-0.5862811860563095,-1.19396972656,0.86474609375,0.31882727728286175,0.5629649153104159,0.5671030680302975,0.32214355468,0.96484375,0.026019779392718895,0.16082568126228014,0.0171000162752381,-1.0322265625,0.40209960937,0.10560482729809754,0.32400035051772536,1.0314495715777976,0.43851117377,1.59238854861,0.04980277861197846,0.22250018764305093,stairs down 
-0.8001374275412902,-1.26037597656,-0.47473144531,0.03410155056434058,0.18416896832702254,0.6173902942248926,0.34338378906,0.98400878906,0.023672456327376742,0.1534444037975952,0.12319257182198924,-0.07495117187,0.49780273437,0.01455491902273305,0.12031902081517559,1.0300869187653225,0.67150507213,1.54528373213,0.04768445666653257,0.21777990866913852,stairs down 
-0.8086557967853589,-1.24401855468,-0.46325683593,0.031621576451500794,0.1773326580447812,0.5928327865985635,0.27978515625,1.01293945312,0.027247648869628542,0.16461199644348906,0.10764848066071821,-0.10949707031,0.32775878906,0.017387471451988545,0.13149679872073222,1.0248587782413812,0.67733504433,1.62734849116,0.04269888508918587,0.20606547417436089,stairs down 
-0.8329536352224157,-1.53552246093,-0.47497558593,0.06324496645863291,0.2507781044236189,0.6356139450891573,0.30126953125,1.15673828125,0.04227192157275055,0.2050230203349996,0.08753744403887641,-0.07849121093,0.42236328125,0.012173246105359426,0.11002207543168603,1.060692332214663,0.65924091196,1.87936299456,0.09529168314152911,0.3078251721465062,stairs down 
-0.8077272901317647,-1.21435546875,-0.416015625,0.04146023188099648,0.20295134878408064,0.6045113357799999,0.24731445312,1.04736328125,0.02997071670823084,0.17255384571467,0.12426997165836602,-0.13513183593,0.44152832031,0.02071636414628517,0.14346066733928722,1.0346187002722873,0.67953649575,1.53398915934,0.05476750145782876,0.23325853453188072,stairs down 
-0.803725335532923,-1.49792480468,-0.44323730468,0.06539609323788573,0.255070046569915,0.5597812750352308,0.10424804687,1.10119628906,0.03958472183944595,0.19844828864444844,0.14612317207297434,-0.05944824218,0.53173828125,0.017854594513634598,0.1332780270355461,1.0100796492102564,0.61887008339,1.87147337739,0.08305196646286507,0.2874474890176338,stairs down 
-0.8645626354734105,-1.08874511718,-0.65551757812,0.009711805406214608,0.09826325764348787,0.5221293013873988,0.33020019531,0.79187011718,0.01527647094678119,0.12324028418707407,0.18057938944774563,-0.08996582031,0.380859375,0.012707309733269912,0.11240043183125306,1.0368761140240461,0.78184713431,1.34347627868,0.015149660903165706,0.12272770921404731,Null
-0.8319085303740426,-0.92028808593,-0.7373046875,0.0015455230189785692,0.03920844490484598,0.5255542511592552,0.36413574218,0.63391113281,0.004054483262428996,0.06350525066557038,0.25993379633122343,0.17565917968,0.44812011718,0.003396307576296018,0.05812264713917163,1.021947938883617,0.97788172307,1.08764981356,0.0004177456846538589,0.020384396805884216,Null
-0.6110989478295484,-1.34191894531,0.05041503906,0.14299843844088905,0.3769295263975783,0.3949399886550968,-0.09204101562,1.06115722656,0.07265808570562282,0.2686807098813771,-0.17315398185503222,-1.09094238281,0.40258789062,0.24934495198238915,0.49773112708853695,0.9884645104266453,0.19778121948,1.72911874626,0.04462912820210532,0.21057349867145417,Null
-0.025721674380978263,-1.49267578125,0.24157714843,0.1641758356030615,0.4040836245468974,0.31472313921929346,0.05700683593,1.99780273437,0.17559218787214975,0.4178969759441666,-0.8922716223636413,-1.01342773437,-0.25109863281,0.021017784627629692,0.1445806264243662,1.0745185150703804,0.69353106884,2.45706204939,0.10064285544838776,0.316379334672648,Null
-0.7767809490788953,-1.13171386718,-0.25854492187,0.034383040326849995,0.1848868273555498,0.6285123603254651,0.25842285156,1.18908691406,0.04496881820263388,0.21144117760071407,0.07708385378656976,-0.73132324218,0.44165039062,0.08594138622610774,0.2923041686392155,1.0687118529645347,0.60232684882,1.39658169707,0.026700800513997914,0.16292809242640519,Null
-0.7825145721391147,-1.29296875,-0.30236816406,0.03152329745430824,0.17708504627268895,0.5850454966183333,0.17565917968,0.83837890625,0.02749579449529797,0.16538617606166975,0.24022738138541666,-0.08068847656,0.44128417968,0.013642682795619893,0.11649732681937114,1.0266477237233853,0.35278476595,1.35687769129,0.030754442256595366,0.17491215758157655,Null
-0.8235228003485976,-1.12255859375,-0.69189453125,0.0075097473816100645,0.08639419100286357,0.5352046315223781,0.42443847656,0.67370605468,0.004057008360566778,0.06350016145420154,0.24557420683743905,-0.22119140625,0.47827148437,0.021280361944165053,0.14543247106347146,1.0251965979940856,0.87587751936,1.30413085232,0.006599498048928116,0.08098924130504224,Null
-0.8972289364604972,-0.98522949218,-0.84838867187,0.000873000440471253,0.02946484742227288,0.41110313794530384,0.26586914062,0.52111816406,0.002106110362881067,0.04576542793447222,0.22241683032176798,0.095703125,0.44348144531,0.003322340111723627,0.057480297854944254,1.0144075573301106,0.94056585797,1.11541614287,0.0007428489009399312,0.027179859517033517,Null
-0.8951227678531999,-0.94970703125,-0.83081054687,0.0005319845431451733,0.022998796304808174,0.4446449497725142,0.37902832031,0.62255859375,0.0014243072457897187,0.037632012266717134,0.2057373046835429,0.17126464843,0.27648925781,0.0004824973728608013,0.02190297342864394,1.0213147663145143,0.97164242927,1.08653648926,0.0006263197308561949,0.02495477431205476,Null
-0.9094539866695295,-0.93566894531,-0.86401367187,0.00023744512094681913,0.015363866210731256,0.46423914291982354,0.43371582031,0.48754882812,0.00013911085929841003,0.011759785717693432,0.22118063533723534,0.19165039062,0.24340820312,9.31348741021067e-05,0.009622215020540026,1.0448667770556472,0.99559539595,1.0754862642,0.0002673278256969155,0.01630200322276894,lift up
-0.8531853569839445,-0.90661621093,-0.78784179687,0.0010416673710389466,0.03218509484355655,0.44609646266933334,0.36608886718,0.47644042968,0.00033199436763796055,0.018170029017159448,0.21772121852899998,0.19018554687,0.30676269531,0.0004522344304549361,0.021206650300139546,0.9875249138541666,0.92017982089,1.04035213576,0.0009453853368462484,0.030661591545221384,lift up
-0.9150661193190721,-1.01000976562,-0.8388671875,0.0013739906343333262,0.03697172173950186,0.39749428660211344,0.28674316406,0.56176757812,0.0016815902131393137,0.04090137188836012,0.2174632278878866,-0.03881835937,0.369140625,0.005866870991890571,0.07639783628375603,1.0246139035312887,0.92154346582,1.15501263496,0.0016894832783206314,0.04099725114722031,Null
-0.9188469381854117,-1.16333007812,-0.71569824218,0.006627743994949331,0.08117116030689273,0.3723812327629411,0.2041015625,0.61340332031,0.007674144404503777,0.08734416052945343,0.1975916245375294,-0.03076171875,0.35656738281,0.009528988524936192,0.09732900724480907,1.0181953258280587,0.76418357545,1.31534512141,0.009011913429305919,0.09465147739913739,Null
-0.9298411722667511,-1.01257324218,-0.8759765625,0.0008660527361997466,0.029353986601771943,0.3452842441261421,0.23608398437,0.42260742187,0.0010697396376442103,0.03262375648510324,0.21778706971350256,0.0400390625,0.3125,0.003888217583510302,0.06219710956641266,1.0179740165357358,0.92671376355,1.06834264459,0.0007843522178757666,0.027935116511951328,Null
-0.8931023491716666,-1.16687011718,-0.78247070312,0.005011015880266696,0.07059162062988852,0.4107672797272777,0.12377929687,0.61694335937,0.012641158932564692,0.11212015997057899,0.2496297200487222,-0.07385253906,0.31286621093,0.009903384636594088,0.09923893305078131,1.0267959005255556,0.87247751432,1.17573865388,0.0017790968663645987,0.042062013680811756,Null
-0.8779412520522104,-1.07141113281,-0.59619140625,0.00801390679859608,0.08928453584894398,0.45909038342452624,0.30200195312,0.76110839843,0.009364962554958372,0.09651773556374667,0.15901007401047368,-0.1962890625,0.36315917968,0.018503851295528728,0.13567041904740926,1.0176071919249998,0.78892875708,1.19275844946,0.0065967118166974726,0.08100612495867283,Null
-0.4493803136468235,-1.24621582031,0.77563476562,0.3702622968744466,0.6066995000520607,0.5838766658967647,0.24133300781,1.51879882812,0.1258653638317698,0.3537300939115044,-0.017163803999294118,-0.68859863281,0.365234375,0.1291430864609863,0.3583063232019635,1.0567165013588822,0.63326822754,1.62483013622,0.04837671203980233,0.21929920917652793,Null
-0.9354490874876881,-1.07604980468,-0.78527832031,0.0012819660386123872,0.03570817480748929,0.41381114015978493,0.34326171875,0.54797363281,0.0013352130191746957,0.03644220704835915,0.09992898920225807,-0.09948730468,0.38256835937,0.007272924112205714,0.08505188045932302,1.031558588482043,0.95829735132,1.21070094105,0.0020251549170829616,0.04488058586316833,Null
-0.928481973179892,-0.93676757812,-0.91662597656,2.3412003185761343e-05,0.004825500162386243,0.4069975981801622,0.39428710937,0.43029785156,4.93052002924976e-05,0.007002762718836183,0.06296584670324325,0.0439453125,0.07531738281,3.921125176080042e-05,0.006244941877117823,1.015763500139946,1.00672598237,1.02679360457,2.6495737242087297e-05,0.005133470272708191,Null
-0.9158149806898276,-0.9326171875,-0.89611816406,0.00011788678205522847,0.01082632309759559,0.39831683279057467,0.37634277343,0.4326171875,0.00027499894680095473,0.016535370969038097,0.06562191316126438,0.05078125,0.07690429687,4.5934037730231866e-05,0.006757961897469113,1.0009385595884484,0.97784098288,1.02699632172,0.0002392865800804178,0.015424375833403132,lift up
-0.9365940403262702,-0.98107910156,-0.89086914062,0.0006234513930790682,0.024901433403499307,0.4018336940421081,0.38439941406,0.43200683593,0.0001605552429721909,0.012636747081189954,0.06502982474324324,0.04357910156,0.0810546875,6.511928438537472e-05,0.008047812637826621,1.0212885658157296,0.97304445202,1.07292414943,0.000725716322201093,0.026866215425144575,lift up
-0.9465796041173098,-0.97644042968,-0.92150878906,0.00026134412885915305,0.016118802704301913,0.401252255798538,0.34680175781,0.44165039062,0.0003306223552926721,0.018129779127905365,0.06509274487877192,0.04772949218,0.09167480468,9.491050677274845e-05,0.009713674617229004,1.0303169774789473,1.00384797398,1.07205220306,0.0003854251844039498,0.0195747601762357,lift up
-0.936552382003969,-0.95739746093,-0.92724609375,3.2170996512404284e-05,0.0056573109012563886,0.389148200906701,0.35412597656,0.40881347656,6.673042167657878e-05,0.008147788069827492,0.05619261436484536,0.04089355468,0.06579589843,3.343518585555631e-05,0.005767394518906543,1.015793040339227,1.00282301888,1.02474429877,2.055602791699449e-05,0.004522175252044735,Null
-0.9121475219688125,-1.06396484375,-0.73474121093,0.004593573499041085,0.0675637747959073,0.40431289672406245,0.20349121093,0.60717773437,0.007418781541799591,0.08586276350760755,0.16156768798512497,-0.13232421875,0.3798828125,0.017294658746062612,0.1310975481422125,1.022560397560375,0.82943397211,1.22334651535,0.005112167431959158,0.07127563668961094,Null
-0.8512897102163776,-1.04248046875,-0.73950195312,0.003707222847155546,0.060731445272396906,0.4806848642742347,0.33190917968,0.6455078125,0.006887469892916566,0.0827788000662107,0.2096626126004082,-0.04663085937,0.40087890625,0.017333146118043402,0.1313191216048668,1.0114145160647958,0.81761952644,1.227579321,0.004559811508277717,0.06735389494192395,Null
-0.8842057382555865,-1.14758300781,-0.60571289062,0.016237347933603406,0.12706941603955516,0.45484148589854745,0.27197265625,0.70727539062,0.012061029699808797,0.10951552239577694,0.22113343989743015,-0.12915039062,0.41979980468,0.020398055454897587,0.1424222589268655,1.031255388232402,0.6977925807,1.29524770581,0.02266388721341493,0.15012419298157081,Null
-0.8961648576210929,-1.54675292968,-0.080078125,0.06696806366825314,0.25807386145277855,0.4929886281126775,-0.32458496093,1.76635742187,0.09470670621275488,0.3069025630847448,0.21505987448475408,-0.34155273437,0.74035644531,0.032989392433705335,0.18113288638371558,1.096888679124481,0.53886882785,2.3969871721,0.08329077930163109,0.2878118107915837,Null
-0.8698195553857865,-1.32421875,-0.50476074218,0.0309014436402429,0.17529358238191858,0.4823615256284831,0.22509765625,0.73327636718,0.010746357509459674,0.10337303668976117,0.08652384897151685,-0.19946289062,0.43627929687,0.024575385847502244,0.15632441230360292,1.0144403684929215,0.6343955854,1.50094450083,0.03369626704437982,0.18304907039737728,stairs down 
-0.8976453279155264,-1.39440917968,-0.49731445312,0.0516112134160381,0.22658238115681134,0.5072066457608948,0.2578125,0.95581054687,0.02342731696768215,0.15265652720873482,0.04711592824863159,-0.16003417968,0.36218261718,0.013349834010342234,0.11523702411151233,1.0426432474902105,0.63928930086,1.72723940702,0.06641339203511706,0.2570288852765603,stairs down 
-0.8694002082515061,-1.35498046875,-0.56091308593,0.04596505836517963,0.2137478898684633,0.518881924176747,0.2578125,0.86633300781,0.028152007955355916,0.16727945942639313,0.07375694182873495,-0.15686035156,0.31201171875,0.012076360907273539,0.10956099554668865,1.0247167121854217,0.6694068152,1.55742773261,0.0665661099581112,0.25722579438250925,stairs down 
-0.86949908543709,-1.43542480468,-0.58447265625,0.038366747444238555,0.19535544215739786,0.49248524821857137,0.15307617187,0.84460449218,0.016211694585887792,0.1269878672317072,0.1287893466826455,-0.10546875,0.49304199218,0.019167015816925245,0.1380782496804805,1.0177648533987302,0.71537954543,1.67330502912,0.048184995060922664,0.21892932192172948,stairs down 
-0.9281853170914117,-1.45959472656,-0.59814453125,0.028576666971741747,0.1685484171706501,0.3937205595087059,0.15405273437,0.61499023437,0.017933876478465078,0.1335229683890202,0.15618465647688237,-0.09655761718,0.35192871093,0.014843191116825846,0.12147377588559327,1.0379161829584116,0.67809144433,1.54167091255,0.026594483269861975,0.16259780174707292,stairs down 
-0.9409034215071503,-1.09204101562,-0.85925292968,0.0013818106193959814,0.03707628593698371,0.3354068420058031,0.1669921875,0.49938964843,0.00522017306182802,0.07206334389278822,0.1540508369061658,-0.01477050781,0.36437988281,0.012342706551871767,0.11080954247921405,1.0193051578062176,0.92143999763,1.13622295408,0.0013994360693394634,0.03731199680062194,Null
-0.8834823415205062,-0.92395019531,-0.80639648437,0.0005646960631642964,0.023688014637112724,0.4490642306137341,0.39392089843,0.58483886718,0.0018096878303949103,0.042405590550649956,0.2578519024390506,0.18225097656,0.32739257812,0.0012409173130511625,0.03511500257733915,1.0257029934846837,0.99987386861,1.10812266275,0.00021448077188947936,0.014598743050333906,Null
-0.9244453274433673,-1.16137695312,-0.77453613281,0.010398810519737267,0.10171408635987604,0.3512498505220407,0.06701660156,0.59497070312,0.014356077501774684,0.11951080373086896,0.19231368084015305,-0.14916992187,0.44958496093,0.02000090114072152,0.14106330396931105,1.0243270501310715,0.83801924778,1.28754414811,0.01051987503572573,0.10230445837748617,Null
-0.8964878429028977,-1.03881835937,-0.77941894531,0.0034327259113159044,0.0584227848259546,0.4277718283872727,0.23107910156,0.568359375,0.005739104869717265,0.07554135502703896,0.1942957097790341,-0.0380859375,0.36145019531,0.012046511078195784,0.10944434655350735,1.0211379758214774,0.90092903969,1.20267769313,0.002821058650396235,0.05296253305936602,Null
-0.5236744214096237,-1.22338867187,-0.24621582031,0.09590328322485997,0.30884895041956023,0.7190184234253226,0.21533203125,0.97607421875,0.06467441768579754,0.25362709981931275,-0.15664771295215055,-0.42517089843,0.2724609375,0.05724700170564897,0.2386194085286994,1.0115811455258064,0.64492472573,1.30364151673,0.009167373875252821,0.09548867429666336,Null
-0.9446490399213637,-1.81652832031,-0.67065429687,0.026086176323290012,0.1609869111696475,0.3774564668694156,0.14196777343,0.68603515625,0.010710361410615148,0.10315431939210067,0.2138877967703896,-0.48059082031,0.50903320312,0.022287699093852732,0.1488051537248004,1.0527586055846754,0.74718671901,2.00034669761,0.031185577683612034,0.17602009525170628,Null
-0.9170357840366837,-0.94165039062,-0.89147949218,9.46606580936353e-05,0.009704519336491696,0.37717048488933674,0.34753417968,0.40185546875,0.00013062079489554781,0.011399752728394143,0.22316134705433674,0.20520019531,0.24096679687,8.138534965642773e-05,0.008998339751344668,1.016466643122449,0.99069776358,1.03807179826,0.00011444016900114093,0.01067034631995934,Null
-0.9123062398355491,-0.93420410156,-0.88330078125,0.00012364819402771167,0.011087536452362391,0.38338827673075143,0.37109375,0.42102050781,8.778179812250009e-05,0.009342076261987898,0.22267600704127172,0.19677734375,0.24389648437,9.21561853281975e-05,0.009572016016248497,1.0144040988035257,0.98620515566,1.04632259854,0.00016093602947734462,0.01264933845744518,Null
-0.927959685626649,-0.97705078125,-0.90087890625,0.00036094234321635925,0.018947887405603325,0.3898276471040425,0.37744140625,0.41271972656,6.80272917540376e-05,0.00822590082954284,0.21555409532414896,0.19567871093,0.24084472656,0.00010172599228253008,0.01005907036355247,1.0293756235035108,1.00023187243,1.08465913271,0.0004544564441149481,0.021261211691803887,lift up
-0.9301285282224516,-0.96520996093,-0.90100097656,0.000374018640291067,0.01927707490272625,0.39017609626593547,0.37231445312,0.41076660156,7.161574229695467e-05,0.008435265570797256,0.21939657887683872,0.20471191406,0.23510742187,7.039369974800729e-05,0.008362986718057566,1.0322675547494837,1.00246776875,1.07339636794,0.00045062547561880694,0.02115935288438147,lift up
-0.9165325164757293,-0.939453125,-0.89453125,7.684212494481209e-05,0.00874310617252575,0.38899612426322916,0.36828613281,0.40808105468,6.311564799314878e-05,0.007923819827573765,0.2091744740761979,0.1943359375,0.23388671875,7.205213628212611e-05,0.008466219034432669,1.017458211421875,0.9964594824,1.04224649345,9.398224882913837e-05,0.009669165318155438,lift up
-0.9161987304646384,-0.94750976562,-0.8974609375,0.00010261603376728681,0.010099399234071828,0.38457075371530114,0.37377929687,0.39904785156,5.442680353778108e-05,0.007355197565484732,0.21293548215975905,0.19873046875,0.22998046875,5.503970423354386e-05,0.007396495099045849,1.0162307308373493,0.992520802,1.0509483318,0.0001430663645521031,0.011924953626010967,lift up
-0.8943929469290958,-0.92565917968,-0.86083984375,0.0004543277729288848,0.021258201613467625,0.38202878261803186,0.36279296875,0.40112304687,8.585824393917664e-05,0.009241295967139357,0.20394118288388297,0.18933105468,0.22705078125,7.742328472041491e-05,0.008775617285288797,0.9937559169638297,0.95565801696,1.02949129762,0.0005431309824823119,0.023243106244532807,lift up
-0.9139372003106349,-0.96948242187,-0.85083007812,0.0006621252403038255,0.02566363053338459,0.3611175698538095,0.16711425781,0.44897460937,0.004526787432968439,0.06710317560823292,0.22944051752291006,-0.0185546875,0.333984375,0.004344132997412164,0.0657354407206495,1.0133683886611111,0.9114853973,1.08205946737,0.0009019437791248551,0.029952822735383657,Null
-0.9310339282337724,-1.22119140625,-0.72973632812,0.011346697883768641,0.10620147637892535,0.35819596158892214,0.037109375,0.61120605468,0.011085331937562613,0.104971199404425,0.23146943417431137,-0.12072753906,0.42065429687,0.014102095444150276,0.11839616446007008,1.0354308918351496,0.79904599005,1.32583803854,0.012982587707045842,0.11359950554864165,Null
-0.9356570512778462,-1.12475585937,-0.72045898437,0.007580775202911929,0.08684410994788642,0.31502842046871793,0.04956054687,0.57824707031,0.01335013910671096,0.11524615765777908,0.2350923978330256,-0.01806640625,0.46801757812,0.012209009805173985,0.11021070500854617,1.026796982598718,0.80061251095,1.22635743073,0.00866784161135472,0.0928622158983561,Null
-0.8218140397298159,-1.38159179687,-0.29577636718,0.06523519812049344,0.2546271434492087,0.5045697732901228,0.25927734375,1.07751464843,0.04425698151464849,0.20972712340236835,0.20247196127073624,-0.19250488281,0.50048828125,0.027962538660818288,0.16670629665336803,1.0412258285385274,0.63543302223,1.42352102183,0.023568671996897137,0.15304926957408707,Null
-0.9273014658469588,-0.98278808593,-0.86450195312,0.0009999894480052672,0.03154100288864853,0.34429994563087624,0.27331542968,0.41882324218,0.0008911740976722903,0.029775500277181805,0.2313956034519072,0.06091308593,0.35290527343,0.002681755558635299,0.05165202877307234,1.0173536415995876,0.96889893094,1.07954116773,0.0009189098362216233,0.030235297048008404,Null
-0.9233310275579445,-0.96704101562,-0.88647460937,0.00044642480901366786,0.02106999457014202,0.3574320475221667,0.30786132812,0.38842773437,0.00019720710772978071,0.014003982029652763,0.22584906683677777,0.17199707031,0.24865722656,0.00038266245582721265,0.019507346136643993,1.0159755160186668,0.98002149251,1.05886654312,0.00045889240774665146,0.021362186346003828,Null
-0.9084903922582035,-0.94250488281,-0.86804199218,0.0006502502434430508,0.025423542817838304,0.34218355281269464,0.3193359375,0.36145019531,0.00015410146308681178,0.01237653828155494,0.21801319236131736,0.19995117187,0.23950195312,8.396963976151004e-05,0.009136018145087568,0.9950264124037127,0.95232887319,1.03266296256,0.0007842655627712506,0.027920769362547525,lift down 
-0.8337743615554838,-1.21215820312,0.31457519531,0.10624322451804402,0.3250723371593261,0.45667094568715055,-0.00854492187,1.51647949218,0.08663784576090634,0.29355076373810385,0.10655097551,-0.48071289062,0.25512695312,0.041496910728738255,0.20315956550985642,1.03312525331457,0.31712384736,1.83622379911,0.0812882780594514,0.2843435322043454,lift down 
-0.9211365416765384,-1.04284667968,-0.69372558593,0.0027847924412851346,0.05262595732065533,0.3636320344656593,0.28283691406,0.81457519531,0.010568196939403689,0.1025189247078466,0.22296142577873623,-0.47009277343,0.37670898437,0.006252040314530326,0.07885232047739793,1.024187473976758,0.95394293287,1.24132528311,0.001282967168043226,0.03571999297157185,lift down 
-0.9368882612709091,-1.375,-0.44787597656,0.014746804405800992,0.12109093997654984,0.3631293556868182,0.32287597656,0.70227050781,0.007813773027007852,0.08814406723855213,0.2354646162522159,0.17492675781,0.6416015625,0.004841567110994892,0.06938341449478505,1.0418362702723865,0.88798322719,1.44982573555,0.006929135147684052,0.08300460867697447,lift down 
-0.2016386144292353,-1.0576171875,0.48974609375,0.2169464192341036,0.46440312641803366,0.7543227251802352,0.18469238281,1.42834472656,0.09583204730525753,0.30865568094550355,0.2633860868550588,-0.51965332031,1.17822265625,0.1962493079817168,0.441695483662338,1.0631662982999412,0.55828418023,1.5165493054,0.05565024947325541,0.23520819514759517,lift down 
-0.6283509627606522,-1.50903320312,0.38061523437,0.2374816349245323,0.48599482905187363,0.5648080576996195,-0.53820800781,1.5224609375,0.1701589493329613,0.4113808119424296,0.26457347040331525,-0.65710449218,1.50939941406,0.2246773823995392,0.47271165594800696,1.1187474915844022,0.47364879463,2.62170843259,0.16199812632809357,0.401394695690519,Null
-0.8796172089593957,-1.00939941406,-0.63989257812,0.004755179392571055,0.06876810331302743,0.356308486431923,0.21569824218,0.55676269531,0.0046674636632356385,0.0681308906333433,0.3093073918224176,0.08911132812,0.54125976562,0.01114112827758945,0.10526116704204473,1.0060339887743406,0.75854323245,1.15522031428,0.004725596261384623,0.068553858000565,Null
-0.9047324440657953,-1.09533691406,-0.74475097656,0.004292486836413161,0.0653306796739542,0.3538360595663068,0.16967773437,0.47778320312,0.0043124033085047515,0.06548206637682685,0.2882177179467613,0.08129882812,0.43395996093,0.009326089525589946,0.0962969385835198,1.0193054305019886,0.83215293531,1.27136186516,0.005688062324203933,0.07520467929770697,Null
-0.8987999664455829,-0.96960449218,-0.82897949218,0.0008582055979458723,0.029205145658390396,0.3730813242868098,0.31994628906,0.45739746093,0.0009062331600111206,0.030011222023986553,0.3012425709320859,0.25622558593,0.39025878906,0.0008312850131952878,0.028743435861755897,1.0197377922001227,0.96822375186,1.08417409662,0.0004958168216937978,0.0221985360035704,Null
-0.8602204499397353,-1.09228515625,-0.58459472656,0.013769367667293074,0.11703210615088336,0.369988012562328,0.06201171875,0.64758300781,0.015495638767997968,0.12415172677530097,0.3650296327261904,0.01525878906,0.81005859375,0.03575351194768066,0.18858509995965606,1.0310651965556614,0.75408053977,1.24979891351,0.011758263243845154,0.10814827881574877,Null
-0.8636767850867039,-1.16662597656,-0.64904785156,0.014360783698638621,0.11950127972848988,0.41726633423201115,0.27966308593,0.60803222656,0.005210498174995123,0.07198186748510485,0.28891928901586594,-0.17761230468,0.60205078125,0.03231788783498204,0.1792689068845145,1.018620758618771,0.71852022105,1.31934548126,0.01763268113654276,0.13241667016661682,stairs up
-0.8692137065653948,-1.22387695312,-0.66174316406,0.018524624902539574,0.1356567446546099,0.3598030491842763,0.07177734375,0.57946777343,0.016742210513809606,0.128965361209932,0.2053808914969737,-0.29895019531,0.49450683593,0.044628354091069036,0.21055817841718863,0.9923219308442764,0.7354009442,1.32326662385,0.019705069110058794,0.13991222426040056,stairs up
-0.8902271870998478,-1.2099609375,-0.701171875,0.021504771481167195,0.14627238360200823,0.43309927228416234,0.13049316406,0.92199707031,0.03079516102266869,0.17503953955703958,0.18966380472482233,-0.4150390625,0.55590820312,0.05641330665954064,0.23691125911784322,1.0458373073616245,0.78990344756,1.5463089437,0.029566679008328142,0.1715126652562756,stairs up
-0.8601067243266285,-1.21325683593,-0.65161132812,0.023827485739585295,0.15391987746297173,0.4241413225401142,0.22448730468,0.7724609375,0.016319103710073907,0.12738073515596257,0.1682554408463429,-0.29748535156,0.51525878906,0.047918727490614675,0.21827713162552853,1.0043456824511428,0.71660384819,1.37047574387,0.029731425881253458,0.17193467369636314,stairs up
-0.8782243626057527,-1.18884277343,-0.68444824218,0.016361660500070534,0.1275683917881051,0.4084925497691935,0.16040039062,0.69006347656,0.015162522358263522,0.12280473696422912,0.19647479313500002,-0.28466796875,0.53332519531,0.05026445085930315,0.2235938547370849,1.0188785937940323,0.78256805814,1.30402174541,0.020089869670784945,0.14135720575475266,stairs up
-0.880319902970258,-1.14416503906,-0.71325683593,0.011230257786418141,0.10563050937289252,0.4254607169824516,0.1884765625,0.64587402343,0.009793196627764615,0.09864083694919211,0.2663062310959355,-0.04321289062,0.55187988281,0.022709609987840322,0.150210174006342,1.026188539548258,0.78365574455,1.28243097679,0.01739921186135899,0.13147988013992212,stairs up
-0.8729532666732643,-1.05810546875,-0.72827148437,0.007521809273458444,0.08650338819037447,0.43218077031663216,0.25073242187,0.63122558593,0.008373215884650351,0.09126790972947674,0.2517266940534715,0.02380371093,0.46276855468,0.01330191781243889,0.11503475978367769,1.014894213760881,0.78959944368,1.19744981154,0.01128783707872761,0.10596863156730466,stairs up
-0.8825448019427486,-1.09069824218,-0.71765136718,0.008245919086595332,0.090541136162249,0.4236589398259649,0.13122558593,0.64807128906,0.009972330623385262,0.09956913628450076,0.25845711690988304,-0.0478515625,0.47814941406,0.018726460769495527,0.13644394197987408,1.024232521454386,0.76585098746,1.26085150589,0.012924288182709198,0.11335213959190084,stairs up
-0.8970186722798429,-1.17004394531,-0.62939453125,0.01330008874269379,0.1150237139472507,0.3888469915706282,0.17919921875,0.65612792968,0.011754721162441644,0.10813499951313796,0.22817114385345547,-0.20971679687,0.55639648437,0.02787068485748662,0.1665075525058213,1.0213728917875915,0.68484350132,1.34355994477,0.01744369425722151,0.13172837968728343,stairs up
-0.8951447116303823,-1.18408203125,-0.68347167968,0.014474128100672208,0.11992471055600598,0.366076426897707,0.17724609375,0.61340332031,0.012341738164558809,0.11073901014246208,0.28948469222407647,-0.13537597656,0.58715820312,0.029343333856902378,0.17075255090701666,1.0271679291146498,0.78087273071,1.3243420805,0.01995201865179803,0.14080105017523484,stairs up
-0.9205020371265055,-1.39929199218,-0.669921875,0.03166754782387401,0.17747476493972972,0.32469849945043017,-0.29211425781,0.64611816406,0.03595284562550604,0.18910195862695792,0.29363488637956986,-0.12976074218,0.84680175781,0.05091748625449865,0.2250416324336437,1.062129935628871,0.77423678626,1.42965979106,0.03059719204308888,0.17444968045427642,stairs up
-0.8420922995986391,-1.19006347656,-0.3798828125,0.04071941148413907,0.2011926147275772,0.39435211723029584,0.07653808593,0.9775390625,0.03714382436242518,0.19215628644270852,0.26886889214798815,-0.17517089843,0.63562011718,0.04686087363830294,0.21583232001333036,1.002623918052426,0.45313330346,1.41482722432,0.05598616963726207,0.23591288758137485,stairs up
-0.8564661846217099,-1.19604492187,-0.63195800781,0.024143609634068003,0.1549790734618502,0.4328012416976684,0.21826171875,0.77197265625,0.020611254206411037,0.14319378528122437,0.25017772931253884,-0.18676757812,0.55078125,0.03549681540784362,0.1879172532911412,1.0170459182926426,0.71547088837,1.3593680831,0.029044091506128116,0.16998118715131677,stairs up
-0.8368093231537036,-1.12316894531,-0.65502929687,0.01579881618979077,0.1253047989227215,0.40383044583975314,0.173828125,0.68615722656,0.01768827991884344,0.13258617200056785,0.300689320502716,-0.09057617187,0.61254882812,0.03727677447056026,0.19247511767614456,1.002578767651358,0.78765521752,1.29971680605,0.0190232383882565,0.13749840359363497,stairs up
-0.9086976841481142,-1.16284179687,-0.71862792968,0.015809445934132357,0.12537585988969396,0.35203194754085715,0.1552734375,0.61572265625,0.011673211780344504,0.1077335032059584,0.2990122767818857,-0.03735351562,0.60913085937,0.022753169801493698,0.1504099454435853,1.0345143318045142,0.82239131918,1.33187641575,0.018903196132448112,0.13709550637724827,stairs up
-0.8920693850348045,-1.08776855468,-0.74694824218,0.007919577983900961,0.08874308159781771,0.3715997621296647,0.19226074218,0.54223632812,0.0051232970015469195,0.07137699370657577,0.2916846248650838,-0.02221679687,0.50769042968,0.02446234248666975,0.15596692391484582,1.022632283936704,0.79341625871,1.25208600747,0.010531831330151798,0.10233764841745505,stairs up
-0.919921218704301,-1.16540527343,-0.77453613281,0.009491104450869443,0.09716005870513458,0.33405394194822574,0.10107421875,0.50708007812,0.005421286305137708,0.07343118958979522,0.3268235729546236,0.05993652343,0.53759765625,0.0143271938903025,0.11937405901686132,1.0415842883780644,0.86851833225,1.26535761916,0.008893097728888832,0.09404937732652838,stairs up
-0.8810410610426743,-1.15026855468,-0.64086914062,0.014533551549393396,0.12020421854770473,0.4082989359980232,0.10498046875,0.64465332031,0.010806427977896115,0.10365133818845362,0.2325219442648256,-0.25134277343,0.62487792968,0.032702336308412745,0.18031141518538013,1.0187073010132557,0.77092460895,1.32534142674,0.017047234146807245,0.1301849542780283,stairs up
-0.8654465292826203,-1.14392089843,-0.61889648437,0.01367296728386359,0.11661839396835032,0.34318795433262034,0.14916992187,0.56555175781,0.014128807949509117,0.11854641633885214,0.3453493169244919,0.06164550781,0.64001464843,0.017105818681618038,0.1304390421438542,1.00653254642369,0.6740732604,1.37011611623,0.017696128797902444,0.13267063387615521,stairs up
-0.8814162756526035,-1.19311523437,-0.71411132812,0.017707443627562904,0.13267503855141233,0.3947132720010059,0.14233398437,0.65246582031,0.015464739983747486,0.12398884081466988,0.23895660941869823,-0.15209960937,0.52978515625,0.038391287843476736,0.19535639344487174,1.0179431856386392,0.76368011899,1.31494712332,0.0248723426632225,0.15724238944380212,stairs up
-0.8693121494350768,-1.15759277343,-0.65881347656,0.018579731358736837,0.13595753265303945,0.384208483569641,0.18359375,0.61633300781,0.012684419132828842,0.11233597299878417,0.27358774038215383,-0.10607910156,0.65600585937,0.030687232193140093,0.17472796505321295,1.0093409402437434,0.74081895035,1.35576077923,0.021142998961479458,0.1450330077112778,stairs up
-0.8821315165553459,-1.22082519531,-0.69750976562,0.016976676105006243,0.12988419671836915,0.413988797166415,0.11486816406,0.77038574218,0.02134052881320714,0.145623870470675,0.26290029849314467,-0.09936523437,0.53771972656,0.03062410903846285,0.17444627992336623,1.0313968587932076,0.75457163093,1.3362593291,0.023535566516834586,0.15292986655951513,stairs up
-0.8605268429449743,-1.18444824218,-0.640625,0.017258807398241767,0.13103549402217476,0.4149539262783077,0.17565917968,0.63830566406,0.009319899864763736,0.09629177278710209,0.2595602964706667,-0.11120605468,0.50903320312,0.022962388018307793,0.15114440837264365,1.0047903312973847,0.70652951304,1.32237471408,0.019849979148745235,0.1405282334048211,stairs up
-0.8995115784358045,-1.14196777343,-0.73742675781,0.009578676234045416,0.09758906890954212,0.4216610261724137,0.22705078125,0.68859863281,0.008964221633756205,0.0944071137077057,0.23763441765068963,-0.04089355468,0.43273925781,0.015329908468376239,0.12345770752020382,1.0308818598532183,0.80133232135,1.32423293969,0.014432890894912264,0.1197912486206356,stairs up
-0.8888481262494117,-1.1826171875,-0.68469238281,0.01113262132945824,0.10522874414852679,0.4262884619373797,0.18774414062,0.75244140625,0.011853746228888662,0.10858341130956366,0.2458150119033155,-0.08264160156,0.41906738281,0.015279530195229006,0.12327944466782555,1.0259399115714973,0.76339445416,1.35724967028,0.017179060395641703,0.13071799326225111,stairs up
-0.8782643964172258,-1.09399414062,-0.68859863281,0.009106068223902357,0.09511739797035752,0.44804529989516123,0.27087402343,0.708984375,0.009922434832262766,0.09928957207918424,0.2476633379503871,-0.04455566406,0.47131347656,0.014586441013380795,0.12038411416099187,1.0256959572554194,0.79114240407,1.27342383839,0.01420676226705722,0.11880701046782556,stairs up
-0.870708564399171,-1.15209960937,-0.65405273437,0.019847382740103895,0.14051528941756963,0.43337554140678763,0.14672851562,0.76037597656,0.02000960492618054,0.14108837023907558,0.22916582334575128,-0.20861816406,0.54907226562,0.035653189788759025,0.1883307150611641,1.0248415848081347,0.74602291509,1.27889859937,0.02340466535418664,0.15258898275449298,stairs up
-0.8815889580265117,-1.16784667968,-0.6728515625,0.018648398018927866,0.13616158452446553,0.4401422544925581,0.10913085937,0.84069824218,0.02616842442837389,0.1612956367230166,0.2568749716091279,-0.16662597656,0.53454589843,0.03361309632587276,0.18280500908682445,1.044319285981163,0.80516902626,1.42398160988,0.02497463335055377,0.1575735764456227,stairs up
-0.8721101459662105,-1.16333007812,-0.6552734375,0.021775107674658144,0.14717507209032216,0.4332641601525789,0.20874023437,0.68090820312,0.016132860421898872,0.12668050611757387,0.24188168174031577,-0.12817382812,0.49011230468,0.028935823134889554,0.169657093364576,1.0247054129365265,0.74506376982,1.31019838364,0.02276486594302993,0.15048272611538924,stairs up
-0.8520359137081411,-1.15063476562,-0.6552734375,0.018259998741266544,0.13469575890607716,0.4493619478626923,0.21496582031,0.91638183593,0.01780779345636675,0.13301744597687384,0.2128961025117949,-0.14672851562,0.48083496093,0.035475222206649254,0.18774401970793586,1.0102011313999362,0.74358608579,1.40910496186,0.02394769925107145,0.15425364941691455,stairs up
-0.8659784226156084,-1.177734375,-0.66809082031,0.016799870980395953,0.12927096647797784,0.40527731274497353,0.2021484375,0.71716308593,0.010297941226959642,0.1012099538851853,0.24887746982126988,-0.14013671875,0.50427246093,0.026776896492439202,0.16320300178434527,1.0050295316081483,0.72680840381,1.33185078357,0.019717949347820184,0.1400486400272887,stairs up
-0.9118454984530538,-1.15161132812,-0.73205566406,0.010227480623549988,0.10082776514733714,0.42088820405640703,0.19812011718,0.66638183593,0.008305864774558686,0.09086324370913554,0.23861091293646705,0.00170898437,0.43420410156,0.014472287195741387,0.11994009668735338,1.0419421786886227,0.82850780276,1.30764886705,0.012785310225517856,0.11273309843010827,stairs up
-0.8909550880863775,-1.08349609375,-0.71960449218,0.00787458074680642,0.08851217043110374,0.417319161547806,0.19116210937,0.63647460937,0.008970126337714221,0.09446883288689237,0.2362882653032143,-0.05114746093,0.46765136718,0.01849979185887661,0.13566652190470233,1.0231062101640815,0.80107480692,1.26385575715,0.01226884464062179,0.11048189215657093,stairs up
-0.8786834716764375,-1.04858398437,-0.71020507812,0.007431454169286488,0.0859360668213786,0.4223854064905625,0.17602539062,0.7021484375,0.011403693319289032,0.1064538408703203,0.26446456908862503,-0.00024414062,0.49475097656,0.01646589295585055,0.1279178686692226,1.0216088982745,0.79937375747,1.25602954761,0.011905661609415247,0.10877155521714489,stairs up
-0.9260084364104444,-1.36901855468,-0.28442382812,0.048922370393311064,0.2205687635334649,0.40659654405050005,0.10510253906,1.31311035156,0.06338028704059263,0.251054126305089,0.2587951660126111,-0.14929199218,0.7734375,0.03724604982772389,0.19245552039024752,1.0821011009089445,0.54011074369,1.77940625839,0.06793984399028034,0.25992768304387387,stairs up
-1.0515569196394285,-1.57995605468,-0.59814453125,0.05973401940026948,0.24370613891848036,0.1287834821396,-0.39001464843,0.41479492187,0.019560943816832058,0.13946027031029873,0.08571568080154286,-0.37756347656,0.25903320312,0.02247849724591536,0.1494993267216425,1.0826012632958857,0.62141923353,1.63544777569,0.059209058465918,0.2426328934604084,stairs up
-0.9744898611305236,-1.3955078125,-0.57043457031,0.052755517702094724,0.2290836327700669,0.2774562336355497,-0.01379394531,0.61499023437,0.020033632440259533,0.1411692045465301,0.07970360560947645,-0.27001953125,0.54040527343,0.023952311285630683,0.15435966608703752,1.0377746428940313,0.65054535958,1.40619007088,0.052498730433713094,0.2285254208413352,stairs up
-1.0157566879696365,-1.46826171875,-0.65686035156,0.05382664719551791,0.2313015890375651,0.21253995028084852,-0.01379394531,0.50500488281,0.007968153561685218,0.08899360494955483,0.09119910037618183,-0.03930664062,0.25158691406,0.005348093739252464,0.0729087172423412,1.046240477057818,0.66428697943,1.57293305062,0.057718798457750985,0.23951824055383975,stairs up
-0.9951245411291565,-1.46203613281,-0.65075683593,0.03501746883877852,0.18656505629757145,0.17712328807144578,-0.17272949218,0.48193359375,0.018077313447267235,0.1340463127753585,0.07079783979451808,-0.05310058593,0.22338867187,0.004874896994138205,0.06960984229816877,1.0246224453516264,0.6838351668,1.46757831405,0.034635803901633865,0.18554555904289297,stairs up
-1.0171108450898925,-1.42553710937,-0.67956542968,0.028451123309658266,0.1682205703269125,0.1998691353712903,-0.07336425781,0.708984375,0.018295490982796828,0.13489673134679953,0.05934848580091399,-0.40795898437,0.24877929687,0.018125479106538892,0.13426850075180755,1.0549913507550537,0.70629347988,1.43817295514,0.029660418391375475,0.17175841690108837,Null
-0.9110310872358333,-1.36303710937,-0.54064941406,0.020165978280354588,0.14161195241816968,0.3537333170541111,0.10327148437,0.56567382812,0.00953380992868055,0.09736962728677592,0.2114217122372222,-0.39831542968,0.62939453125,0.05200963145106651,0.2274218306454245,1.0315489334777221,0.72102332303,1.49054922675,0.017061102092805012,0.13025482022669804,Null
-0.890397505323466,-1.00598144531,-0.78564453125,0.0029497130196022704,0.05415674737774,0.4216051968621591,0.27966308593,0.62231445312,0.006600949527608773,0.08101508583322949,0.22092299027511364,-0.02563476562,0.45129394531,0.016867079738078494,0.1295038380039314,1.0214140726303411,0.90004617718,1.10590546005,0.0023599697699547015,0.04844131347111917,Null
-0.8630918032125324,-0.97277832031,-0.81945800781,0.001219210679650467,0.03480364531461042,0.45886230468396094,0.36254882812,0.5458984375,0.001796181100720386,0.04224355083417284,0.29718413909883123,0.15661621093,0.37536621093,0.0026404604742125705,0.05121830363236783,1.0241324514071428,0.99719361561,1.07651258914,0.000225059334554612,0.014953190639601214,Null
-0.8842452199791578,-0.96179199218,-0.83471679687,0.0004415071233004086,0.020956703023109993,0.4289730674303157,0.36340332031,0.48986816406,0.0006449301306941087,0.025328556247547793,0.25686998868857897,0.05163574218,0.32275390625,0.003041944823516453,0.055008495594800706,1.0177068043864208,0.93336463255,1.06019107196,0.00027063115898124735,0.01640752219136983,Null
-0.8875070594844578,-0.9013671875,-0.87353515625,4.2668003461297606e-05,0.006512370328526173,0.41959757976813244,0.39880371093,0.45153808593,0.00011786578529311603,0.01082385099869509,0.2732823383342771,0.24462890625,0.29541015625,0.00020219474138687208,0.014176625154673017,1.0191903744251807,1.00951090095,1.02765428179,2.5825702197686852e-05,0.005066569419086615,Null
-0.8780473981545919,-0.88781738281,-0.86669921875,2.1683768583580554e-05,0.0046446891296636145,0.42791810327229596,0.41003417968,0.44128417968,4.330896374542119e-05,0.0065641450048486314,0.28315516880173464,0.2705078125,0.29870605468,4.1735076747350614e-05,0.006443767739631303,1.017022839848163,1.00167186871,1.03110686667,2.8859885647758716e-05,0.005358417801294459,Null
-0.8822158813443124,-0.89172363281,-0.8681640625,2.6715624162753174e-05,0.005152538356163491,0.42587127685131254,0.39587402343,0.44934082031,9.826209702186868e-05,0.009881698179740262,0.2801872253390625,0.26452636718,0.29748535156,7.652591550460918e-05,0.008720529142930799,1.01899987116425,1.01006568715,1.02577494367,1.569186572059083e-05,0.003948897511943952,Null
-0.5937832262372782,-0.97412109375,0.46655273437,0.1968589188665086,0.44237322838610194,0.6023382604433728,0.41784667968,1.23327636718,0.06039178980762127,0.2450192685054323,0.19304372572828404,-0.19262695312,0.62451171875,0.03619557574699928,0.18968763993096432,1.01271614514787,0.49310346174,1.33514185965,0.018883441369263784,0.13700987201585396,Null
0.15866752292429348,0.01049804687,0.322265625,0.005301649205354224,0.07261429538634634,0.7988692573835869,0.22802734375,1.21704101562,0.05731906437387468,0.23876253416243687,0.5026324728228261,0.20495605468,0.89855957031,0.05880340438874484,0.2418342834861112,1.0034051686227718,0.4276426905,1.40484195789,0.030112804369605915,0.17305822090879971,Null
0.15549900220402174,-0.00915527343,0.25256347656,0.005494226013548397,0.07392135070168646,0.6933368185257608,0.24230957031,0.89599609375,0.015456832962972403,0.1239872107759495,0.712186066996902,0.35729980468,1.06945800781,0.015056801657783104,0.12237226488870263,1.0184883734773913,0.44937857396,1.36994449019,0.01065639163855612,0.10294890221176449,Null
-0.0813002232126286,-0.53479003906,0.14331054687,0.018790600968952433,0.1366865981223935,0.8749239676299427,0.6376953125,1.09655761718,0.004524649483389887,0.06707305228990851,0.4842041015588571,0.07763671875,0.67065429687,0.02710410353079694,0.1641621848636049,1.0266682084199998,0.9036319257,1.18332536254,0.002654086814838855,0.05137042538726293,Null
-0.8440934146698794,-1.02368164062,-0.53479003906,0.010585114378808467,0.10257362540896435,0.4511748164489156,0.34289550781,1.04553222656,0.018221615833307545,0.13458026253216843,0.32606965949373495,0.12023925781,0.48657226562,0.0037543875348165848,0.0610882209794832,1.0252827519462049,0.89570268613,1.2083601195,0.003555494167988092,0.05944809104102417,Null
-0.9043882645354011,-1.07690429687,-0.87707519531,0.0009751559575131689,0.03114387933081646,0.3909572662478609,0.37573242187,0.48510742187,0.00015592395139141823,0.012453518919146466,0.2864820510909091,0.26000976562,0.345703125,0.00025079346353942746,0.01579405970683832,1.0261952070420324,1.00031038772,1.20826773903,0.0011416685568259926,0.03369812127371087,Null
-0.735077072898398,-1.013671875,0.16333007812,0.057622220434216456,0.23938225837598667,0.49702377740475134,0.24853515625,1.06433105468,0.04571201475924872,0.21321224681410322,0.37131226260011047,0.02099609375,0.7177734375,0.0234651664911888,0.15275969588661165,1.01790410438453,0.72906041165,1.37643425546,0.015298342778157606,0.12334432109886152,Null
-0.9358606715628247,-1.05993652343,-0.87707519531,0.0014274141807867958,0.03767425770854278,0.2998529638916949,0.15368652343,0.44702148437,0.005822471623801567,0.07608926536570769,0.2532014146320339,0.06457519531,0.36352539062,0.00952057023614191,0.09729738795946337,1.022376515187175,0.95930295418,1.11590933876,0.0012871940818815987,0.03577599473016949,Null
-0.9137533087440133,-0.98767089843,-0.83679199218,0.001048600025884625,0.0322753983941919,0.3336053145513158,0.26574707031,0.43298339843,0.0015126155223553043,0.03876421164482869,0.2726665296016447,0.05432128906,0.38354492187,0.01082820142768662,0.10371578115407128,1.0165695782999342,0.96009779892,1.06855498062,0.0004754003192889936,0.021731835762527307,Null
-0.9005671574477436,-0.90795898437,-0.89440917968,1.0157997509561079e-05,0.0031789786433130142,0.34227827022851276,0.32250976562,0.35803222656,7.112880185586118e-05,0.008412136397457002,0.3206117287622051,0.30944824218,0.34240722656,5.349365454749804e-05,0.007295157853941279,1.015423881608,1.00461860349,1.02416865606,1.6012012414804765e-05,0.003991227822440894,Null
-0.9001729910682286,-0.91223144531,-0.88232421875,3.093564548987653e-05,0.005546068010112346,0.3591378348175999,0.34460449218,0.388671875,8.705647415467521e-05,0.009303709399378137,0.31249162946005715,0.29870605468,0.32885742187,7.536143896569258e-05,0.00865625797741743,1.0183798844213714,0.99671055265,1.0352735201,3.7289499184220864e-05,0.006089040674173527,Null
-0.825338384153387,-2.13500976562,0.16162109375,0.15628909343741867,0.3942699956808871,0.4240702967446774,0.03295898437,1.17004394531,0.0581311590728821,0.24045503937240956,0.06167438465892474,-0.79956054687,0.43542480468,0.09908625447784193,0.3139323695950674,1.0321265328046774,0.23827974913,2.16238506664,0.11196054146976439,0.33370436478231097,Null
-0.8090627919030436,-1.19128417968,-0.45825195312,0.021702995426379157,0.14691849565074938,0.4758373758024457,0.12585449218,0.80810546875,0.018025058731371973,0.133892107518173,0.25491863747961957,-0.06762695312,0.51196289062,0.023705467838316504,0.15354684553574466,0.9917521139227716,0.71381342485,1.44836608912,0.025643205561607423,0.15969921826355316,stairs down
-0.8587156783668605,-1.31384277343,-0.45397949218,0.04190282038412521,0.20410585326094963,0.5473242471344185,0.29284667968,0.91577148437,0.020429286466314697,0.1425149520050402,0.20000014193918603,0.044921875,0.46630859375,0.01301381073157465,0.1137459847259445,1.050730030036337,0.68251189591,1.53871246656,0.048110480548573226,0.21870246558363393,stairs down
-1.044371922807552,-1.70178222656,-0.59533691406,0.10867457832934917,0.3287986692499689,0.19112269083354164,0.01196289062,0.34033203125,0.007296768781136156,0.08519838482663705,0.053332646687187506,-0.09631347656,0.33154296875,0.010239707948791704,0.1009275786718299,1.0717582874603124,0.64311565653,1.71032235657,0.10753291363410539,0.3270670365163607,stairs down
-0.7165698539879878,-1.61547851562,-0.15698242187,0.16309699121586396,0.402619544194003,0.5272916468137195,0.06591796875,1.41870117187,0.14297857680560502,0.3769704978049701,0.2215762254644512,-0.1201171875,0.70227050781,0.05234252137462231,0.2280862987093337,1.047761944784817,0.45491504612,1.66461410245,0.09963994105475424,0.3146941061389087,stairs down
-0.8048465044037949,-1.93542480468,0.19360351562,0.2408972056211996,0.48955268902944726,0.5147298177050769,0.03247070312,1.50219726562,0.10946365156555801,0.33000348408198277,0.21998447515805125,-0.19384765625,0.6669921875,0.055168515590483705,0.23427675967948064,1.1039587020138462,0.48999826284,2.20465810338,0.1465945362645085,0.38189366244004364,stairs down
0.036611492713876426,-1.80285644531,0.99328613281,0.8890391871772739,0.9402364516450746,0.231208715542809,-0.06237792968,0.93310546875,0.04694037925030467,0.21604784019868478,-0.2740622531144382,-0.66967773437,0.17736816406,0.059233292222562274,0.24269429519035082,1.0216232480720786,0.39966351616,2.03026519524,0.07624404160964433,0.2753465167697434,stairs down
-1.0170251398104373,-1.32141113281,-0.77258300781,0.01985951943593356,0.14053824202615733,0.23383668992863393,0.13208007812,0.36218261718,0.004287014808630705,0.06529615990394098,0.011335195739562837,-0.09289550781,0.12060546875,0.0035943721596669305,0.059789052356976305,1.0471416549808197,0.78440006337,1.35096759602,0.02034305461373876,0.1422388497593987,stairs down
-1.0103502775463742,-1.38598632812,-0.78845214843,0.022964992455079377,0.15109829335100938,0.21156498423467837,0.09191894531,0.34704589843,0.004763127831072693,0.06881332198312308,0.03418325680543859,-0.083984375,0.13610839843,0.0035071750642380484,0.0590479912320542,1.0368679671238596,0.80104118408,1.40676925926,0.022826862919640256,0.15064319597382952,stairs down
-1.0182680876317391,-1.58630371093,-0.63415527343,0.05804901905896674,0.24027803740611256,0.21175550377570654,0.09887695312,0.34399414062,0.0058342129285145075,0.07617417705203772,0.015079664147336958,-0.17138671875,0.18090820312,0.007926822018089282,0.08879043565409028,1.0473611739345652,0.65423590532,1.61306006552,0.05670019447695339,0.237470084949874,stairs down
-1.0195992134674055,-1.62377929687,-0.658203125,0.05606833389063633,0.23614669554230863,0.23192237647416214,0.06896972656,0.43139648437,0.005239464621053528,0.07218824828647288,0.007933910472702702,-0.15759277343,0.15380859375,0.005059167175151588,0.07093532494854855,1.0502770612090269,0.69059339252,1.66269816404,0.05666611510451886,0.23740221519528745,stairs down
-1.006940974742035,-1.49255371093,-0.66589355468,0.06753396226730875,0.2591164274062938,0.23263053006511628,0.10485839843,0.39807128906,0.005408154198382478,0.07332606249768998,0.03083198015,-0.07299804687,0.18054199218,0.0038677251838410646,0.06200998636926481,1.039245649320756,0.73122765392,1.5212813843,0.06571149789557396,0.25559627208384283,stairs down
-1.0268527100957061,-1.64404296875,-0.65771484375,0.07569605653199389,0.27435086148152504,0.23155221022689262,0.05456542968,0.36279296875,0.005778665846252091,0.0758024934722615,-0.00777801686118644,-0.19177246093,0.14709472656,0.008553532025704498,0.09222367909605023,1.060416652390113,0.66844762401,1.68935723887,0.07355512102442309,0.27044325720734447,stairs down
-0.9882398702290397,-1.48168945312,-0.59594726562,0.04228688485743455,0.20505603113158546,0.20500295175299435,-0.11315917968,0.33374023437,0.006520107716422704,0.08051876147621281,-0.01181944076559322,-0.15405273437,0.14807128906,0.005253967199613647,0.07227920703153401,1.015982353812486,0.62105696947,1.50412015508,0.040548425030346696,0.20079675765131913,stairs down
-1.026962604924468,-1.35729980468,-0.77404785156,0.020390513283295365,0.14241507331127756,0.18983297144712769,0.10485839843,0.32055664062,0.0034784342081160074,0.05882118579643196,0.027397642743031917,-0.14025878906,0.15637207031,0.005020793455699512,0.07066885528668833,1.048615171583883,0.78949531166,1.39652952107,0.02069173625380441,0.14346314448987402,stairs down
-1.010682958113136,-1.26306152343,-0.8359375,0.013892914941310746,0.11751897014535519,0.17704095783692309,-0.01171875,0.30737304687,0.0040987203824725885,0.06383155645246597,0.052139914245621304,-0.09887695312,0.16052246093,0.0038249309158481563,0.061662777982632644,1.0311261591204732,0.8531179309,1.29074874751,0.014091814860252957,0.11835721921526293,stairs down
-0.9975618576582886,-1.37829589843,-0.72961425781,0.023691238644308818,0.1535074836239714,0.10078438335395723,-0.35925292968,0.28442382812,0.03165473859330769,0.17744143235540602,0.12573503300256683,-0.13134765625,0.72314453125,0.03940612060958818,0.19797826318030434,1.0468421309571658,0.76427003113,1.40587214055,0.019568047260280722,0.1395113088474264,stairs down
-0.8293131991917752,-1.28576660156,-0.58581542968,0.017620881666188002,0.1323503535854692,-0.14196777343467457,-0.44262695312,0.11413574218,0.016770978945516775,0.12911910154469394,0.5575211203268047,0.35290527343,0.79748535156,0.011826857776573805,0.10842913063200235,1.0231364329739052,0.68700145938,1.48657624007,0.017988546131321042,0.13372398823678674,stairs down
-1.0282239082494358,-1.458984375,-0.66125488281,0.05334805861409594,0.23037898955054764,0.03808531149579487,-1.23376464843,0.45190429687,0.10686650280568047,0.3260651306993114,0.06079414563117949,-0.53381347656,0.48608398437,0.0376054049197385,0.19342325788120948,1.0893849565666665,0.66775414438,1.73748857662,0.07281013125687064,0.26914075493758627,stairs down
-1.0436752319298126,-1.65588378906,-0.65112304687,0.06061883587254224,0.24543831841898456,0.22080993651956252,0.03894042968,0.40869140625,0.008725927451587293,0.09312030071372661,0.07408142089625,-0.21496582031,0.30065917968,0.010864967397903014,0.10390890891384684,1.0776508851014373,0.66439066239,1.67007305063,0.06226924727071201,0.24875703904667715,stairs down
-0.6610833418962632,-1.5615234375,-0.01513671875,0.18418471978683573,0.42803659484301076,0.4835346422663157,-0.294921875,1.2255859375,0.12017589724299194,0.3457504772529756,0.36175344366489465,-0.26721191406,1.10571289062,0.09793403267210778,0.31211951299924545,1.0636742427012107,0.62580012127,1.60468013449,0.07084979773589213,0.26547486522003916,stairs down
-0.27166245404058825,-0.64013671875,0.00537109375,0.016847684909885367,0.12941630840432627,0.8874669692052354,0.56311035156,1.41418457031,0.043050199143415575,0.20687426780019325,0.41231976676982346,0.15759277343,0.69653320312,0.015886674266344596,0.12567109150973604,1.0250024212267648,0.69155600914,1.6287737136,0.05644654220026217,0.23688500103791124,stairs down
-0.20595032686668394,-0.40539550781,-0.01379394531,0.0074923761760388825,0.08633397693892303,0.7772969458359585,0.52209472656,1.24963378906,0.03285748834637901,0.18079613461789174,0.6323077740412953,0.36657714843,1.03845214843,0.02583281761779439,0.16030897923025791,1.028938205873575,0.65949902746,1.57623659116,0.05382401635126477,0.23139821831104848,stairs down
-0.27889976018202534,-0.45373535156,-0.08776855468,0.007239158544018028,0.08481356663222385,0.7303374085210126,0.49853515625,0.94348144531,0.009188679476553337,0.09555377165415631,0.6663153925989872,0.53442382812,0.8759765625,0.008577011116610047,0.09231861262023587,1.034372608867342,0.86866628154,1.28930959934,0.010138070559058424,0.10036884753507973,stairs down
-0.6672311883181579,-1.47790527343,-0.08776855468,0.13856850506557736,0.3712670159658404,0.6289062499963156,0.10888671875,1.22131347656,0.08130613253210969,0.28439093782816427,0.3645552785738947,-0.123046875,0.97021484375,0.05658298531706858,0.23724497914853598,1.1032926452472107,0.84117934019,1.56187707881,0.031534976385910726,0.17711296628419074,stairs down
-0.766509461541377,-1.43151855468,-0.17687988281,0.11143225816870155,0.3328137604393052,0.4433769180350897,-0.29699707031,1.1396484375,0.11669952184929286,0.34058878771512896,0.224371082053473,-0.14599609375,0.7421875,0.05857130468705686,0.24128940779007532,1.0455083723251495,0.69740899799,1.45377188302,0.026519571535344653,0.16236000648494595,stairs down
-0.6149210192452575,-1.32873535156,-0.19519042968,0.06887881539845904,0.26177045279836453,0.6982340075274227,0.16845703125,1.22900390625,0.0714181783694729,0.26655214017040657,0.20811918592695874,-0.1669921875,0.55529785156,0.02798253664610016,0.166848124851558,0.9996253489448453,0.60384200816,1.75627121641,0.0775331118469215,0.27772910656108,stairs down
-0.8820194268336476,-1.45544433593,-0.55249023437,0.04061155754455102,0.20088837433669948,0.46408983146207544,0.01806640625,1.08874511718,0.04974477550151806,0.2223328929291347,0.19581690374018865,0.00329589843,0.43542480468,0.01165601273759023,0.10762297376201316,1.033323717424654,0.6337021943,1.63568828437,0.0657080124223833,0.25552838292960706,stairs down
-0.8617321511936957,-1.36499023437,-0.56860351562,0.0434603270405359,0.20790413562737942,0.46203613280885864,0.17407226562,0.95202636718,0.032251468935953174,0.17909826691923952,0.19902502971815217,-0.00952148437,0.54077148437,0.014301382991108376,0.11926297867967245,1.0089085647102174,0.63642739727,1.67091296048,0.0676658852160857,0.25941884249204283,stairs down
-0.888911781969653,-1.44311523437,-0.59020996093,0.0532538076292655,0.2300999394863886,0.46008159659144504,0.15539550781,0.92321777343,0.03560852224543812,0.18815603268851888,0.17835813312583818,-0.03186035156,0.45153808593,0.010774471637918163,0.10349971717371997,1.0280230660173408,0.7254863378,1.63643181682,0.07632146179789195,0.27546378578468167,stairs down
-0.9064922332723958,-1.31713867187,-0.5712890625,0.035926143766774624,0.1890476882552548,0.43722407022750004,-0.02954101562,0.77685546875,0.02916080843856329,0.17032007875745528,0.1557553609180208,-0.087890625,0.36938476562,0.009276265208405281,0.09606222632810206,1.0319920260446875,0.6841245171,1.53944003126,0.04636262821608542,0.2147583669944588,stairs down
-0.9352727399519428,-1.07543945312,-0.58605957031,0.006916135586639267,0.08292535686904502,0.31291573660337146,0.08605957031,0.57800292968,0.013935117731402847,0.11770933899747887,0.200419921872,-0.10632324218,0.63024902343,0.02053276299693228,0.14288258439244475,1.0239559099957714,0.87747902171,1.19097123255,0.005512833907611613,0.0740360182584674,Null
-0.11981540255955556,-0.58605957031,0.43078613281,0.05814746944948541,0.24046710368061536,0.5037807888432778,-0.18835449218,1.20690917968,0.19627259786889395,0.44179428985377356,0.6489230685743332,-0.45446777343,1.322265625,0.26464190545365956,0.5130026049111093,1.0798735291246666,0.82380353041,1.77463055278,0.03952299124041158,0.1982508992838462,Null
-0.27844434115978606,-1.30529785156,0.51184082031,0.40623763290892534,0.6356612613256011,0.5862893497203208,0.13488769531,1.00061035156,0.05560312407385928,0.2351718120106519,0.4116720107760963,-0.06713867187,1.00317382812,0.1073197411161032,0.3267198169030975,1.069025408805508,0.83766527858,1.41114505115,0.014117325296460929,0.11849823449443471,Null
-0.8520270852445295,-1.05688476562,-0.54272460937,0.018922075769766282,0.13715235849852833,0.4061982996283529,0.07214355468,0.9794921875,0.04440828959510658,0.21011202812355648,0.1690429687488823,-0.23400878906,0.59936523437,0.057102888045098284,0.23825823952941594,1.0136805445785293,0.68818069485,1.22073068206,0.011543208999370738,0.10712286296567448,Null
-0.9784602763448447,-1.15771484375,-0.85083007812,0.00387344731955429,0.06204344155953027,0.1560733392336646,0.03137207031,0.34191894531,0.004624402132066101,0.06779143852624013,0.235392505333913,0.095703125,0.34606933593,0.004172237393226688,0.06439194728579294,1.022716211577888,0.9180411858,1.20635526054,0.0038196972292779776,0.0616114632334514,Null
-0.9617101573379888,-1.26135253906,-0.69921875,0.014157104488249828,0.11865080917988603,0.17085274637324022,0.04968261718,0.27282714843,0.0031598794595847197,0.05605556619738975,0.2468336733990503,0.08874511718,0.37353515625,0.006195974678481271,0.07849433288335282,1.0112289104427372,0.74971794745,1.31775880485,0.015890415262697192,0.12570458222782965,stairs up
-0.9389424641888333,-1.23413085937,-0.66088867187,0.02079999970921752,0.14382087524166104,0.27950981987372225,0.11755371093,0.50219726562,0.008568676677187763,0.0923096577713841,0.2742865668368889,0.12072753906,0.41003417968,0.006700203542206747,0.08162707999919198,1.0230525937539998,0.74324498381,1.36383365162,0.024338915082703923,0.15557538008245397,stairs up
-0.9644474178127922,-1.21862792968,-0.70141601562,0.021131196113874012,0.14489299691390545,0.19849980341525975,0.07312011718,0.40234375,0.006783408776092756,0.08209360917365668,0.22201815518103896,0.05493164062,0.38684082031,0.007305155883962593,0.08519225203499439,1.0153069530422079,0.77573406387,1.29212607845,0.023146207091148643,0.15164401420795423,stairs up
-0.9492966110604866,-1.23413085937,-0.7275390625,0.023037314150421196,0.15136970677115844,0.16542704813767564,0.02917480468,0.33776855468,0.004436128255605264,0.06642401059822678,0.2715582770234054,0.13171386718,0.40063476562,0.005363920638412296,0.07304058099987469,1.0048023253175136,0.74594790845,1.29918126059,0.0254437464322014,0.15907926536070946,stairs up
-0.9688505284894118,-1.25061035156,-0.72497558593,0.016331736214922427,0.12741925748631586,0.20466739429747058,0.0849609375,0.322265625,0.0032411224204240722,0.056763165824516675,0.27020694507911763,0.13500976562,0.40490722656,0.005487219141875556,0.07385757498197097,1.0305433720987647,0.79319572958,1.32580897403,0.01694796802919071,0.12980090176731143,stairs up
-0.9548029924266322,-1.26086425781,-0.72595214843,0.01691312021259075,0.12971309673805206,0.1766793839019171,0.0361328125,0.33605957031,0.0059352571712326845,0.07684077396410362,0.23618897748917098,0.08630371093,0.35632324218,0.0045244745928413295,0.06708972886592472,1.0039160666735232,0.74397109696,1.30782899857,0.018127069573146543,0.13428755315691462,stairs up
-0.9437851140485184,-1.14514160156,-0.65612792968,0.011582234675399268,0.10728811397179651,0.28370195553253086,0.15344238281,0.53894042968,0.011207921607460408,0.10554021463963292,0.202039930551358,-0.0322265625,0.53991699218,0.014977345925519261,0.1220036604897271,1.0214828075785183,0.87046423433,1.19440976504,0.005582253471872821,0.07448352245368216,stairs up
-0.9577993539622564,-1.18908691406,-0.65173339843,0.010952781182147391,0.1043868433928385,0.23372270632717948,-0.16186523437,0.54650878906,0.019574649553334288,0.13955023015069543,0.24275090143835898,0.07299804687,0.48388671875,0.006550814545837359,0.08072930462409221,1.0280098183163588,0.83266587746,1.20957800322,0.011074612820553784,0.10496580364239838,stairs up
-0.9816221757333523,-1.15612792968,-0.88146972656,0.004280848804488552,0.06524205545441984,0.21426460959380683,0.09130859375,0.32678222656,0.004371322009700558,0.06592787690216681,0.17399389093267048,-0.00817871093,0.25549316406,0.0034870057827501143,0.05888287739142492,1.022406389245,0.9145125072,1.18171998064,0.004386186111104277,0.06603987128325862,stairs up
-0.981330500418919,-1.27160644531,-0.72680664062,0.021703757697833302,0.1469232455694327,0.16359401393281078,-0.01196289062,0.28491210937,0.00490026606277231,0.06981244973576473,0.21213708825632432,-0.0224609375,0.34448242187,0.004901220816674898,0.06981925043409846,1.0216008055896757,0.75502852678,1.30250774968,0.022563400966000943,0.14980466159787884,stairs up
-0.9905373446877711,-1.28649902343,-0.75012207031,0.02005735052757825,0.14119675320191152,0.16524275813783135,0.0634765625,0.3349609375,0.004837548983524842,0.06934267893713299,0.21298181004987954,-0.0693359375,0.30895996093,0.00596647979394676,0.07700998081148726,1.0316777002116264,0.77881015311,1.35237827378,0.020269346513728834,0.1419409807513608,stairs up
-0.9807973009434575,-1.26965332031,-0.7705078125,0.017681322800977433,0.13261701705139703,0.16638053731281918,0.07458496093,0.28247070312,0.004077849858123892,0.06368798291192139,0.1939710251793617,0.09020996093,0.32971191406,0.004653030536714248,0.06803146606008809,1.0167453184229787,0.79530692557,1.31211587416,0.019876986212161985,0.14061030389732215,stairs up
-0.9838330614656045,-1.2529296875,-0.75964355468,0.02295504196208255,0.1510924066850988,0.11994816706390111,-0.02172851562,0.26538085937,0.005779445589215007,0.07581352381778511,0.21145126845423076,0.11926269531,0.31176757812,0.003425273288200003,0.058364827638722666,1.0174480969613737,0.78130670341,1.2884979688,0.023940665512414087,0.15430205246273948,stairs up
-0.984576381528644,-1.20678710937,-0.751953125,0.013236955678760437,0.11472650355706156,0.17536262468790959,-0.00854492187,0.32238769531,0.004187504114643908,0.06452786916756927,0.18396340924768362,0.02014160156,0.36047363281,0.006702307684510338,0.08163603088955336,1.021725139863729,0.76779153395,1.24341798812,0.014133282825906897,0.11854717951260292,stairs up
-0.9635504038021473,-1.2958984375,-0.73205566406,0.012559884793587146,0.11172658719235556,0.23714067891650306,0.07263183593,0.3447265625,0.0042118401403605475,0.06469930934945894,0.20488490940987733,-0.04858398437,0.36743164062,0.007893022897724198,0.08856974339109225,1.019296787710675,0.79890425676,1.35217452662,0.012265646656433104,0.11041013219103905,stairs up
-0.9823472043269148,-1.20959472656,-0.86840820312,0.007969563391039707,0.0890346679468538,0.2024334846625,0.02746582031,0.46948242187,0.009368000812138082,0.09653067398803426,0.19527678793675532,-0.03393554687,0.33666992187,0.009834313210022653,0.09890400918756326,1.0315187107415955,0.91149841038,1.22557700712,0.007447548771459571,0.08606935662786602,stairs up
-0.9967347896260336,-1.236328125,-0.86596679687,0.008282289887296559,0.09075252123985247,0.16357558266067038,-0.06530761718,0.34704589843,0.0066286980080166235,0.08118907670105384,0.13783238586469274,-0.06005859375,0.26635742187,0.005519125342319065,0.07408300911712488,1.0256918452401678,0.90230049921,1.24632539061,0.007549371078536721,0.08664407551076259,stairs up
-0.9864960559787845,-1.310546875,-0.85119628906,0.009742061831298731,0.09842884884661335,0.20179638941292818,0.11450195312,0.2841796875,0.0015786596936424881,0.03962244082438678,0.14916452649850828,-0.01623535156,0.28234863281,0.0053902913834179885,0.07321550906768312,1.0215252724906079,0.8787578627,1.33761456836,0.009302506806609495,0.0961826998029251,stairs up
-0.9829029756389543,-1.30700683593,-0.70300292968,0.022314603633702093,0.14889176119291783,0.16033656300679736,0.01184082031,0.28955078125,0.0049317936138457185,0.06999685470545934,0.1887550104635294,0.00646972656,0.32080078125,0.004250821992261445,0.06498491241807768,1.0178529504397387,0.7341221922,1.34828377639,0.022850603625774565,0.15066935081588195,stairs up
-0.9889441856937436,-1.28857421875,-0.74133300781,0.0173767937071001,0.13148262982044276,0.14840056590128206,0.02111816406,0.26892089843,0.0030717254567097724,0.055280855804430484,0.20005759214333332,0.05004882812,0.31567382812,0.0051780175451974116,0.07177369719519955,1.023500316149128,0.76650582462,1.32181019455,0.01809136821174632,0.1341588311089009,stairs up
-0.9842473493264,-1.33020019531,-0.72985839843,0.02877670489112529,0.16915160826152884,0.12266392298685713,0.03051757812,0.24975585937,0.002763535845239814,0.05241892989978376,0.17613071986205714,0.03747558593,0.30004882812,0.004811776327376891,0.06916849328017072,1.0103781382655428,0.74100562909,1.36352629221,0.03026456245984175,0.1734693693506965,stairs up
-0.9942180674526343,-1.27587890625,-0.76477050781,0.023979711785559334,0.15443700529315033,0.1634344285493011,0.07202148437,0.24865722656,0.0020760778704160153,0.04544134858733051,0.16848918955408604,0.04577636718,0.26782226562,0.0029699393294470976,0.05435045458593132,1.0233819862525269,0.78459144318,1.30494436716,0.024412002725235568,0.15582283336775712,stairs up
-0.9990353274620779,-1.3212890625,-0.77563476562,0.021531491647786925,0.14625893739172707,0.15959028763844155,-0.01831054687,0.35986328125,0.007483912608452479,0.08622827710984754,0.1699527889066883,0.04516601562,0.32275390625,0.004628771185380339,0.06781382034387323,1.0306678459026624,0.81518897426,1.35022208276,0.02372817312186333,0.1535385752038147,stairs up
-0.9931945800738775,-1.25512695312,-0.75659179687,0.01976242040589459,0.14021979792580758,0.17492613500045917,0.03930664062,0.29626464843,0.003834794958078081,0.06176754550473674,0.0930406220082143,-0.16845703125,0.30590820312,0.013372915983867015,0.11534594410157654,1.0210401363084183,0.77263520755,1.29370549696,0.020052038534352272,0.14124352096751006,stairs up
-1.0013561029501723,-1.23706054687,-0.82189941406,0.011149186526814642,0.10528585252624294,0.1692448758497701,-0.0556640625,0.31579589843,0.010007537094383775,0.09974979956562104,0.09493913321442528,-0.05883789062,0.28588867187,0.0065738108598322595,0.08084571935266155,1.0274291748682183,0.8544585739,1.26333340647,0.01016602241419558,0.10053654558429011,stairs up
-0.9889745049259893,-1.25830078125,-0.81787109375,0.010541025088380705,0.10239460908788617,0.1745239910564171,-0.03771972656,0.24243164062,0.003582346762147891,0.05969246039150129,0.09376827790417112,-0.00610351562,0.21252441406,0.004076641878643909,0.06367763857661449,1.0129535889748662,0.87390499058,1.26260640007,0.009399664409670461,0.09669228937506863,stairs up
-1.0027643019110968,-1.26708984375,-0.7666015625,0.016367148025582437,0.12752079643019634,0.14502189389916129,-0.07995605468,0.31909179687,0.0077388622291025,0.08768656730474135,0.12624039188232258,-0.15209960937,0.30554199218,0.008140184949456881,0.08993146071982998,1.028808237791419,0.79848020293,1.2972877489,0.01620051598552184,0.12686999853216177,stairs up
-0.9844964378201038,-1.2734375,-0.75427246093,0.02009436604539041,0.14138688114229292,0.14335292361207255,0.04296875,0.22009277343,0.002392003447870147,0.048781242784723254,0.17821316891621763,0.06860351562,0.29321289062,0.0041207000484955745,0.06402616083322683,1.0136655875243523,0.77706426839,1.30520849047,0.020601258381569912,0.14315905877786014,stairs up
-0.9851623892053216,-1.28002929687,-0.75024414062,0.025392453839378458,0.15888347918294346,0.12319464432099414,0.04235839843,0.23449707031,0.0032081066178508426,0.056474292916658196,0.17604966191064325,0.06323242187,0.28125,0.003955646055512673,0.06270975699553857,1.011214579963275,0.76004780135,1.30709211249,0.026682266207760128,0.16286874949870003,stairs up
-0.999364083971204,-1.27258300781,-0.75915527343,0.024709246474302705,0.156779713903664,0.14428327470172778,0.05773925781,0.25671386718,0.002944826280687668,0.05412400892437038,0.18501129948869113,0.08996582031,0.28625488281,0.003084978251843409,0.05539699029051461,1.0289719747229844,0.77819619331,1.30510215109,0.02570478545754238,0.1599068648587948,stairs up
-0.9746393571784211,-1.263671875,-0.77380371093,0.017462893766897757,0.13176028074168036,0.14076777229157894,0.05920410156,0.23889160156,0.0019411921572623704,0.0439299460088754,0.21570538079900586,0.08752441406,0.32385253906,0.0036033550969730385,0.05985217493912779,1.0097868130988306,0.81103098556,1.30867632704,0.018226731245691057,0.1346110774567934,stairs up
-0.9947456978421081,-1.24011230468,-0.80822753906,0.011233312252178494,0.1057004808191995,0.18843829180383787,0.087890625,0.33386230468,0.00319507684205642,0.05637203346007382,0.13662373310486486,-0.13330078125,0.2470703125,0.0056788882412203015,0.0751544512854995,1.025729741480108,0.84306920807,1.27541274771,0.01163401097991984,0.10756916116658359,stairs up
-1.000845371987701,-1.06237792968,-0.91027832031,0.0009267535192984255,0.030355021819252332,0.19551665207074717,0.11291503906,0.25280761718,0.0011428620711424644,0.03370895872494146,0.076484066314023,-0.09155273437,0.17712402343,0.004770253858904396,0.06886826995679307,1.0255210510885058,0.93538435796,1.09005764602,0.0008802246572788448,0.02958320291788383,Null
-0.994875774700056,-1.02185058593,-0.96081542968,0.0001679208431550632,0.012922180074818664,0.16370583645670392,0.09741210937,0.22766113281,0.0009916137531474458,0.03140181541742054,0.08080236338703911,0.04553222656,0.14575195312,0.0006604733088018008,0.025627787922108333,1.0123086858441344,0.99287790772,1.04057512392,0.0001482227903387925,0.01214062313300146,Null
-0.9900795200858284,-1.06811523437,-0.88757324218,0.0019608755201546827,0.04415507351576227,0.18529924664811429,0.04858398437,0.49841308593,0.007847890159889286,0.08833484631367933,0.1310909598186857,-0.02136230468,0.2236328125,0.00415243963286468,0.06425504965674812,1.0215152393819997,0.91425689032,1.15884652367,0.0021785984873788655,0.04654190964244239,Null
-0.9873486069738093,-1.06787109375,-0.91027832031,0.0012506962721843529,0.035271501691745206,0.15174631592767196,0.04516601562,0.2412109375,0.0009249795849651846,0.03033291138494724,0.17474074590449737,0.0302734375,0.32141113281,0.005985041814176291,0.07715811639918768,1.017527702560582,0.94361008497,1.09792568931,0.0011796999605916453,0.03425577559855208,Null
-0.9912225632400596,-1.14086914062,-0.86389160156,0.001970349178689194,0.04425630926510281,0.15964108421309525,0.10107421875,0.22448730468,0.0006482535895837232,0.025384935242477428,0.12806992303386905,0.05590820312,0.33154296875,0.003792328506176993,0.061398331591433764,1.0141556900979167,0.88835722834,1.17621752733,0.002283953001972196,0.047648274298521275,Null
-0.9371223868871976,-1.10632324218,-0.74182128906,0.006635559808175013,0.08123484897720852,0.3066768436607142,-0.11096191406,0.615234375,0.020391551991895816,0.1424061462768895,0.24019413203631867,-0.07470703125,0.46875,0.013382308902854289,0.11536368463714387,1.0318445943651098,0.87722001124,1.23926678857,0.005456379614000869,0.07366409916799115,Null
-0.9962426334406357,-1.19372558593,-0.86633300781,0.0030287051662641236,0.054874385645628326,0.15484231055398842,0.06164550781,0.32336425781,0.0024290486022435337,0.04914272946100943,0.16221733313445086,-0.17785644531,0.33557128906,0.012920658401799888,0.1133400746209578,1.0287118583276875,0.88789080155,1.21165207729,0.0028304410321612493,0.053047903835491066,Null
-0.9955230233516754,-1.033203125,-0.96228027343,0.0002022832533692211,0.014185350850234596,0.13892624140685866,0.09631347656,0.19177246093,0.00028638076308276747,0.0168784296473286,0.08594900400497381,0.04907226562,0.12475585937,0.000365871528541651,0.01907763011489098,1.0088756495929845,0.97742837284,1.04456042874,0.00018734859182104196,0.013651655912062487,Null
-0.995872543793212,-1.015625,-0.97692871093,7.476813689750197e-05,0.00862061463434486,0.16553918086733332,0.13391113281,0.22790527343,0.0005250073831870286,0.022843500613054523,0.0673842921369697,0.048828125,0.09582519531,0.00016327093066270218,0.01273897208846958,1.0121092629558182,0.99255253992,1.03272215928,9.985364855413927e-05,0.009962352881048655,Null
-0.9962657275081215,-1.03662109375,-0.97204589843,0.00013409668752844734,0.011547979124136595,0.16146327908856353,0.0771484375,0.23449707031,0.0012958089080877006,0.03589776793687383,0.06436342692160221,0.03186035156,0.09008789062,0.00017672787693862204,0.013257129396232954,1.012015518704199,0.98879221949,1.0519222177,0.00018179234900911334,0.013445741756789711,Null
-0.9970590876396552,-1.00549316406,-0.98620605468,1.651776739222893e-05,0.004052510048670138,0.14363466459787355,0.12902832031,0.16015625,4.396904672099542e-05,0.006611834166869667,0.05966361911431034,0.05163574218,0.07141113281,2.5904535138368647e-05,0.0050750033004563055,1.0091505070613218,0.99776568249,1.01672882837,1.874524028383919e-05,0.004317118138045346,Null
-0.9977110201682539,-1.0087890625,-0.98828125,1.194560402095138e-05,0.003447085691837711,0.1475849454325397,0.13159179687,0.16186523437,5.852533721543934e-05,0.007629920009185849,0.0634713954989947,0.05297851562,0.07641601562,4.1751600113868064e-05,0.006444431097991323,1.0106448018678307,1.00228246589,1.02097963806,1.1460898894413585e-05,0.0033764269898405278,Null
-0.9941508584358085,-1.00048828125,-0.98791503906,1.03208338566781e-05,0.003202972440771027,0.14851132695107785,0.13073730468,0.17053222656,8.525330584144805e-05,0.009205585641558831,0.07353457147790418,0.05615234375,0.08764648437,4.58650485030253e-05,0.006752066905327965,1.0079329716592815,1.0002953421,1.01498928715,1.0657469444843678e-05,0.0032547891271999824,Null
-0.9960639260005681,-1.00402832031,-0.98876953125,1.393169116318285e-05,0.003721899223115586,0.1524949507246591,0.13208007812,0.166015625,6.722313823916987e-05,0.008175646065607518,0.06964250043965908,0.05358886718,0.0908203125,7.494364273042107e-05,0.008632370855016811,1.0101425973096023,1.00326839919,1.01905012653,1.5364488209975472e-05,0.003908604607978364,Null
-0.9943340172895505,-1.01184082031,-0.98596191406,3.8524909539907704e-05,0.006189384255630022,0.15799190220814607,0.13549804687,0.17468261718,8.525998714408763e-05,0.009207659770661973,0.08272321036382023,0.07263183593,0.10302734375,5.7904013456444875e-05,0.007588063653532458,1.0102677001370788,0.99885985824,1.02721857533,4.4802579053210365e-05,0.006674644497715886,Null
-0.9941597603433513,-1.00390625,-0.98779296875,1.5824907987797183e-05,0.0039672872273910165,0.16107606629616217,0.13940429687,0.18237304687,0.0001208306024284242,0.010962548245591406,0.07290764885643243,0.05627441406,0.09045410156,6.23284430904473e-05,0.007873470174405673,1.0098462929265406,1.0003345943,1.02113152385,2.3151651883550838e-05,0.0047985943586966616,Null
-0.9939277116604651,-1.03063964843,-0.96875,7.332458343206452e-05,0.008538048823615162,0.15729753360813953,0.1328125,0.20153808593,0.0002639865195972386,0.01620036154691441,0.07400654637232558,0.05554199218,0.12854003906,0.00028939407702788743,0.01696206217782015,1.009275473967907,0.99154808436,1.05639225972,9.843045231205485e-05,0.009892329464816321,Null
-1.0000301312756963,-1.22741699218,-0.83117675781,0.008160245776722022,0.09004775761535039,0.18987882589658225,0.04516601562,0.3466796875,0.0053505665439006365,0.07291571983246188,0.08945745154006327,-0.10546875,0.27673339843,0.008274147058520085,0.09067402626531129,1.028264792009747,0.89346785827,1.26770901702,0.008489194098813161,0.09184478767049545,Null
-0.9804225425896044,-1.37255859375,-0.66296386718,0.024994232745880942,0.1576484138562277,0.22298383981751413,0.09533691406,0.34594726562,0.004905070625435811,0.06983808675798092,0.12258686992118643,-0.00427246093,0.27893066406,0.005714763929728386,0.07538220697131064,1.0173008291059324,0.71413285182,1.42426481209,0.02664008545463308,0.16275618727797192,stairs down
-0.9790125779072131,-1.46655273437,-0.69689941406,0.0428042267769935,0.20632577129004193,0.25770377070109285,0.06201171875,0.396484375,0.0043421903329638216,0.06571500982984554,0.10837042135890712,0.00085449218,0.31604003906,0.005292395343562917,0.07254981151201355,1.0218344339975411,0.7318959395,1.49886687514,0.04328217813574629,0.2074744887959113,stairs down
-0.9813656378605987,-1.54553222656,-0.67895507812,0.06304906666430751,0.250342819635324,0.23295913056377246,-0.04919433593,0.52478027343,0.013428108350616563,0.11553224881469994,0.13323426389101797,-0.01232910156,0.3515625,0.008711621830615716,0.0930562003868221,1.0262349808701796,0.68701265141,1.55879463966,0.06702161613176086,0.2581090643295111,stairs down
-0.9771819905125669,-1.43933105468,-0.65063476562,0.04138214989946774,0.20288138155143573,0.21330905852770055,-0.02062988281,0.37158203125,0.008112627153595177,0.08982897149966848,0.15197819184144387,-0.05126953125,0.37805175781,0.008580420526277797,0.09238255205683049,1.0191570710867914,0.69532750145,1.46323462033,0.0427951182058252,0.20631594050467553,stairs down
-0.9934790173913811,-1.42578125,-0.69165039062,0.042275360233843796,0.20504095860995666,0.19097664342707182,0.02600097656,0.33666992187,0.005309016106987705,0.07266143768386443,0.15368045363933697,0.00744628906,0.38037109375,0.007369070131946276,0.0856058236178745,1.029693908211326,0.72128696105,1.4645534482,0.04170100210083548,0.2036433397487757,stairs down
-0.9902881686936723,-1.14453125,-0.84387207031,0.0063319554745595915,0.07934848275056251,0.15155546543649717,-0.02587890625,0.2890625,0.005502902304233798,0.07397170040432391,0.1826689122040113,0.0810546875,0.29138183593,0.0028632133538290003,0.053357633073415074,1.0220545677584747,0.86491316608,1.18896942451,0.0070670662785671,0.08382803439446497,stairs down
-0.8427420062187425,-1.10461425781,-0.50158691406,0.028549036341358153,0.16845795923000148,0.3937878637223352,0.11828613281,0.70886230468,0.02329014418079574,0.15215348250892377,0.36519197931898195,0.08154296875,0.64501953125,0.023213198732058953,0.15190193396414223,1.0319094354719762,0.77178558071,1.20521262112,0.008464720160291863,0.09172803940575776,stairs down
-0.993649718578871,-1.28857421875,-0.81323242187,0.013059801339683971,0.11397187088920997,0.19341187835650536,0.01354980468,0.39318847656,0.00830950008785763,0.09091108489179128,0.1894183415205376,0.0537109375,0.29113769531,0.003081696572986058,0.055363600965263916,1.0346134595051075,0.83528785774,1.32458196851,0.014600252436644357,0.12050625069183002,stairs down
-0.9599894205694445,-1.33154296875,-0.60095214843,0.030693751157409535,0.17470898751250935,0.18844129773972224,-0.00573730468,0.39135742187,0.008318165242468326,0.09095027879750288,0.182221815318,0.05847167968,0.45568847656,0.00741548900561392,0.08587369704671868,1.0019238997474442,0.65621654107,1.42503505672,0.03279476792143506,0.18058952008994314,stairs down
-0.9771838861637288,-1.43811035156,-0.65747070312,0.03291578290772878,0.18091384146201714,0.22798044667700565,0.1181640625,0.38623046875,0.004872315468111898,0.06960451323066175,0.189468987240452,-0.0517578125,0.39196777343,0.00874080238104901,0.09322778189332458,1.0267490192167799,0.71375026345,1.50763505178,0.03501221484260842,0.18658618844706554,stairs down
-0.973911830353292,-1.46166992187,-0.61608886718,0.06470218420597398,0.2535750525691358,0.20569302576391305,-0.05908203125,0.32470703125,0.0077173754365838605,0.08757534714553508,0.1722745717648447,0.03393554687,0.4345703125,0.008875624833317837,0.0939174995874734,1.019427676968137,0.65924366958,1.46684162462,0.06556704159936232,0.2552641629641267,stairs down
-0.9778258308499471,-1.4658203125,-0.64953613281,0.06724682077384692,0.2586329783483328,0.20048337259984125,-0.07763671875,0.38989257812,0.011517965217320075,0.10703748690255026,0.15015875599068784,-0.03503417968,0.34655761718,0.008514354289771698,0.09202882589805773,1.0207741472733334,0.67337583759,1.48203776714,0.06406102352683654,0.25243232026111245,stairs down
-1.000814491742373,-1.48901367187,-0.67211914062,0.04050705200882188,0.20069429141767361,0.16584320930107346,-0.0556640625,0.32824707031,0.010378073468346434,0.10158464591122739,0.12894831942672316,-0.07641601562,0.35510253906,0.008035342460831202,0.08938649252430848,1.0311956280566101,0.7060430903,1.5098792227,0.041217312822945065,0.20244615740686248,stairs down
-0.998834966299011,-1.46984863281,-0.73181152343,0.023799556654270342,0.15384664396556286,0.1618055406468681,-0.06066894531,0.34313964843,0.007981757554392857,0.08909490301725703,0.1188750214595055,-0.00317382812,0.28271484375,0.003338221388402963,0.057618395609757365,1.0244978669848352,0.77056588653,1.48055894118,0.02344309347760378,0.1526901610179349,stairs down
-0.9995481813072077,-1.19677734375,-0.87573242187,0.00784729569758745,0.08829688121343075,0.18656703403694805,0.06176757812,0.26440429687,0.002462231193182499,0.04945950544577912,0.10324374111915585,-0.04577636718,0.23071289062,0.005034845350963963,0.0707258902381842,1.0255090131113638,0.90675727853,1.22392120981,0.008192289193901163,0.09021691920490238,stairs down
-0.9933519116297926,-1.17541503906,-0.87060546875,0.007152296754743377,0.08435187148093028,0.1768545832619689,0.08239746093,0.29821777343,0.0033794872548091755,0.05798255736126282,0.09454250829507771,-0.01452636718,0.20837402343,0.003009290142395564,0.054714696065060624,1.0161814543382903,0.89028908434,1.20202267916,0.00785069200005697,0.08837428833905772,stairs down
-0.9882321329469232,-1.16857910156,-0.85363769531,0.006355774956013257,0.07948689716034246,0.1755703356105917,0.0634765625,0.28430175781,0.004191940160751997,0.06455335607931299,0.14450741378136092,-0.06079101562,0.28869628906,0.006165923688657384,0.07829073337952071,1.0189962329162723,0.88177228932,1.1812671481,0.006610618899634872,0.08106480624458035,stairs down
-0.9604773396558114,-1.45947265625,-0.67858886718,0.03776811752377987,0.19383079912278348,0.2493008119240838,0.06030273437,0.41174316406,0.007359546096919321,0.08556292679637384,0.17130874713240837,-0.04235839843,0.37646484375,0.008383676729056594,0.0913224130956717,1.0139468572265968,0.71067773873,1.51580646745,0.0393633394300916,0.1978819058118632,stairs down
-0.965728565381847,-1.48706054687,-0.64575195312,0.03400951044229589,0.18382842369088673,0.2145895016387261,0.07641601562,0.38232421875,0.005472987118955673,0.07374365958093669,0.09132025651535032,-0.06604003906,0.34362792968,0.004741225827677446,0.06863692109247979,0.998042191843185,0.68454111121,1.49793223075,0.03509708066447714,0.1867445645259589,stairs down
-0.9601518679855898,-1.47192382812,-0.638671875,0.05439880397730311,0.23263670336337403,0.2549485426645641,0.08288574218,0.44006347656,0.008115637890748584,0.08985554648934362,0.1791823167037949,0.00256347656,0.36987304687,0.0065277442537377715,0.08058702527193905,1.0173341663718973,0.70734381747,1.54249039007,0.052987721085762475,0.22959962801093248,stairs down
-0.9770287802018024,-1.46826171875,-0.66394042968,0.04552978376668888,0.21275590643160466,0.20760469658093023,-0.03430175781,0.42321777343,0.010442170333192525,0.10188945009449057,0.18759439157534885,0.0634765625,0.37084960937,0.006833732490508167,0.08242573316420289,1.0236037886544769,0.70524495864,1.4747535534,0.04783050858883294,0.2180651834580025,stairs down
-0.9962461764184126,-1.46899414062,-0.70141601562,0.0382918434348992,0.19516465122732343,0.18354208002285713,-0.03918457031,0.37841796875,0.007079823864999181,0.08391879693769498,0.14899747333465607,0.01086425781,0.39172363281,0.007431091289637729,0.08597542292019453,1.0308033897083069,0.73496061675,1.5084281465,0.038566190826867186,0.19586254595289093,stairs down
-0.996899874701195,-1.38415527343,-0.70446777343,0.015237261415077167,0.12305051638362978,0.14704405586238997,0.04235839843,0.29138183593,0.003998911135920785,0.06303777241795698,0.11155230443842766,-0.08569335937,0.2822265625,0.005669232763975443,0.07505715963184828,1.019083607655472,0.76902207119,1.41496548352,0.014181792989630808,0.11871225430859848,Null
-0.9916416622772539,-1.11999511718,-0.88623046875,0.0016500963902021275,0.04051600508407882,0.14091531229487048,0.05322265625,0.26708984375,0.002795517862761025,0.05273550335636619,0.11708883176445596,-0.01806640625,0.23303222656,0.005399906534725229,0.07329343588882885,1.0123563841009844,0.9074256194,1.14660408005,0.001858796492530566,0.043001923475829325,Null
-0.9926841517815997,-1.00769042968,-0.98449707031,2.2860023578800013e-05,0.004767535513515913,0.1074253627190857,0.08898925781,0.15295410156,0.0001914834202920025,0.013798160359950356,0.13653808593405714,0.11865234375,0.15881347656,7.988749563974427e-05,0.00891240683904522,1.0079077570137713,1.000554676,1.02083429106,1.9295898198538235e-05,0.004380141084841677,Null
-0.9950716585685947,-1.18273925781,-0.88159179687,0.003104450040609096,0.05556679970610847,0.12560573268227027,0.029296875,0.23303222656,0.0019946996231178923,0.04454118838774883,0.12983002533475674,-0.03125,0.23706054687,0.004250859712507734,0.06502216616231826,1.0143617706714594,0.88733917747,1.20200674304,0.003187135992875407,0.05630193807278535,Null
-0.9977868810842208,-1.14331054687,-0.90734863281,0.0017835783610080501,0.042095090964852026,0.13133576628084415,0.00341796875,0.24047851562,0.0036277669258235803,0.06003507306345031,0.14291580001584417,0.01330566406,0.25207519531,0.003758345513663817,0.061105979025509446,1.019922622173766,0.91741044131,1.1692615486,0.002134522127476889,0.04605064162616613,Null
-1.0032589643389744,-1.09069824218,-0.94812011718,0.0010896448889821978,0.032925020371665635,0.11613268729641026,0.02978515625,0.22570800781,0.0022659488308023825,0.04747977022256965,0.07457056289789744,-0.06188964843,0.17395019531,0.004522371098771852,0.0670759230433058,1.0159513444591282,0.95777972011,1.1157010934,0.0012630271906061072,0.035447850824699915,Null
-0.9560674622969186,-1.30358886718,-0.48181152343,0.02871947958786817,0.1689748675671446,0.29436191292383723,0.03491210937,0.59509277343,0.02819528650210696,0.16742568625450632,0.12569267804883724,-0.09228515625,0.2890625,0.006663873509903378,0.08139490192428765,1.0299439527295349,0.7063414333,1.37725431786,0.01904777099330389,0.13761187499155608,Null
-0.9128833527221809,-1.03662109375,-0.77661132812,0.003111413472836257,0.05563149648510486,0.29568546376010635,-0.00512695312,0.53845214843,0.0178227725627519,0.13314642534080717,0.2526056817198936,0.01037597656,0.42297363281,0.015161205782419335,0.1228029359209735,1.0090237232739894,0.87362272997,1.15324691034,0.0023827346370686874,0.048683267317002746,Null
-0.9304089668430768,-1.14807128906,-0.70166015625,0.008603269894625941,0.09245604755036173,0.305721967643782,0.05676269531,0.57299804687,0.007964014516363213,0.08895483764955293,0.2271094688967308,-0.10571289062,0.45434570312,0.01591399705607844,0.12574571266821352,1.0156876022592947,0.76059959554,1.28625259478,0.011430513207812302,0.1065703555743782,Null
-0.8849879214595788,-1.13403320312,-0.64208984375,0.011309877267848769,0.10606767461398399,0.36187422902599997,0.15747070312,0.60815429687,0.010651947594841149,0.10293631386815362,0.2651437859752631,0.00231933593,0.46875,0.01623859562912997,0.12709496188419536,1.004594122098316,0.72961973124,1.25429060799,0.013317915791188085,0.11509918113327416,Null
-0.8419211513993373,-1.35522460937,-0.34460449218,0.08551984781055301,0.2915556001939687,0.3903308546654217,-0.31555175781,0.93359375,0.09297781371134686,0.304002806565717,0.17047045603951805,-0.04553222656,0.43188476562,0.015693229210509432,0.1248947224070934,1.0324308900961445,0.80049106643,1.44604643152,0.017462295475989598,0.13174635070820526,Null
-0.814267202519795,-1.06970214843,-0.48583984375,0.02958331853495875,0.171556431558652,0.5618057642184103,0.13220214843,0.92419433593,0.06824611602967387,0.26056886987410915,0.004015174279282051,-0.14990234375,0.26306152343,0.007405698202102368,0.0858354254524576,1.0373182823087177,0.66941939212,1.19758157466,0.007376992775842484,0.08566890943427888,Null
-0.709891510005375,-0.72216796875,-0.63037109375,0.00012753756200935956,0.011257906210605996,0.7358978271442499,0.71105957031,0.75463867187,6.973348886390945e-05,0.008324521281041332,-0.0631614685020625,-0.11413574218,0.005859375,0.0005367466623325074,0.023095280810003786,1.0247352547137498,0.95024964195,1.04312970494,0.0001288321305579883,0.011314898574092517,Null
-0.7291849309711363,-0.77429199218,-0.6875,0.0003447377638136257,0.018514292493077615,0.716118552464375,0.65661621093,0.77697753906,0.0005036278649747695,0.022377809164766012,-0.06921802867198863,-0.14196777343,-0.01806640625,0.0006762100794735273,0.025930059327916047,1.0249944923755683,0.9861464078,1.06011534705,0.0002310972303659911,0.015158633774873307,lift down
-0.6867479946481818,-0.71472167968,-0.65161132812,0.0002738997810686296,0.016505607421631978,0.7199863698993582,0.65844726562,0.75573730468,0.0007274627461157159,0.02689930428473565,-0.09685789709663102,-0.13354492187,-0.03393554687,0.0004688104353286423,0.021594060008555318,1.0000131424578076,0.95811878615,1.04290798453,0.0007724944556796685,0.027719369929449327,lift down
-0.7064129530291123,-0.71447753906,-0.69177246093,3.446534666949498e-05,0.005853324671240576,0.740367279952071,0.72680664062,0.76525878906,4.5305709461130185e-05,0.006711007997317423,-0.08799897142739645,-0.111328125,-0.06811523437,6.914465766278803e-05,0.008290688612933047,1.0271433504124852,1.01157630005,1.03773886045,3.1547333664163866e-05,0.005600059200648369,lift down
-0.6936056954482739,-0.70458984375,-0.67846679687,3.288810717412628e-05,0.005717721979199683,0.7456410725875,0.73376464843,0.75659179687,2.3138086629305096e-05,0.004795869047751229,-0.11086382184369048,-0.13903808593,-0.09167480468,0.00011214886219856176,0.010558470980562472,1.024455751844881,1.01441958125,1.03879490611,1.795025603802821e-05,0.004224145981840246,lift down
-1.0127694494401045,-1.6171875,-0.67456054687,0.042922451900315746,0.20663428326697508,0.16673909930926695,0.01965332031,0.33178710937,0.0032803169186444254,0.05712392217377407,0.05660739119534031,-0.11254882812,0.20129394531,0.008207088539201697,0.09035551720430929,1.033668210021937,0.70778477806,1.65242626894,0.04258626702925486,0.2058234735894101,stairs up
-1.0178259872767073,-1.37817382812,-0.75476074218,0.02325865122142919,0.1520421986732502,0.1995127608097561,0.11437988281,0.3330078125,0.0035848209488938848,0.059690554399933,0.07466237137719511,-0.11315917968,0.2294921875,0.00885723193409257,0.09382549985104968,1.0458759014784755,0.76575490277,1.41897121439,0.023117125474233374,0.15157891473444918,stairs up
-1.023194787094386,-1.40551757812,-0.71704101562,0.039444971958924865,0.19802600740379503,0.1654138397722222,0.00476074218,0.43725585937,0.006578537747987508,0.08087067927874184,0.05220397592029239,-0.12023925781,0.1767578125,0.006182264461059943,0.07839713558364496,1.042685063152456,0.72778112493,1.48016757468,0.04196833098354663,0.20426184701844233,stairs up
-1.0381396484335428,-1.37231445312,-0.70056152343,0.03274820309262689,0.18044686337957266,0.18449986048748573,-0.14245605468,0.34899902343,0.009242770547258828,0.09586425149950425,0.08382533481988572,-0.30505371093,0.24633789062,0.015200307223485643,0.12293676555475878,1.0703993805268,0.72882812792,1.37928302145,0.03008235380346341,0.17294639238466986,stairs up
0.07111952039822221,-1.32385253906,0.84521484375,0.5138726896015211,0.7148551191157247,0.6764451768626666,-0.01025390625,1.25158691406,0.08914409422383898,0.29773956615795755,0.014460584852833296,-0.45788574218,0.82653808593,0.10111932121072728,0.31710810018667296,1.0592113246093333,0.69033002336,1.66507229142,0.04137061636172426,0.2028318998682385,stairs up
-0.46089728860194107,-1.763671875,0.84106445312,0.7167871437031926,0.8441390577033103,0.4261934168158824,0.04333496093,0.90466308593,0.05051329748752377,0.2240896259166843,0.07138456456588235,-0.11975097656,0.29675292968,0.009044915697113591,0.09482462924082531,1.045861925275941,0.53190149301,1.94068045068,0.0775706459044707,0.2776947028435825,stairs up
-1.0450308370871813,-1.45288085937,-0.71264648437,0.03848885264362405,0.19552631075216298,0.2922879417437584,0.02136230468,0.59912109375,0.021188689482872204,0.14507406216546256,0.07416877490510067,-0.23669433593,0.5537109375,0.02343692469636976,0.15257663615295045,1.1068873004548994,0.74848702929,1.48156366145,0.040652691077361,0.20094739168372602,stairs up
-1.0256405478990527,-1.25720214843,-0.802734375,0.01772075422967402,0.13276854711169142,0.23409616570273678,0.09985351562,0.6123046875,0.010661234825168392,0.10298117819742918,0.07594636615789475,-0.17993164062,0.31457519531,0.008949388947508753,0.09435193109002381,1.0635208080096317,0.82306052813,1.32709985886,0.01866401849559429,0.13625632763032214,stairs up
0.36038337475981813,-1.46704101562,0.65808105468,0.27312487307191174,0.5210274184828183,-0.47410999644624235,-0.80700683593,0.85229492187,0.1682961481019164,0.4089940970805731,0.5428895892485454,-0.19299316406,1.26647949218,0.03860593292828137,0.19588761466004143,1.0434039071575758,0.64091757164,1.7532884066,0.038042116294984336,0.19445194268612664,stairs up
-0.08894486860877007,-1.421875,0.51684570312,0.38608311527069566,0.6196922620793427,-0.36341180648262034,-0.85168457031,0.57458496093,0.22976955018826226,0.4780594482029746,0.5076055679704813,-0.28625488281,0.86022949218,0.07458754617772516,0.2723759943431539,1.0279960630526204,0.68880267705,1.61618954739,0.02706383501985918,0.16407043801178398,stairs up
-0.9738309785875324,-1.30639648437,-0.72009277343,0.03175549532044097,0.17762120032634948,0.27598829392857144,0.09411621093,0.76171875,0.026210275383922774,0.16136938616268165,0.0625760957761039,-0.3037109375,0.24645996093,0.009546954272699663,0.09739076477334326,1.0283106856435065,0.73037484529,1.36438849443,0.038332457517350864,0.19515005881513303,stairs up
-1.018839518225778,-1.3056640625,-0.705078125,0.025076757096743698,0.1579159326335996,0.2249871147966111,0.11828613281,0.36511230468,0.003779815677941831,0.061309189376089986,0.043264431420166664,-0.13940429687,0.26745605468,0.00665228093014482,0.0813346409217268,1.049150386774944,0.72880680309,1.34581215227,0.02526036030941216,0.15849298083624988,stairs up
-0.9810052746035927,-1.46923828125,-0.69567871093,0.042958322770142714,0.20664241409849343,0.2804145127681437,0.09362792968,0.57043457031,0.011282329095520799,0.10589981226924527,0.02771727053431138,-0.39855957031,0.22290039062,0.014643176258642561,0.12064614609870905,1.0324926882420957,0.71672553557,1.52086655752,0.044468371367240404,0.2102429397016287,stairs up
-1.0264074447273404,-1.76318359375,-0.64428710937,0.059299988029267774,0.24286737648565931,0.298710599854734,0.06689453125,1.55932617187,0.07032499520059209,0.26448237384972306,-0.028687172750159563,-1.43676757812,0.15173339843,0.0728828765952409,0.2692493300265282,1.1021972547957979,0.65211562776,2.7576467448,0.1308511375046561,0.36077017728160615,stairs up
-0.9763024371566459,-1.37145996093,-0.71618652343,0.019865561114788162,0.14050684160009946,0.2475267493178882,-0.13256835937,0.50659179687,0.016239176414887813,0.12703665598993819,0.05485354595049689,-0.16430664062,0.17419433593,0.006642433544663767,0.08124762269417288,1.02141487117559,0.74635640858,1.39337048987,0.017071978398036387,0.1302533733349326,stairs up
-1.0129014922313413,-1.36328125,-0.69714355468,0.03671399244694313,0.19102389023192837,0.23421422446310974,0.07421875,0.46936035156,0.008665245872982737,0.09280306572470315,0.04989400724018293,-0.20727539062,0.20056152343,0.009096704212114469,0.09508541688137048,1.0483384964667684,0.7012361481,1.43367093577,0.03868117768084958,0.19607477359755437,stairs up
-0.9984483506914443,-1.39294433593,-0.77746582031,0.013990762594721566,0.11795353379980611,0.19248725043022222,0.03295898437,0.31896972656,0.004820975198850323,0.06924010400989555,0.0068067762575555555,-0.38403320312,0.20837402343,0.017337160629667905,0.13130439090378582,1.0277417827114999,0.80885637782,1.44528949306,0.013768171899167908,0.1170114612133514,stairs up
-1.0321613658521591,-1.34155273437,-0.76147460937,0.018975982818717974,0.13736143830974074,0.2193381569565341,0.02355957031,0.36926269531,0.006755446892235079,0.08195769439934528,0.041678688741761366,-0.12365722656,0.21252441406,0.010183357440871708,0.10062553083294622,1.0642030976082955,0.79611986508,1.36801901463,0.018490980640858724,0.13559468371161842,stairs up
-1.0656061662903429,-1.30383300781,-0.77990722656,0.014227827495608403,0.11893916774639432,0.2286223493264572,-0.05383300781,0.36901855468,0.009774211599950103,0.09858173746813403,-0.022850864954571424,-0.22570800781,0.24084472656,0.011310575284728527,0.10604689258039883,1.0997600407497143,0.79979264246,1.33455592655,0.014025669744638944,0.11809116419268574,stairs up
-1.0142171223915333,-1.36853027343,-0.66455078125,0.032237054450652815,0.17894731278875112,0.20310546874686664,-0.68615722656,0.41564941406,0.03496995789835525,0.1863781769566908,-0.012059733072800002,-0.19885253906,0.24475097656,0.012765103197136066,0.11260551722342542,1.0591480150334,0.75464551386,1.39275840994,0.02786384930558602,0.16636733546647747,stairs up
-0.9866220225426628,-1.29650878906,-0.74975585937,0.024300836672198862,0.1554630724888584,0.2701289964720109,0.01599121093,0.61791992187,0.01815414567452026,0.13437068817019823,0.046770842177445655,-0.25268554687,0.25732421875,0.010084468731406403,0.10014819936537563,1.0383367745539132,0.82662082314,1.36153140527,0.022814848713220804,0.15063483982868694,stairs up
-0.9745709043516363,-1.23999023437,-0.74291992187,0.011205540889321,0.10553496349691326,0.30082120028036363,0.08581542968,0.65515136718,0.013828468788705204,0.11723762146578834,-0.005789092092909089,-0.35363769531,0.25561523437,0.02168452996806669,0.14680977002339057,1.037167610519697,0.85756953191,1.2821470063,0.011101381505929889,0.10504332632725388,stairs up
-0.9784558884613298,-1.33020019531,-0.75476074218,0.020901736806598896,0.14418931082261252,0.3173490483678723,0.10021972656,0.7080078125,0.018136933813917858,0.1343147823648468,-0.014038735248776597,-0.474609375,0.10034179687,0.018863125837417297,0.13697733411658425,1.0463213309707446,0.79752115157,1.34720881124,0.021201685708518447,0.145220214793041,stairs up
-0.9885484227561006,-1.35437011718,-0.67565917968,0.035795790139955666,0.1886018541381777,0.26535936271251576,0.10083007812,0.72729492187,0.0212231781163334,0.1452229286603307,0.007806358095723274,-0.53820800781,0.14196777343,0.020805487865552044,0.1437867717859034,1.04295398264239,0.70124066368,1.37515806785,0.0381275475285508,0.1946477629774995,stairs up
-0.739407887175353,-1.3017578125,0.32592773437,0.2313625604463537,0.4795848248312638,0.46872917623729404,-0.20263671875,0.99182128906,0.07710581454031545,0.27686142910375294,0.12093290441041175,-0.46435546875,0.69665527343,0.08064056808026807,0.2831363837401385,1.0610087147682938,0.47922440022,1.40668695336,0.04238573360521545,0.20527154152604518,stairs up
-0.058825406160795464,-0.86181640625,0.43542480468,0.11192436100219401,0.33359920133726845,0.7007044011864773,-0.08483886718,1.05212402343,0.08266163339569874,0.28669141079588045,0.6543086658780682,0.15795898437,1.16259765625,0.048688886962291185,0.220027829056,1.048300947271307,0.26129885339,1.4414888994,0.06617397197014108,0.25651117615620184,stairs up
-0.6725895913771348,-1.43444824218,0.40478515625,0.3251036614498771,0.568574741248283,0.4429540741274719,0.00402832031,1.09582519531,0.06757108174714595,0.25921317275235406,0.40795349806595504,-0.05627441406,1.21923828125,0.09765373849184766,0.31161694752286256,1.108165010105281,0.4639153867,1.53310893553,0.07497648065924893,0.2730480991982365,stairs up
-1.0562737001970761,-1.49279785156,-0.8017578125,0.0259560499991894,0.16063704502110424,0.21661555418169592,-0.10375976562,0.75695800781,0.02052437616716631,0.1428437978196654,0.09457593772672515,-0.22961425781,0.54528808593,0.021636844262959747,0.1466639458420507,1.1001163604410527,0.85437785228,1.6190995325,0.029667818572323097,0.171739111903143,stairs up
-1.0175413474022434,-1.34545898437,-0.77001953125,0.019448710914389638,0.13901093370875345,0.2229692507978205,0.11145019531,0.48950195312,0.007118344918302731,0.08409943223446735,0.09683853540410257,-0.14965820312,0.21020507812,0.005521085265832325,0.07406546896911846,1.05263406281359,0.80852085282,1.36979437659,0.01844560113859076,0.1353785806752718,stairs up
-0.9666682417637097,-1.36328125,-0.51184082031,0.032711747648047275,0.1803770440966263,0.3566415438043011,0.04321289062,1.49230957031,0.06352212737936133,0.25135753532666133,0.09999068065188174,-0.10473632812,0.49633789062,0.01513565522179752,0.12269588718191718,1.0636874741671507,0.61426521139,1.82525293821,0.0512541029471429,0.2257842847805814,stairs up
-0.9293334247039766,-1.33654785156,-0.30200195312,0.05824498142495524,0.24063326349134176,0.34970360471099415,0.14770507812,0.66284179687,0.017528373888816146,0.1320070785160979,0.17420361613356727,-0.12353515625,0.72021484375,0.03583026756313646,0.18873455919544005,1.0439940815686548,0.57997890869,1.36835657544,0.03754702630832196,0.1932031393509353,stairs up
-0.9615094095262984,-1.37084960937,-0.50122070312,0.06286165524288506,0.2500287049124904,0.2636833401643646,-0.04821777343,0.8251953125,0.028675706635026214,0.16887059340394542,0.19185204268552486,-0.15637207031,1.22045898437,0.08679404284124781,0.29379332487767207,1.0735554425503868,0.5900950749,1.48715204168,0.055970544408407444,0.23592650313453375,stairs up
