avg_accX,min_accX,max_accX,var_accX,std_accX,avg_accY,min_accY,max_accY,var_accY,std_accY,avg_accZ,min_accZ,max_accZ,var_accZ,std_accZ,avg_magnitude,min_magnitude,max_magnitude,var_magnitude,std_magnitude,Label
0.04394344407285715,0.03552246093,0.0546875,2.7007395956939915e-05,0.005183589790909859,0.5490461076978062,0.53186035156,0.56396484375,4.3538212780341194e-05,0.006581495198028028,-0.8740695252674999,-0.8857421875,-0.86474609375,2.45830998403617e-05,0.004945470236649326,1.0331742885876531,1.0199224445,1.04501734502,2.5854326310963496e-05,0.005071727169598768,Null
0.057880249019600004,0.04431152343,0.09106445312,0.00010115134319221158,0.010032227393567718,0.5467309570272,0.53479003906,0.55700683593,3.445129897443357e-05,0.005854830696062987,-0.8715740966761498,-0.88549804687,-0.84692382812,8.956707264223734e-05,0.009440298579972254,1.03056794568715,1.01043015238,1.04399527705,6.0323399603134746e-05,0.007747372625937072,Null
0.05866394042595,0.05041503906,0.07055664062,1.8873322174736634e-05,0.0043334692295968775,0.5536389160122,0.53955078125,0.56726074218,3.374808846930297e-05,0.005794769022744259,-0.8674523925739002,-0.88598632812,-0.85559082031,4.601045918353429e-05,0.006766121997689416,1.03077689120465,1.02108524905,1.04285309539,2.8442091639786945e-05,0.005319763263678941,Null
0.08087341308234999,-0.15478515625,0.18444824218,0.0058507800964850585,0.07629892657175874,0.7751879882778999,0.44055175781,0.95166015625,0.015411232949584923,0.12383124316923011,-0.6376782226531,-0.90075683593,-0.28295898437,0.018915528634057707,0.13718947113713725,1.02635091897555,0.93542567286,1.07668236257,0.0006742581416617621,0.025901483566650257,Null
0.13288757323744999,0.11975097656,0.14611816406,4.564617708989518e-05,0.006739283805008193,0.7538311767541,0.74035644531,0.76550292968,3.711896887670786e-05,0.006077283441828621,-0.68898010253515,-0.703125,-0.66613769531,6.703290171134393e-05,0.008166868261628027,1.02991976119615,1.01788095665,1.03934538726,2.860946128307038e-05,0.005335392579431717,Null
0.13535278319955,0.12072753906,0.14880371093,4.2613485647759095e-05,0.006511560352136828,0.73242370605145,0.70202636718,0.74877929687,0.0001456163153492578,0.012036952844159168,-0.70997253417635,-0.72802734375,-0.68835449218,0.00010863359811847646,0.010396654756597628,1.0291135364775001,1.01373868512,1.04433703589,4.6802523213370954e-05,0.006824112440259473,Null
0.1539685058551,0.09838867187,0.20361328125,0.0005144863856480056,0.022625515545944264,0.003414306642649958,-0.21618652343,0.7734375,0.1255958655218225,0.3535079718962691,-0.9446209716756501,-1.009765625,-0.71264648437,0.007770048804857372,0.08792723446596672,1.023304563259,0.89966066274,1.18511684857,0.0020959878753065847,0.04566736182362686,Null
0.1538336181631,-0.17932128906,1.21154785156,0.10280812315169796,0.31983446114504216,0.18846435546635004,-0.14428710937,0.7548828125,0.053520851547790765,0.23076665116530987,-0.8685449218713,-1.14465332031,-0.00170898437,0.06866449066136855,0.2613831827185171,1.0122455887311002,0.57724788215,1.21613318159,0.01284547014458831,0.11305415867567795,Null
0.9785510253866001,0.77783203125,1.18029785156,0.00792408881926134,0.08879452897090583,0.22202697753605002,-0.09436035156,0.54907226562,0.013900024821526287,0.11760325121959281,-0.08118286132609999,-0.38391113281,0.09680175781,0.010336231009255731,0.10141276968020078,1.01822400765405,0.81426145278,1.27203082575,0.008711716758915088,0.09310294396591609,Null
0.9803808593718,0.77465820312,1.33923339843,0.020064581602628032,0.1412949351343313,0.247190551754,0.08728027343,0.48840332031,0.006694437342959142,0.08161473614638685,-0.1143408203099,-0.39367675781,0.044921875,0.011557059485475463,0.10723466877856287,1.02408608037345,0.80711721052,1.43535435741,0.02481991910854905,0.15714903599133628,Null
0.9949212646449002,0.65747070312,1.47033691406,0.04183169449043134,0.2040160190229659,0.20079406737900002,0.02600097656,0.37084960937,0.005777714929069259,0.0758210152558241,-0.09134582519324999,-0.32604980468,0.11218261718,0.011801020912479905,0.10836058235316708,1.0271738465742501,0.67967654909,1.48905988534,0.04277176604061617,0.20629567908808244,stairs down
0.96635864257385,0.66784667968,1.29272460937,0.02974765342539219,0.17204335255471287,0.21276977538675,0.08935546875,0.41979980468,0.0038261608247803776,0.061701134678841,-0.09890991210685,-0.30529785156,0.04614257812,0.006857307818098302,0.0826015815769154,0.9996304530848501,0.70510080147,1.38520366482,0.030021203851376972,0.17283257167594332,stairs down
0.9871313476522999,0.61743164062,1.40063476562,0.04502493298212034,0.21165965207665285,0.24665222167644998,0.11169433593,0.51354980468,0.008556721563533196,0.0922710027891511,-0.08778076171630002,-0.30603027343,0.10485839843,0.008464252678910766,0.09177108158628301,1.0292251043767,0.64444736744,1.4344256739,0.04563059327891705,0.2130784839267505,stairs down
0.9756262206998,0.68762207031,1.45886230468,0.02720206168865795,0.16451763242952003,0.2521594238244,0.06079101562,0.72961425781,0.013144270467676822,0.11436148440510222,-0.10939025878685,-0.29797363281,0.07006835937,0.007757095975488454,0.08785391565326506,1.02337624194825,0.72451321974,1.48928443259,0.029964955984734414,0.17267058581243866,stairs down
0.97052490234,0.82409667968,1.14636230468,0.006964657300632479,0.08324562459450537,0.26492431640180003,0.16284179687,0.40051269531,0.002813043792063925,0.05290537376395337,-0.129128417966,-0.32995605468,0.04602050781,0.008620665714185948,0.09261513043566379,1.0200839041144,0.85963344155,1.19336757875,0.006545559144913963,0.08070211489911149,stairs down
0.9817578124964002,0.79541015625,1.32287597656,0.018874682469346808,0.13704126771523997,0.2271850585902,0.06433105468,0.4521484375,0.007215501225850277,0.08473148009872733,-0.1307739257782,-0.33471679687,0.06103515625,0.00770941706126447,0.0875835028755881,1.0231365639274,0.84888929347,1.34068801682,0.01948286152299278,0.13923163151876738,stairs down
0.9632177734338001,0.806640625,1.30810546875,0.012178150517361777,0.1100784255191496,0.2295361328088,0.04943847656,0.38659667968,0.00536372299773642,0.07305411954672876,-0.1166186523412,-0.32104492187,0.07775878906,0.010766874970877147,0.10350381923399136,1.0039064711614,0.83806820746,1.36699767838,0.014486660603619349,0.12005926578403373,stairs down
0.9811962890579999,0.63525390625,1.32995605468,0.026192641713502947,0.16143629859772998,0.1978491210896,0.01623535156,0.36877441406,0.005921113604913728,0.0767561596022701,-0.0999780273414,-0.37756347656,0.06091308593,0.007961244732469747,0.08900246349853132,1.0130376327031998,0.67794095279,1.37660618192,0.02564363628885337,0.15973546289853455,stairs down
0.9735937499963999,0.67639160156,1.40454101562,0.045910110689404544,0.21373011050377885,0.1872436523402,-0.0302734375,0.30444335937,0.0054636685992014156,0.07373160961355318,-0.07319580077839999,-0.31103515625,0.15637207031,0.008489272036930055,0.09190661389010807,1.0008656692536,0.70025129107,1.43784465493,0.0463660791986404,0.2147888470164296,stairs down
0.9703173828092,0.63354492187,1.373046875,0.04634233117717379,0.21473383413260222,0.19362792968340004,-0.0458984375,0.40185546875,0.007767879783250927,0.08791496109499607,-0.0999926757788,-0.30236816406,0.07775878906,0.006221154233094674,0.07867686103251197,1.001395659553,0.65983868471,1.39761122475,0.046474949888630185,0.21504086853244206,stairs down
0.9840380859343999,0.66491699218,1.34594726562,0.032294200628997606,0.1792560448795315,0.22489990233979998,0.09106445312,0.51879882812,0.005252166543146547,0.07229042613258559,-0.0916162109344,-0.421875,0.07495117187,0.008769657887130786,0.09341204203792534,1.020667835311,0.72926841888,1.35978340722,0.0317849905948828,0.17783718857963424,stairs down
1.0002832031203999,0.72790527343,1.42883300781,0.01762701005818999,0.13243441776177006,0.18536376952780004,-0.06176757812,0.33862304687,0.009235815935829818,0.09586259362311594,-0.1248339843712,-0.37939453125,0.078125,0.008647648389645464,0.0927599598301834,1.0336128237681999,0.76197344116,1.44860066294,0.01757506503353166,0.13223913833795198,Null
0.9819287109338001,0.93249511718,1.0546875,0.0005589214162360882,0.023582341044834962,0.1544873046844,-0.0185546875,0.26806640625,0.003436106629145885,0.058471583662495025,-0.1300268554656,-0.23327636718,0.00903320312,0.0027119218943754612,0.05194576291579116,1.0055420064014,0.96552733479,1.07371871407,0.0005185852841058925,0.022715465165507022,Null
0.9731054687459999,0.80334472656,1.16467285156,0.008128696015084202,0.08993360070078804,0.23392822265219998,0.10217285156,0.396484375,0.004853357388201454,0.06949165850129387,-0.1374145507776,-0.37805175781,0.00170898437,0.008087801723531528,0.08970709400551258,1.0160974577628,0.8386452751,1.2236194899,0.009095364423546437,0.09513089719659279,Null
0.9751782226521999,0.87878417968,1.0625,0.0015627353096043905,0.03943249463394839,0.1922241210904,0.06701660156,0.33337402343,0.004973890344087529,0.070349277838277,-0.1320166015598,-0.27392578125,0.00463867187,0.005242762996796371,0.07222568228692886,1.0078771686276,0.92756453716,1.08605215441,0.0012614737860623957,0.035428327890715976,Null
0.9127294921832001,0.57592773437,1.03686523437,0.016766321623174037,0.12916071389961487,0.2896093749956,0.0478515625,0.75634765625,0.04466111650438944,0.21080277731061206,-0.16118896484019998,-0.34631347656,0.05651855468,0.00857761949135012,0.0923836099851774,1.0057397349653998,0.92081660597,1.09382129164,0.001078609263083661,0.03275997888839739,Null
0.569592285152,-0.10461425781,1.19848632812,0.09553686113774174,0.3083166827014929,0.7010009765588001,0.34167480468,1.18444824218,0.040550954377541866,0.20086861279367205,0.077966308594,-0.30847167968,1.10192871093,0.12451393654954862,0.3519820547510922,1.021894791759,0.48389535659,1.42130633395,0.037131923216879296,0.19221410874541675,Null
0.7234155273396,0.04284667968,0.98828125,0.11990729785473793,0.34540955598457934,0.36377929687079996,0.22924804687,0.63793945312,0.01867756163056519,0.13632378304027645,0.18402587890680003,-0.21008300781,0.96154785156,0.17615541932890164,0.41865814482971325,1.0007594180352002,0.91098624764,1.083837647,0.001184010825126938,0.03432332692209925,Null
0.3264239501943,-0.78869628906,1.13269042968,0.38015500819991616,0.6150237663366486,0.58013610839425,-0.388671875,1.32104492187,0.11148113640288615,0.3330521441469364,0.11621337890634997,-0.3125,0.72778320312,0.10051947561792314,0.31625445173125,0.9989090639255,0.22535928676,1.50379353881,0.048232736773786276,0.2190697904548168,Null
-0.11744628905839999,-0.22912597656,-0.01342773437,0.0028927264141270425,0.05364944344591477,0.719133300777,0.58935546875,0.8193359375,0.0028317310163372667,0.0530808097268267,0.6962548828094,0.58215332031,0.85070800781,0.0034895344835271652,0.05892441608628404,1.0111243924214,0.92026537659,1.17895564689,0.0025252079811794365,0.05012566150459802,Null
0.620974121091,-0.04797363281,1.12341308593,0.1605253581955755,0.3996532639734069,0.5571752929652,0.27172851562,0.83581542968,0.027728869022535015,0.16610305438920242,0.2919702148412,-0.173828125,0.861328125,0.09367877615666893,0.30530375411364596,1.0259062146957998,0.7885700143,1.24994132977,0.00938648192583257,0.09664134475576905,Null
0.9230133056603002,0.8154296875,1.02099609375,0.001045370362154305,0.032251255949862376,0.39448181151975,0.26794433593,0.48803710937,0.0019601814258061417,0.04416311264706226,-0.014000854491150001,-0.12255859375,0.09729003906,0.0021270109475200077,0.0460040856096761,1.0060750147994,0.93247832218,1.08097664018,0.0006888949652773452,0.026181109419788885,Null
0.9415234374964,0.8818359375,0.98254394531,0.00043178081512150744,0.020727322814244487,0.3181103515582,0.19421386718,0.52526855468,0.005351375071884724,0.07296998147543482,-0.09843994140260001,-0.22827148437,0.03186035156,0.008491225032666272,0.09191718504992927,1.0056448895149999,0.97666963371,1.03553916038,0.00023353406499276123,0.01524356896096834,Null
0.9465917968715999,0.9345703125,0.9560546875,2.2851785821093257e-05,0.0047683882908156495,0.2381372070274,0.19689941406,0.25085449218,0.00011422268110387621,0.010660748927648416,-0.218417968746,-0.23425292968,-0.20263671875,7.281832959042527e-05,0.008512005518235591,1.0003151183532,0.98624603383,1.01203663813,3.0427811260378274e-05,0.005502333341781138,Null
0.9541259765588,0.93969726562,0.98974609375,7.183647636009393e-05,0.008454424520823015,0.22742431640259997,0.14892578125,0.24670410156,0.00019243518909782838,0.013837377394301973,-0.21455566405919999,-0.23864746093,-0.20202636718,5.779719232492099e-05,0.007583416536317676,1.004182105204,0.99173446134,1.02894549371,5.134665141250246e-05,0.007147721186185143,Null
0.8244555664024,0.36975097656,0.95007324218,0.04070042270479568,0.20123846697704617,0.3869604492156,0.28491210937,0.7490234375,0.022137824309063543,0.1484154142517489,0.00033935547059998683,-0.19079589843,0.68798828125,0.09471710200723904,0.3069910690837811,0.9926299783054,0.86582279217,1.03752136668,0.000923400842582517,0.03031144731565295,Null
0.9448608398394,0.93872070312,0.95251464843,1.0230583157319187e-05,0.003190521938732375,0.29013671874639996,0.28002929687,0.30090332031,1.5874004844910586e-05,0.003974246446898586,-0.18030761718399999,-0.18774414062,-0.16760253906,2.340685782314404e-05,0.004825953121822499,1.0047330732316,0.99726661744,1.01436727114,1.2939181894397655e-05,0.0035881033966324977,Null
0.9316479492148001,0.88488769531,0.95080566406,0.00041364569757497194,0.02028737215824408,0.291997070308,0.27905273437,0.31518554687,6.736340833678402e-05,0.008186976932610723,-0.16846923827739999,-0.19323730468,-0.14868164062,9.282584765400429e-05,0.009610500424833988,0.9908270918542001,0.94361613315,1.00874341065,0.00044694916379943846,0.02108825308033933,lift down
0.82686706542575,0.56127929687,1.06005859375,0.02040380991231743,0.1424843530453637,0.48394348144095006,0.13110351562,0.78308105468,0.04393469776289252,0.20908138194032977,-0.01853332519515,-0.23083496093,0.29211425781,0.01869078039391616,0.13637201506154617,0.999010461469,0.90703266153,1.12852171186,0.0028604630788972773,0.05334942139801322,lift down
0.9849999999964,0.90539550781,1.02893066406,0.0007786838492938158,0.027835057572193858,0.2579858398396,0.12622070312,0.47875976562,0.00851016133870337,0.09201962036440844,-0.0888989257786,-0.18444824218,0.06677246093,0.0035193486486937374,0.059175602282108365,1.0277042957346,0.95583799281,1.10832667181,0.0012590411556189578,0.03539415135076505,lift down
0.7972851562470001,-0.50903320312,1.26208496093,0.1934109032193431,0.438684224361039,0.39798339843419994,0.18408203125,1.23889160156,0.055665128818030485,0.23534401027844395,-0.1331903076139,-0.32409667968,0.173828125,0.005987120123530818,0.07718279939800812,1.0162427510215999,0.55509618022,1.5408438912,0.03299755903474888,0.1811976027423518,Null
0.9663818359338001,0.71533203125,1.2646484375,0.007937495432903082,0.08886961210525546,0.24439208984,0.09167480468,0.50512695312,0.004762176538765738,0.06883578761132837,-0.16974609374580002,-0.37609863281,0.01147460937,0.006801368099878237,0.08226397303424414,1.0167506460614002,0.84417516981,1.36664991981,0.00809722748354666,0.08975935241594007,Null
0.8704443359328,0.64184570312,1.07653808593,0.01752411446973261,0.13204731688824256,0.4268823242146,0.10412597656,0.73425292968,0.030156279023421766,0.17322095031578788,0.017697753906999996,-0.21472167968,0.29504394531,0.020112456681344253,0.14146340303392088,1.0029416192926,0.87686682703,1.09978199174,0.0017859953723971963,0.0421552534749254,Null
0.9038671874959999,0.39538574218,1.1962890625,0.028298063637565242,0.16779920535979131,0.3831298828086,0.14233398437,0.87194824218,0.03281874992125906,0.1807059937347203,-0.09844482421680001,-0.41625976562,0.05456542968,0.009151755391328715,0.09542534576501188,1.0159683287958001,0.82960843429,1.31369496057,0.011237551897494327,0.10574196961475067,Null
0.9689037335977476,0.77856445312,1.32250976562,0.017187685503414873,0.13087789905381697,0.19004431193593854,0.04431152343,0.38073730468,0.00647315376725939,0.08031849782139734,-0.12580824711648464,-0.36437988281,0.01525878906,0.007808138396919487,0.08821275112142932,1.001061848504232,0.78857857434,1.38728716846,0.02002409261899446,0.14126482579170355,stairs up
0.98099404192625,0.72924804687,1.28674316406,0.019113467670952122,0.13806749791438205,0.17501571330289892,-0.27038574218,0.4052734375,0.01597576341326139,0.12622707586242862,-0.0717744218525266,-0.37377929687,0.14794921875,0.01279855492805831,0.11298015851530419,1.012675951358803,0.74860818186,1.32927354629,0.020433564836641476,0.1427558063593561,stairs up
0.9845626727207142,0.77624511718,1.29992675781,0.01951239515330458,0.1394490102593308,0.12934096978319728,-0.08471679687,0.42456054687,0.012964420269447097,0.11366760137287997,-0.06122033774302722,-0.24438476562,0.11975097656,0.005691339915101408,0.07531255948426166,1.0039119669063266,0.79334597705,1.31589188417,0.019881697989396704,0.14076247073102802,stairs up
0.9581210196174258,0.69030761718,1.31567382812,0.02668749636760844,0.1630932825773053,0.18436686197508254,-0.29260253906,0.61779785156,0.03304987570165038,0.18149600602846663,-0.0303733498339934,-0.25109863281,0.11975097656,0.003788867682182811,0.06145212094289527,0.9969628414753137,0.79786740944,1.35513440606,0.02236505538215326,0.14930252281252904,stairs up
0.977471136273898,0.78247070312,1.28442382812,0.021303952857474606,0.14576242371406126,0.06879843434685484,-0.12683105468,0.21215820312,0.0040614771035105525,0.06364400328630787,-0.002980221984059139,-0.15673828125,0.13220214843,0.006500471161819996,0.0805170589190663,0.9854589935500535,0.78996291577,1.29111235655,0.02089892056163787,0.14437015158146427,stairs up
1.0104077482841096,0.75854492187,1.36413574218,0.020964222584163063,0.14454212984919168,0.06382228903452054,-0.14270019531,0.318359375,0.011456763865370569,0.10685283511765584,0.013678981832157537,-0.15673828125,0.14221191406,0.006734556860906901,0.08192370420100269,1.021194195099418,0.76963027084,1.38349478533,0.021441511626340063,0.14617825348526806,stairs up
0.9913242421217288,0.79211425781,1.189453125,0.0072013975406808916,0.08474812616009375,0.1673496327468617,-0.09289550781,0.37854003906,0.010428358437672529,0.10198344690109104,-0.09847275753970743,-0.31469726562,0.11389160156,0.009245589041202734,0.09602603661844189,1.0197066612717287,0.85269102509,1.20583620756,0.00744853951585033,0.08619007814319146,Null
0.8855650820937288,0.44287109375,1.279296875,0.04426775898249759,0.21004213573127872,0.09668217028393222,-0.31726074218,0.39880371093,0.026617928217061104,0.16287325732580693,0.2353792869436949,-0.30737304687,0.90991210937,0.11697385869405869,0.3414342354526909,1.011389905493424,0.69430598799,1.34385794937,0.013334760914645817,0.11528034670000839,Null
0.04322309717471571,-1.00207519531,1.11682128906,0.26422029597925306,0.5131633424744892,0.5844722479844816,-0.70471191406,1.81188964843,0.2254508678225896,0.47402199478742174,0.003341623771939748,-1.04077148437,0.73754882812,0.23698172923160715,0.48599295076923466,0.9983541569554515,0.24720660886,1.81762838369,0.07123705535531352,0.26645600825287896,Null
0.6968719236934584,0.41076660156,1.28100585937,0.044008176616983266,0.2094998621223178,0.6627776526854154,0.37768554687,0.87133789062,0.02008628360558968,0.14153597768518517,0.18847819882823055,-0.05615234375,0.66027832031,0.040752434238826234,0.20160153368205827,1.0261056839159517,0.8449993068,1.38479900992,0.01213418672407502,0.11000752425345771,Null
0.5292711322772108,0.36779785156,0.80737304687,0.006166064338750907,0.07839063292763984,0.8239550947294217,0.5107421875,1.00646972656,0.009250648980279061,0.09601658287936064,0.2019130161790136,0.02648925781,0.49499511718,0.012781932059841615,0.11286476908430902,1.011212179780476,0.80918734411,1.17861546822,0.005369719129817849,0.07315363818044976,Null
0.5893607939625839,-0.76257324218,1.02844238281,0.19532528792522727,0.44121404549141563,0.559787827045839,0.00708007812,1.04431152343,0.06796673355757,0.26026651200349243,0.21539634345956374,-0.12438964843,0.63720703125,0.04271941836576624,0.2063396825936809,0.9954382555321141,0.62558611567,1.26652904882,0.021262728228851516,0.14557258255537664,Null
0.2276670481129956,-0.88269042968,0.93786621093,0.43936094934340125,0.6613814622087183,0.5531414552896475,0.06799316406,0.95324707031,0.07764041954939471,0.2780258823732809,0.3051402894375331,-0.04357910156,1.00415039062,0.04383093229494322,0.20889673163426112,1.0006763034989867,0.73085855089,1.26612641562,0.007951991320240517,0.08897730340639089,Null
0.60343933105275,-0.36450195312,0.90979003906,0.18205843969505692,0.4256150226396874,0.6124688720661,0.39208984375,1.40966796875,0.032132854353398424,0.17880769021949652,0.2928912353479,0.06176757812,0.98937988281,0.07787413665669092,0.27836085567731583,1.0439201457635499,0.73334493835,1.74219335888,0.026008295553690268,0.16086719390827273,Null
0.7719885253872499,0.33996582031,1.27941894531,0.05389965723346503,0.23158186230207603,0.48658508300389997,-0.03820800781,1.04663085937,0.06484938467520177,0.25401798706356554,0.20963623046590002,-0.08227539062,0.56909179687,0.022379126746170597,0.14922208654364724,0.9929984674501501,0.76775768596,1.38600719087,0.031211303426505178,0.17622498945771753,stairs up
0.9482092285119,0.72009277343,1.25,0.025392058762936102,0.15894998732029336,0.3319036865195,0.11889648437,0.55822753906,0.009725335150107447,0.09837026214439458,0.02891601562365,-0.10900878906,0.1943359375,0.005671407792696934,0.07512024197067958,1.0122245926521,0.7804314044,1.29997971042,0.026214237034827538,0.16150283542295288,stairs up
0.9505908203088,0.71398925781,1.29956054687,0.03001212687942916,0.1728064415611641,0.26246093749615,0.07092285156,0.40954589843,0.00686453535323411,0.0826451007408663,-0.020347290039099998,-0.25134277343,0.13220214843,0.010469693869883777,0.10206539766509685,0.9953372776994999,0.78204872309,1.31982594051,0.02948340856441548,0.17127752777756164,stairs up
0.9721362304647999,0.77746582031,1.3037109375,0.01962541863565864,0.13974008566792975,0.28985229491845,-0.07434082031,0.63317871093,0.02051889924975457,0.14288563522448924,-0.027185668945099998,-0.28662109375,0.15844726562,0.007649615451009581,0.08724315087016592,1.0273913831362,0.82918712592,1.34846243586,0.0219338427893635,0.14773006997702492,stairs up
0.10054687500009994,-0.56958007812,0.68640136718,0.23879127282836948,0.48743955160022423,0.6829956054648,0.22106933593,0.97595214843,0.026385727988852088,0.162030242081248,0.35221679687320007,-0.162109375,1.09130859375,0.1431279983695478,0.37737561974470485,0.99809031089125,0.83458576362,1.23011170914,0.010782460959472896,0.10357870753526292,Null
0.9380364990203001,0.5458984375,1.2998046875,0.03082501721992917,0.17513107129755565,0.31856323241845,0.08837890625,0.81127929687,0.028968327175552682,0.16977480831876948,-0.04273803710765,-0.28332519531,0.33764648437,0.01919699955014375,0.1382064200838479,1.01920017668145,0.78756852873,1.3854070773,0.0231637572229444,0.15181547495835093,Null
0.9823352050737,0.76940917968,1.28869628906,0.019057710804578968,0.13770411123331094,0.23525695800445,0.05969238281,0.42578125,0.00767375572806295,0.08738070124130748,-0.10379394530935,-0.26330566406,0.03796386718,0.0060731831744602486,0.07773555980751633,1.0206365463677,0.78607740503,1.36000400547,0.022153910732003984,0.1484693273991095,Null
0.9615692138635501,0.7255859375,1.40844726562,0.022172524916758442,0.14853168783857085,0.26921936034865,0.02062988281,0.61730957031,0.01742598349992793,0.131677080702863,0.02633972167845,-0.23669433593,0.24523925781,0.012648841009686966,0.11218554632678192,1.012957646908,0.77362583256,1.43638756976,0.02381016705860763,0.15391918731371534,stairs up
0.9717907714809499,0.7451171875,1.25561523437,0.01944006405718417,0.1390786242989851,0.19625793456715002,-0.08190917968,0.54345703125,0.013722686161915638,0.11685064283565606,-0.12022888183405002,-0.46765136718,0.08923339843,0.015360477547632891,0.12362716190180346,1.0125777030457999,0.77869403439,1.35860609912,0.020183361711345837,0.1417125432090932,stairs up
0.98138427733925,0.74499511718,1.34704589843,0.02600606362409827,0.1608602912653641,0.15696777343450002,-0.28747558593,0.47875976562,0.0231334729645522,0.15171620084793,-0.049881591794499996,-0.23657226562,0.17578125,0.007537968689959819,0.08660415028455634,1.0127429955115,0.76219966085,1.38855101197,0.023319404514477334,0.15232467788216375,stairs up
0.9866943359337,0.74768066406,1.275390625,0.025552226071258566,0.15945050937799563,0.06710876464650001,-0.23498535156,0.28308105468,0.011288568825961036,0.10598172475399346,-0.023334350586149997,-0.20678710937,0.10009765625,0.005075963312481884,0.07106745736213921,0.9972793251836998,0.75076353427,1.27966641046,0.025884334422994912,0.1604833721943801,stairs up
0.9803808593712,0.72302246093,1.32275390625,0.02777574112685531,0.16624338309003772,0.08753723144325001,-0.11450195312,0.228515625,0.009184301258037026,0.0955948730411147,-0.0331567382795,-0.24865722656,0.12121582031,0.00738770092509649,0.08573658740859125,0.9939726729397,0.747363812,1.33010700659,0.02618401572492375,0.16140971360577755,stairs up
0.9606738281208501,0.75646972656,1.17736816406,0.01226268483163526,0.11045981806737273,0.165768432615,-0.18469238281,0.4267578125,0.01617158933445434,0.12684924669773198,-0.09508605956749999,-0.34362792968,0.05993652343,0.007958712020101533,0.08898830518669869,0.9912983950558,0.82235700049,1.20630093427,0.012889014203109974,0.11324561418480816,stairs up
0.9721789550744999,0.74938964843,1.23583984375,0.018469493920864874,0.13556233419080888,0.179337158199,-0.00817871093,0.44287109375,0.009526665083358464,0.09736031921651486,-0.12169921874690001,-0.37902832031,0.0166015625,0.008126660483478182,0.08992233972189997,1.0041678458149,0.78768856046,1.28088369017,0.019792542377067734,0.14033381511660828,stairs up
0.99690917968405,0.75109863281,1.33032226562,0.022122090899135232,0.14836266526535424,0.13415039062140002,-0.16088867187,0.3779296875,0.01184981325141318,0.108584364367786,-0.023842163085599995,-0.16650390625,0.07666015625,0.005197732528685724,0.07191483759310241,1.0145358299254499,0.75934959141,1.33599552786,0.022194499372257412,0.1486052720309617,stairs up
0.98534179687035,0.79626464843,1.30773925781,0.01694039848584018,0.12982949007606467,0.13529113769205,-0.11486816406,0.380859375,0.007655045823993912,0.08727411182517954,-0.0207147216796,-0.15490722656,0.0869140625,0.004459780543673374,0.0666144251716924,1.0007587103717,0.79753547299,1.33057743732,0.017524970107615116,0.13205054054064694,stairs up
0.9745410156213999,0.73547363281,1.337890625,0.028349747705991808,0.16795237112783448,0.19845947265269998,0.01965332031,0.45739746093,0.01140327057638557,0.10651879751247496,-0.0225488281249,-0.27319335937,0.25415039062,0.009575870791201998,0.09761143087387865,1.0060071952147,0.75701251523,1.35104911623,0.026790523484487194,0.16326840131227094,stairs up
0.9241381835897,0.62707519531,1.20495605468,0.023901351558391504,0.15421363364047794,0.2699572753876,-0.07092285156,0.58679199218,0.022973797876708495,0.15119169582792882,0.1292285156231,-0.24877929687,0.52075195312,0.02555481288855817,0.15945858027749832,0.994174216598,0.7428280325,1.33425230963,0.027430916298224254,0.16520823743607074,stairs up
0.5495434570299,-0.76794433593,1.28857421875,0.4713268022457537,0.6848139661503151,0.24072631835629998,-0.50317382812,0.73840332031,0.065945688938931,0.25615612523271103,-0.26738403320040005,-1.08776855468,0.24353027343,0.09329603368080583,0.3046794274518741,1.0069963557119,0.41707344067,1.4860013585,0.04504061763711594,0.21169651520261348,Null
0.7249853515595001,-0.45043945312,1.01623535156,0.09424451537956371,0.3062242524730298,0.5226721191363,0.31701660156,0.74780273437,0.006913981202546252,0.08294221661213017,-0.1465441894533,-0.69177246093,0.18188476562,0.06785137104902052,0.2598309338661881,0.988186363681,0.71375590029,1.26431535141,0.011977520090130265,0.10916790961486628,Null
0.7428454589807,0.42297363281,1.03125,0.025527783343322993,0.1593742276110111,-0.0014990234373000177,-0.57421875,0.60668945312,0.1757295808807766,0.41815180613788183,0.4489892578089,-0.03796386718,0.88159179687,0.09626543260598965,0.3094900732543125,1.0213086386916002,0.88969333338,1.32850688044,0.006408868352210464,0.07985501869293758,Null
0.6853808593712,0.61267089843,0.84216308593,0.0034704826944355212,0.058763341301897934,-0.5165075683547999,-0.62951660156,-0.40075683593,0.002147631086636472,0.046226539251854985,0.4914001464808,0.30639648437,0.58264160156,0.00441284436520713,0.06626296207823111,0.9936261196995,0.92499875345,1.09357152572,0.0006924946049406305,0.026249421553930046,Null
0.6896850585900001,0.67321777343,0.70983886718,9.023229679200753e-05,0.009475290776965501,-0.4819384765583001,-0.509765625,-0.43713378906,0.00025234088225006086,0.015845478151157527,0.5220056152304999,0.47790527343,0.552734375,0.0002794549857503688,0.01667506254325953,0.9904492179079,0.97326171751,1.01271174094,4.9550085542370054e-05,0.00702156215629102,Null
0.7164819335894,0.61169433593,0.82238769531,0.003819673858124366,0.061648807683796644,-0.5030798339806999,-0.61010742187,-0.36779785156,0.005273416070848902,0.07243651696827132,0.45619018554220003,0.30041503906,0.55981445312,0.004267370549568045,0.06516159679458604,0.9933025715535001,0.92823519389,1.08166795959,0.0011947994253324367,0.03447934785064495,Null
0.6834826660116999,0.61376953125,0.87475585937,0.002947588390718,0.05415579792380877,-0.3225048828096,-0.58288574218,0.744140625,0.14877548526608417,0.38474875937389813,0.5454589843711,0.01440429687,1.19567871093,0.035650117912429224,0.18833976564408028,1.0233084630332998,0.91504281612,1.40706878243,0.007999570760125344,0.08921643854315592,Null
0.7101599121057001,0.49133300781,0.984375,0.019014722934010228,0.13754871616754616,0.5491882324189,0.05822753906,1.00512695312,0.05305714504638948,0.22976479130005437,0.3873669433557,0.02868652343,0.68212890625,0.03727422488262048,0.19258207018880905,1.0290776350414002,0.90909074456,1.2222142807,0.005815625779984665,0.07606936079056233,Null
0.5390136718735,-0.876953125,1.4052734375,0.5264463071209126,0.7237500090399364,0.3847216796852,-0.09313964843,0.91796875,0.06429842384552834,0.252936616025242,0.0611535644526,-0.52453613281,0.6396484375,0.07078736195318007,0.2653929636283038,1.0284741371708,0.33536969481,1.48965979982,0.04296648176499658,0.20676471980531785,Null
0.9980749511685001,0.8876953125,1.31579589843,0.004943825148690541,0.0701363388190964,0.19399658202890002,-0.18090820312,0.43469238281,0.01553973378202549,0.12434643184713971,-0.0374255371074,-0.13708496093,0.11376953125,0.0032808424521525137,0.05713526266581568,1.0268780744634,0.91783111839,1.36348271998,0.004377841585239744,0.06599963922108625,Null
0.9809936523406,0.9384765625,1.0234375,0.00023654822129060403,0.015341625734717654,0.1725146484343,-0.03833007812,0.24426269531,0.005141595535954048,0.07152543294712922,-0.06179565429319999,-0.15710449218,0.01550292968,0.0017845818909670772,0.04213856881186453,1.0013879307868,0.95228174303,1.05145101934,0.000279072199616218,0.016663638216732172,Null
0.9765527343714001,0.93664550781,1.037109375,0.0005280757908860432,0.022922377972880846,0.1843664550747,-0.00988769531,0.27307128906,0.005347880003641218,0.07294614865517583,-0.0781860351525,-0.1826171875,0.0263671875,0.0017167184520270936,0.041329588187725246,1.0003977821684,0.96012480415,1.05824875224,0.000520881572983139,0.022765701507272366,Null
0.3836950683574,-0.544921875,1.400390625,0.304409142968703,0.550351794086164,-0.01872680664120001,-0.7685546875,1.15380859375,0.28972863075199834,0.5369171142720619,-0.49759277343419994,-0.83410644531,-0.03771972656,0.08040648880902197,0.282850590179651,1.0198377972302,0.73371120646,1.58530038335,0.026405603518164445,0.16209125670613336,Null
-0.3318762207001001,-0.92907714843,0.29235839843,0.13982758625379657,0.3729992604852288,-0.237058105467,-1.01770019531,0.28137207031,0.12098197660632429,0.34695398358181834,-0.6325854492167999,-1.10717773437,0.42138671875,0.1567259697506751,0.39489535310246654,0.9873947695549,0.71432373018,1.11281016906,0.00703733246087712,0.08367882527003312,Null
-0.39143554687359994,-0.91748046875,1.07470703125,0.16622186501287028,0.406682622800392,0.3156445312484,-0.34362792968,0.95251464843,0.19053127361668395,0.43540626689173934,-0.13651733398399998,-0.99877929687,0.78601074218,0.33279415421829633,0.5754391222772439,0.9665750031746999,0.5395485304,1.3408923536,0.023439758354584582,0.15271725365135289,Null
0.7000024414029999,0.400390625,1.2724609375,0.06153673897469541,0.24744505507247852,0.5623974609345999,-0.13122558593,1.14660644531,0.08551706702186973,0.2917010142024885,0.017927246094499995,-0.84204101562,0.61145019531,0.11336016146164307,0.33584722814746415,1.017390836971,0.65523495966,1.44659887237,0.030797478048030263,0.17505282247878812,Null
0.7662890624963,0.1025390625,1.11169433593,0.06428465930629568,0.25290954116000486,0.4327954101524,0.05944824218,0.78515625,0.03045097290591434,0.17406526948643364,0.32673583984039994,-0.12976074218,0.7470703125,0.0317445636332492,0.17772405806497596,1.0002668728336999,0.80301734596,1.19215712727,0.006614152126862513,0.08112386434476726,Null
0.9369726562467,0.84558105468,1.03955078125,0.001015635255636175,0.031789260440563794,0.36997924804329996,0.2275390625,0.67736816406,0.009547392823191104,0.09746617802640642,-0.0514013671852,-0.18188476562,0.25903320312,0.006297105724161275,0.07915567064677342,1.015897046981,0.91014625478,1.19215712727,0.0021844483956511927,0.04662109129646084,Null
0.9569741623871144,0.68005371093,1.33325195312,0.03182567477516998,0.17795319071246304,0.2642512534942289,0.09338378906,0.64050292968,0.009596858624963532,0.09771956334156025,-0.02944384522631841,-0.16137695312,0.16088867187,0.006212442266189436,0.07862273585435271,1.001292481627612,0.70977463829,1.35605792671,0.03146309726850836,0.1769366113789822,stairs down
0.9406443840253768,0.60595703125,1.45361328125,0.03626832429371641,0.1899633422737617,0.2769278521469347,0.14050292968,0.71520996093,0.013160781579522612,0.11443184433854499,-0.04098986141502512,-0.22229003906,0.20336914062,0.007332263204383557,0.08541321713085707,0.9895057275179396,0.62871473962,1.47951436545,0.04074033782665963,0.2013345785277526,stairs down
0.9599633789024,0.61254882812,1.45361328125,0.04926231997079293,0.22139559248309115,0.264138183591,-0.01245117187,0.72241210937,0.01755785534119534,0.1321743774885638,-0.0010766601556999999,-0.21826171875,0.2275390625,0.006707986808514119,0.08169728804845085,1.0050819184395001,0.62936603727,1.47951436545,0.05454340361498978,0.23296069753697687,stairs down
0.9404284667934,0.51733398437,1.10522460937,0.017640114578011772,0.1324836367447758,0.2800854492149,-0.00463867187,0.77038574218,0.03045741949237309,0.17408369365024176,-0.0539404296863,-0.52685546875,0.57238769531,0.03368010810804852,0.18306203202059207,1.0184251621587,0.77474457661,1.2353082702,0.009992033187723648,0.09970994444780837,Null
0.6160858306100995,-0.15258789062,1.02062988281,0.10289041585201099,0.31996644079626824,0.6399994655588557,0.369140625,1.46765136718,0.05826403512712136,0.2407782471603143,0.17350989194467664,-0.09094238281,0.52795410156,0.031873044367206206,0.1780855749553297,0.9915565237781593,0.68070253676,1.71377491064,0.027632868942739874,0.16581734524115907,Null
0.93502136230035,0.39953613281,1.07116699218,0.006404463250123048,0.07982757001107095,0.3751751708945,0.17004394531,0.912109375,0.021004545415720277,0.1445666721227326,0.035955200194300006,-0.23486328125,0.52795410156,0.02064403828562285,0.14332068271605022,1.02957312411455,0.93619156765,1.21961960579,0.004126730706405501,0.06407883467162519,Null
0.9499290887992964,0.78491210937,1.1416015625,0.008785416794505934,0.09349475371066532,0.34947442289190944,0.212890625,0.56433105468,0.006593865034546707,0.08099833352837023,-0.03792644864864322,-0.23547363281,0.1142578125,0.006993414498973996,0.08341625568524993,1.0183011204716081,0.85820205577,1.23425217512,0.011316024722300632,0.10610919034871544,Null
0.96406799316025,0.73852539062,1.24694824218,0.014460627592015827,0.11995134202690584,0.2892779540982,0.17114257812,0.53991699218,0.006162438257470435,0.07830470015384187,-0.0751263427714,-0.29443359375,0.0712890625,0.0065446905717575984,0.08069676027511148,1.0151003744003502,0.78894398998,1.27898591899,0.015222300678919902,0.1230698548610719,Null
0.9578698730428001,0.62902832031,1.41455078125,0.03266298925308467,0.18027666046058,0.25915893554355,0.08666992187,0.58447265625,0.007893723146082476,0.08862423218483793,-0.051670532225349994,-0.22998046875,0.1572265625,0.007185226315630902,0.08455353442673315,1.0010460116133002,0.66389550745,1.41927908157,0.0329226161905432,0.18099172110787412,stairs down
0.9655099745373134,0.62463378906,1.45043945312,0.043797713956984,0.2087577899925441,0.2797596490168159,0.10681152343,0.70251464843,0.015365949364352666,0.12365072525091504,-0.009961787740547266,-0.16711425781,0.14855957031,0.004512730832824632,0.06700954734697437,1.0123338315779602,0.6535021268,1.48034913578,0.04935958907601792,0.22161682919199155,stairs down
0.9340148925746502,0.12414550781,1.43774414062,0.08464433466214247,0.29020874037291117,0.37296569823845005,0.04467773437,0.84484863281,0.04513917740237059,0.21192801021893906,-0.08338562011455,-0.3486328125,0.06066894531,0.010343200387021715,0.10144695355251732,1.0395041926672002,0.51455366213,1.56519052602,0.07505615555527134,0.2732780173696651,stairs down
0.9563748920346232,0.21118164062,1.39050292968,0.0533393924532298,0.23037221035798486,0.31456906112165833,0.06811523437,1.36657714843,0.03538243544040495,0.18762898032363587,-0.039476557591005025,-0.18920898437,0.10778808593,0.004929506825423974,0.07003381636282177,1.0231966690823113,0.25349157657,1.91191275406,0.06172450167888718,0.24781914434445212,stairs down
0.9946582031214001,0.41345214843,1.55883789062,0.03381893117235815,0.18343891767151366,0.28513122558199994,-0.23937988281,1.36657714843,0.035885220840132404,0.1889597701520928,0.03778503417969999,-0.16491699218,0.333984375,0.013130799441105599,0.11430286717270075,1.0577829682127,0.56219879669,1.91191275406,0.0357672708546842,0.18864897163889016,stairs down
0.9695947265583,0.72534179687,1.34313964843,0.020100779772963796,0.14142233159617676,0.29938171386400003,0.15515136718,0.57397460937,0.012626357844848373,0.1120857977427298,-0.0904608154288,-0.36010742187,0.06555175781,0.01112767622618593,0.10522375133521424,1.0284305403432001,0.8162434338,1.45624445824,0.024012730611465583,0.15457252976647648,stairs down
0.9578559837489056,0.76354980468,1.18383789062,0.013106552739152894,0.11419871281720892,0.24390802335577114,0.02380371093,0.42626953125,0.007702324927176169,0.08754430251400062,-0.10670342136741294,-0.29919433593,0.02917480468,0.006731212613244615,0.0818396236139819,1.0008470296646768,0.82574565525,1.24252812495,0.014143493347781531,0.11863021414983349,stairs down
0.9871459960902,0.66247558593,1.41076660156,0.044805728161235694,0.21114378873277215,0.19072265624620002,-0.0341796875,0.4482421875,0.010943536782439487,0.10434950454375569,-0.0746020507788,-0.3154296875,0.14624023437,0.010619912919827841,0.10279500647029846,1.0178656920423998,0.6903659408,1.48140528907,0.04661766846355229,0.2153707968161759,stairs down
0.9666040039022,0.63537597656,1.53979492187,0.05637291034254681,0.23683548254185663,0.228859863277,0.09704589843,0.48510742187,0.007124472916445876,0.08419531193518821,-0.0293603515614,-0.27990722656,0.16723632812,0.008842685258047923,0.09380016967872544,1.001081185211,0.65805774294,1.54988078247,0.0576653230290757,0.23953495864681282,stairs down
0.9506148908566836,0.548828125,1.41589355468,0.0478919278617268,0.21829169683624655,0.2631995426316081,-0.021484375,0.52490234375,0.013440196908678217,0.11564021026764505,-0.023958905856783917,-0.30041503906,0.49047851562,0.016985345168153407,0.12999996798017338,1.002031862355829,0.66184748193,1.44741854458,0.04761201713412905,0.2176528446095315,stairs down
0.8660687255823001,0.32556152343,1.36328125,0.07383348081859334,0.2710430102668216,0.3546191406218,-0.01867675781,0.98645019531,0.053061408589262525,0.22977402278394354,0.1510180664053,-0.54284667968,0.6708984375,0.07655805888945998,0.27599867498778446,1.0306129482240498,0.65350031404,1.43038499212,0.03910438514173058,0.19725329709797482,stairs down
0.9633242478981094,0.76037597656,1.296875,0.015299111135500509,0.12338150653451624,0.25099113805567164,-0.07739257812,0.51013183593,0.00987040975174817,0.09910248854378137,-0.09778014225427861,-0.36022949218,0.07019042968,0.008411791693467556,0.09148738701892085,1.0093076486963681,0.81220368337,1.3110855519,0.015339742976157167,0.12354523805846405,stairs down
0.9722412109338001,0.79565429687,1.21606445312,0.010985929762346443,0.10455142329750806,0.20885742187140002,0.03259277343,0.48901367187,0.00956594761893685,0.09756084194410257,-0.1100390624978,-0.30993652343,0.12854003906,0.010154924296379523,0.10051939949530948,1.0097106102358,0.81875076585,1.2527772152,0.012081147166874062,0.10963914187478709,stairs down
0.9765649414022002,0.62194824218,1.40979003906,0.036256088377785094,0.18993369352459866,0.19470214843400002,0.0322265625,0.474609375,0.007755949868662563,0.08784742522874105,-0.0646118164044,-0.248046875,0.13464355468,0.008220416966116634,0.09043956480040166,1.0054398968498,0.67535335025,1.47398487028,0.03700965322446957,0.19189738132227657,stairs down
0.9772323531680904,0.63916015625,1.46960449218,0.05069697924614259,0.22459345617462562,0.21160244581889445,0.03332519531,0.44213867187,0.007236392449615906,0.08485298267275027,-0.04972003572396984,-0.32336425781,0.15844726562,0.00968151865386991,0.09814717421486481,1.0087538556914069,0.65436931607,1.48784539956,0.0521837546896449,0.22786295172006651,stairs down
0.9410894775351,0.60998535156,1.36743164062,0.046353456677437566,0.21475960838586566,0.2606530761683,0.01928710937,0.52014160156,0.009781895077770409,0.09865589491957161,-0.07434143066185,-0.28735351562,0.05163574218,0.007442300118315646,0.08605282457725642,0.9873944272157,0.66034490383,1.41642459093,0.047666419972308915,0.2177799069529771,stairs down
0.9486909932722887,0.66198730468,1.27526855468,0.030534324346475517,0.17430551421297683,0.25724526779751244,0.06384277343,0.51196289062,0.010351924294217392,0.10149099557744463,-0.07633524272875622,-0.31628417968,0.107421875,0.007717014624896834,0.08762774399304299,0.9934241395675123,0.70251435148,1.33944427607,0.0336541663745298,0.1829938051163889,stairs down
0.9961645507776001,0.79748535156,1.23449707031,0.016645357291110736,0.12869394121191247,0.19949218749640005,0.01354980468,0.38024902343,0.007132849238078911,0.08424479207576287,-0.11420654296640001,-0.29406738281,0.04516601562,0.006834611874495764,0.08246477317693468,1.0290513074404002,0.84163689033,1.26393151895,0.016781146251289486,0.1292178026435717,stairs down
0.9802856445275999,0.75671386718,1.22888183593,0.013677160494321383,0.11665665301151827,0.24952392577739999,0.11828613281,0.41516113281,0.0062348514645130795,0.07876342556790249,-0.11915771484099999,-0.25415039062,0.0283203125,0.007245753883340775,0.08490892246356722,1.024698050215,0.80967148538,1.26577375267,0.014509123925694301,0.12015231294513573,stairs down
0.9558666992146,0.60681152343,1.37377929687,0.03963675643343292,0.19859147174857675,0.19833007812120002,-0.04162597656,0.35681152343,0.00818685493269461,0.09025475421290081,-0.07659912109200001,-0.30224609375,0.11145019531,0.010558199792267216,0.10249589647057038,0.9887381103592,0.63615046925,1.43534878771,0.039568083550113,0.19841936178801312,stairs down
0.974316160878593,0.63415527343,1.39270019531,0.04954734624049542,0.22203235034808766,0.2118220496977387,0.025390625,0.43432617187,0.007926615420459434,0.08880756264060886,-0.048872291141055284,-0.28295898437,0.14294433593,0.007374197691934711,0.08565711542029648,1.006626080821407,0.69698549301,1.40507391917,0.048016574864828424,0.21857558313750333,stairs down
0.9466789587181592,0.60571289062,1.484375,0.05473969082781636,0.23338242019811328,0.23955478952532339,0.08410644531,0.44763183593,0.004472014705955442,0.0667065654682699,-0.06066894531004975,-0.2705078125,0.08581542968,0.005563798397542459,0.07440509262476568,0.9846908301619404,0.66483294728,1.48838315699,0.052366003105184106,0.2282662386919085,stairs down
0.9531811523396,0.57397460937,1.47900390625,0.04797570322620061,0.21848529632464883,0.2398681640588,-0.01843261718,0.47302246093,0.011944392218373116,0.1090168347425353,-0.0326733398434,-0.30004882812,0.21484375,0.013584303262278065,0.11625997482352503,0.9973534586153999,0.6504655056,1.48606468201,0.045810600747509,0.21349835536549563,stairs down
0.9562573242148001,0.57287597656,1.49377441406,0.06112864066005689,0.24662318921130796,0.26942871093340004,0.01538085937,0.77734375,0.021623852480812143,0.1466824230042853,-0.0418896484364,-0.337890625,0.11743164062,0.009812303139955656,0.09880911711100286,1.0071080401727999,0.61552588202,1.6307927375,0.06694473442729364,0.2580891527266444,stairs down
0.9815454101526001,0.77319335937,1.26782226562,0.018519838664954436,0.1357469685541068,0.2664941406216,0.05712890625,0.58740234375,0.014201925411898091,0.11887352852859462,-0.092211914061,-0.373046875,0.10095214843,0.012496857187481792,0.11150951933150992,1.0314434999724,0.80403170667,1.41844522861,0.02419134753125177,0.15514635282079792,stairs down
0.9538764378493969,0.77722167968,1.21704101562,0.012255516781557093,0.11042613490515722,0.2951347312695477,0.13696289062,0.56457519531,0.009363933188359676,0.0965239775792246,-0.08146629141557789,-0.28015136718,0.08630371093,0.007707203012377211,0.08756981985249503,1.0094164304053266,0.84003417052,1.28130639347,0.013949375179105956,0.1178103468138384,stairs down
0.9506016062225869,0.59484863281,1.27954101562,0.020383658582563746,0.14241575525844946,0.227600401309801,0.08862304687,0.48571777343,0.005916692782064787,0.0767284595151431,-0.07445317358318408,-0.259765625,0.05993652343,0.00632325758954442,0.0793208585213348,0.9860510675493034,0.64142639927,1.30786611909,0.021258992242870735,0.14544148690215314,stairs down
0.9542993164026001,0.60681152343,1.42578125,0.04135639816714787,0.20285368169277118,0.2802880859336,0.099609375,0.6328125,0.011489073020196878,0.10691879000014867,-0.0129638671864,-0.1435546875,0.15576171875,0.006048168368759709,0.07757530229986803,1.0034528344142002,0.64695310167,1.49696609522,0.04130476253111747,0.20272700540002528,stairs down
0.9510351562464,0.67016601562,1.43579101562,0.04348025228532841,0.2079972380198876,0.25395751952760004,0.06494140625,0.53588867187,0.0075399876180703195,0.08661574729793635,-0.018347167969,-0.20556640625,0.16394042968,0.00663959815227989,0.08127976477278026,0.9912845994781999,0.70196341887,1.44737785305,0.04424652302974574,0.20982204463448784,stairs down
0.9611352539022,0.65270996093,1.44384765625,0.04098612752405361,0.20194354876161144,0.2825952148404,0.0849609375,0.53369140625,0.0123050736960736,0.11065056858233144,-0.0213281249996,-0.2275390625,0.18432617187,0.009232629506955182,0.09584605552353423,1.0127913062857998,0.70052172555,1.46192712975,0.04076472577463924,0.2013973737310545,stairs down
0.9785561106270853,0.62487792968,1.50598144531,0.04895491597861951,0.22070095463253409,0.21786913080703518,-0.07995605468,0.54418945312,0.014511775918213085,0.12016177604020604,-0.027436989635025125,-0.1904296875,0.10729980468,0.0064177285761176815,0.07990919023351058,1.0138230746559296,0.64728753254,1.59802112749,0.04981842887661224,0.2226389117223462,stairs down
0.9885290345113432,0.67016601562,1.52978515625,0.042283727811462925,0.20511791975941734,0.22345486920587063,-0.22399902343,0.46826171875,0.017586923978280558,0.1322853992096643,-0.06402436061731344,-0.47692871093,0.10070800781,0.013352564588974065,0.11526549318584976,1.0299498091993036,0.72196297254,1.59166364521,0.04349957750317955,0.20804605666704193,Null
0.9032006835898,0.51391601562,1.11828613281,0.027309032834229127,0.1648407949206081,0.3905688476516,0.02978515625,0.88037109375,0.04902702971915764,0.22086623682799925,0.0498535156252,-0.35302734375,0.42700195312,0.040420253072125475,0.200544637940696,1.0403871320538,0.90809577389,1.2176937637,0.0045909770042077075,0.06758714462963107,Null
0.9809337213377386,0.90502929687,1.03625488281,0.0005655248616583327,0.023720940710323078,0.17293866794562815,0.00646972656,0.26501464843,0.0020663302258944628,0.04534254797560585,-0.09070008243929649,-0.25170898437,0.00915527343,0.0025514160257182786,0.050384470223069654,1.0024720979216584,0.92748658736,1.07225737716,0.0005381573198116498,0.023139857641564968,Null
0.9818041992158,0.78186035156,1.12219238281,0.005310263112608928,0.0726891449739635,0.2191845703084,-0.03979492187,0.59106445312,0.01193046819025123,0.1089532736970302,-0.0959765624966,-0.37536621093,0.05187988281,0.0059338182418643545,0.07683846140218473,1.018067980017,0.79108390984,1.23329361495,0.007828268207900365,0.08825603020111919,Null
0.9779858398400001,0.78332519531,1.1962890625,0.0034520426048254426,0.05860701657482076,0.19696533202799998,-0.01708984375,0.40710449218,0.00891476732388476,0.09418170463134194,-0.121477050778,-0.31298828125,0.02429199218,0.007790102437450108,0.08804062656105338,1.0129345566764,0.83955433316,1.29562484279,0.004048271868441198,0.06346676696586169,Null
0.8407079592233333,-0.09350585937,1.30285644531,0.09864362200497814,0.3132935647542033,0.36499691483626867,0.07263183593,1.26049804687,0.09535843047509542,0.30803248274001965,-0.17130655316900498,-0.68823242187,0.1083984375,0.03197035858854209,0.17835723163962636,1.0310753810422886,0.65380761372,1.43589578657,0.03124573595017492,0.17632437303883214,Null
0.31008865126256274,-0.65197753906,1.21545410156,0.32963202569328515,0.5726915254769516,0.6343613821013568,0.06164550781,1.39782714843,0.11334974722787029,0.33582756067382596,0.2224654767955779,-0.86022949218,1.10009765625,0.18269220392911886,0.4263498008127753,1.0635847334692965,0.64348657505,1.631438325,0.04058087488244781,0.20094016743315324,Null
0.14141113281279993,-0.79455566406,1.03454589843,0.37904968881914924,0.614129009553411,0.6389697265586,0.35852050781,0.90222167968,0.01960225809756625,0.13965760561844964,0.024636230468199988,-0.58666992187,0.75915527343,0.13373514377007104,0.36478276830357637,0.9689548063392001,0.51020205293,1.23060770007,0.01983728874575005,0.14049235673879665,Null
0.7340283203092,-0.39733886718,1.12463378906,0.1460506504848194,0.3812091253267625,0.408637695308,0.16455078125,0.85461425781,0.02626811509150218,0.16166871842148273,0.22876708984279998,-0.22424316406,0.95471191406,0.12122799428075891,0.34730657107137364,1.0202683534283998,0.78535225542,1.32565330625,0.0092947090342736,0.09616774661549594,Null
0.18672931727970152,-0.37756347656,1.04455566406,0.13823256352807925,0.3708703807685674,0.22700341067960197,-0.12927246093,1.14978027343,0.11931169254401425,0.3445549332600609,-0.7839598394715422,-1.12097167968,-0.02587890625,0.10938082963515405,0.3299039957368482,1.022338105935224,0.70908527339,1.46677624196,0.021020380221177852,0.14462296226776142,Null
0.48410325553517575,-0.12268066406,1.19995117187,0.2696424039912241,0.5179646870554926,0.14874298249005027,-0.19323730468,0.51428222656,0.04224281944151224,0.2050135214246411,-0.6106496839627136,-1.03271484375,-0.263671875,0.1161286313937728,0.3399192116253435,1.0204671828376886,0.55383456833,1.36448215941,0.013953350913497514,0.11782713427824534,Null
0.9329985813079603,0.87670898437,0.96911621093,0.00044075860758653975,0.020941962150024872,0.2692415607471144,0.19348144531,0.29296875,0.0002983830135108641,0.017230743480950914,-0.28852016771203975,-0.34973144531,-0.26147460937,0.0004146675461572125,0.0203126690402693,1.0134022969206469,0.96816646013,1.04853570935,0.00038703690982689324,0.019624254203958563,lift up
0.7272348068435176,-0.0546875,1.49377441406,0.1171419834044075,0.34139907765175753,0.6445662148594472,0.2216796875,1.64331054687,0.09489197040652739,0.30727044494082534,0.06727423739758796,-0.47814941406,0.87158203125,0.10246192156239163,0.31929146173118994,1.0899576145629648,0.65805365566,2.28145833893,0.0741423598625527,0.2716059373244196,lift up
0.6942724609356,-0.27465820312,1.14916992187,0.17724050782836592,0.4199455980114854,0.5070141601542,-0.18347167968,1.26513671875,0.19761940714606027,0.44343129130715386,0.08553466796679998,-0.27746582031,0.59802246093,0.04017419686147203,0.19993330357187786,1.068939611377,0.75083127247,1.40075949541,0.0168048608424499,0.12930907368873096,lift up
-0.31393812188636816,-0.35266113281,-0.193359375,0.0010966103053261574,0.03303262830388831,0.5848370452386568,0.375,0.94384765625,0.00675109989608099,0.08196043151673217,0.7703796690333334,0.65588378906,0.90393066406,0.002881454490258884,0.0535454843640431,1.0219408172505968,0.97161906451,1.16551267297,0.0003910456212967333,0.019725620920347905,lift up
-0.44658325195015,-0.66845703125,-0.13500976562,0.01423419947463515,0.11900852270851014,0.8287457275357,0.64501953125,1.03637695312,0.005705094933068425,0.07534301200777072,0.3560040283165,0.06872558593,0.65588378906,0.008523275306752745,0.0920904931587348,1.0189428476815998,0.80980943891,1.16551267297,0.0030861105870670412,0.05541371702143528,lift up
0.6888360595674999,-0.36206054687,1.00573730468,0.20193260296833243,0.44824428602436284,0.46636901855095,0.19689941406,0.88684082031,0.040787829376005315,0.20145443710458522,0.1622259521478,-0.13061523437,0.81665039062,0.06563299673978537,0.25554810067008216,1.00986615282855,0.76787684599,1.22796778752,0.00532105857868558,0.07276299393092722,lift up
0.28118681787804023,-0.36962890625,0.9921875,0.20851999864812593,0.45549111896823996,0.6020311518501507,0.15710449218,1.23059082031,0.08462432650385952,0.29017077494465365,0.2219391635915577,-0.48217773437,1.08068847656,0.21547684553734742,0.4630270481500695,0.9810023262916582,0.43087192631,1.30192596883,0.034638309759705006,0.1856454898499181,lift up
0.56209167480125,0.02795410156,1.09240722656,0.16514480736946113,0.40536290325165897,0.5255670165977999,0.17053222656,1.03198242187,0.08230521012418944,0.28617072539581767,0.27886535644324995,-0.107421875,0.85083007812,0.08788448525289151,0.29571111380302745,0.9999450457079498,0.8677807746,1.12582492386,0.003719962449770668,0.06083882508334472,Null
0.9885247802697501,0.80444335937,1.16687011718,0.008229886092284,0.09049163862933735,0.23090515136349998,0.05285644531,0.53015136718,0.013941642692537228,0.11777917676344381,0.050938720701500004,-0.14868164062,0.23449707031,0.0059395872151480926,0.07687580424992217,1.0243142363456998,0.81219859218,1.27111272463,0.011903607073684064,0.1088305519526371,Null
0.98652587890235,0.87915039062,1.06616210937,0.0018828288934173692,0.04328296141613097,0.12664978027005,-0.06652832031,0.2578125,0.00678981098940836,0.08219405048092787,-0.0224194335934,-0.19714355468,0.12829589843,0.007851136155446308,0.08838484301433747,1.0020929648298,0.89390378709,1.08195220575,0.002037140285050074,0.04502171235775938,Null
0.9873901367146999,0.83288574218,1.2001953125,0.007980680495662222,0.08911103799857742,0.18792785644165,-0.02868652343,0.4287109375,0.009589581333410464,0.09768128493597641,0.005145263672150001,-0.15124511718,0.13232421875,0.005510205262024808,0.0740449474016606,1.0121439103476002,0.84805360613,1.25392403396,0.008856687988669548,0.0938744083801661,Null
1.00125732421535,0.78747558593,1.2333984375,0.013913521065697347,0.11766033086970672,0.1938531494101,0.04870605468,0.41479492187,0.008801231327106201,0.09358004686080613,0.014398803710449999,-0.18701171875,0.17944335937,0.008843458371683243,0.09380427005112736,1.0271564693222002,0.80279580691,1.27824946615,0.016736287053786165,0.12904497517732813,Null
0.9825085449184,0.71948242187,1.421875,0.032783508538731514,0.18060894495023733,0.19303527831635,0.0615234375,0.38940429687,0.006052829751695485,0.07760519056697823,0.0618695068336,-0.14135742187,0.25988769531,0.008036368872029994,0.08942140139625326,1.0101022759536002,0.72552946956,1.42778140824,0.03290978002920529,0.18095643434003464,stairs down
1.01273925780915,0.59680175781,1.45422363281,0.056276419210632464,0.23663270508232648,0.13743896484025,-0.09448242187,0.40075683593,0.008431806486289183,0.09159501871749215,0.02488708496115,-0.07592773437,0.16870117187,0.0036007971522072986,0.059856437969914834,1.0274160213132,0.60628455791,1.49028751983,0.0578225499947971,0.2398612875076408,stairs down
0.9772454833949001,0.72668457031,1.39379882812,0.028936256430471232,0.16968080371190747,0.2032690429645,0.03491210937,0.48193359375,0.013796007627117662,0.11716239835792913,0.0687786865216,-0.10693359375,0.31701660156,0.010210215832054701,0.10079268204038638,1.01098045125445,0.74567638327,1.42436422189,0.031812905561296706,0.17791526363269178,stairs down
1.0222808837849502,0.75415039062,1.35656738281,0.01748949917362051,0.13191683621794606,0.2172961425743,0.00073242187,0.55407714843,0.02040079957721088,0.1424738417370881,0.14074645995755,-0.06262207031,0.37109375,0.013301360321941291,0.11504283341578295,1.06802979689845,0.76482994293,1.46213171083,0.02244566696991875,0.14944376412239205,stairs down
0.9779760742143501,0.75085449218,1.23840332031,0.013367469939857919,0.11532836854026259,0.2240618896442,0.02319335937,0.64526367187,0.012320593969480237,0.11072032785190276,0.022864379883149998,-0.12109375,0.24694824218,0.007721029662891896,0.08764944103973189,1.0118893725129998,0.79856115417,1.35867954419,0.016568500397331352,0.12839648708334933,stairs down
0.9912762451131001,0.7822265625,1.35192871093,0.01654903461531409,0.12832104052819054,0.1746936035115,0.01013183593,0.43933105468,0.009099197326231967,0.09515093977255719,-0.01502746582075,-0.23620605468,0.25268554687,0.010039789801606682,0.09994794071214598,1.0152765830070498,0.80064165712,1.38342218374,0.01818624682685078,0.13451882988160624,stairs down
0.9919525146447,0.73828125,1.40380859375,0.02178438628400492,0.14722589565896652,0.17496276855130002,-0.01586914062,0.49890136718,0.01196086987731998,0.10909200487631245,0.0301171874993,-0.13452148437,0.25268554687,0.00780299173485459,0.08811343130408847,1.0165168468385999,0.7462273523,1.42910679765,0.023641018513353294,0.15337148829161998,stairs down
0.9677691650350999,0.66137695312,1.4384765625,0.040882161271475315,0.20168725905499815,0.12745239257475002,-0.07946777343,0.37377929687,0.007358891758689452,0.08556925440773692,0.045459594725199996,-0.18493652343,0.27282714843,0.009172161933507759,0.0955316760234019,0.9849746764854,0.67225500937,1.46366764411,0.042049125114434656,0.20454554380103832,stairs down
0.9521643066371501,0.66564941406,1.29943847656,0.0352245530757659,0.1872122600429445,0.13801513671555,-0.04699707031,0.37292480468,0.010031186090272736,0.09990510577453673,0.040582275387799994,-0.12976074218,0.16845703125,0.004526934394127934,0.06711407990993615,0.9710560176285999,0.68223242223,1.30202611861,0.03712807296934406,0.19220414304717093,stairs down
1.01078918456685,0.6982421875,1.48999023437,0.036139795929467304,0.1896288399738288,0.1426721191387,-0.09167480468,0.43054199218,0.018096705283570595,0.13418726376654658,0.04903991699080001,-0.13732910156,0.40148925781,0.01151849778362212,0.10705561776340376,1.0332253804418001,0.70601362686,1.49324539392,0.037474618200897904,0.19309905517607642,stairs down
0.9942712402301,0.79968261718,1.21313476562,0.013058864218163721,0.11398934115553482,0.1800469970672,-0.02880859375,0.3310546875,0.005800364484358174,0.07596948507089135,-0.0190209960928,-0.15551757812,0.13439941406,0.005335830377757622,0.0728639226632003,1.01530632174315,0.81301703874,1.26276368607,0.014654447646918298,0.12075253789748565,stairs down
0.9907659912071,0.791015625,1.22204589843,0.011552363618730058,0.10721288075896668,0.1636859130824,-0.06677246093,0.30603027343,0.005391092722264245,0.07324027074398977,-0.055225830075999995,-0.18188476562,0.08972167968,0.004521224544829894,0.06707174086085543,1.0103285553088999,0.81461167107,1.25028344755,0.012114359389130115,0.1097897426546964,stairs down
0.98152038573845,0.75048828125,1.29455566406,0.01424294300981542,0.11904506833450239,0.135137329099,-0.01916503906,0.29174804687,0.006456692658633648,0.08015241228647133,-0.032210083007,-0.16796875,0.11987304687,0.004738013749601311,0.06866093271179255,0.99678545706785,0.78420503606,1.32742927504,0.014318442720971975,0.11936017136116685,stairs down
0.9925817871052,0.61022949218,1.39306640625,0.04320738928271469,0.20734356111608848,0.1342211914029,-0.1845703125,0.4541015625,0.012505445174783886,0.11154782807795931,0.060338134763299994,-0.08117675781,0.31408691406,0.007461739333299492,0.08616513585338907,1.0122117379198,0.6294704063,1.42784610838,0.04538765965831404,0.2125105205866817,stairs down
1.0017919921835001,0.65002441406,1.44958496093,0.05382073116669451,0.2314122458100717,0.10693542480250001,-0.02795410156,0.30883789062,0.005769629645504608,0.0757679450511698,0.00502136230395,-0.21276855468,0.12670898437,0.005452532216110654,0.07365642914932885,1.0125258710563,0.65427763042,1.4614355034,0.05483078770154785,0.2335736152972765,stairs down
0.9930017089806,0.59216308593,1.44995117187,0.04508928709152155,0.2118108605715579,0.08926818847309999,-0.07482910156,0.35168457031,0.006183138950360731,0.07843610938597687,0.021879882812,-0.17553710937,0.21618652343,0.008768204803460976,0.09340430278870279,1.00165432730225,0.60590719529,1.46668234325,0.04530734503678144,0.21232241594235293,stairs down
0.9837036132770001,0.7421875,1.31823730468,0.021693432001473913,0.14691822501468818,0.1579333496061,-0.01928710937,0.646484375,0.014030991575408025,0.11815598426457707,0.0244665527344,-0.14489746093,0.236328125,0.0071967930810556465,0.08462156412907036,1.0065562053296,0.7592360703,1.33337071547,0.022879969832257374,0.15088263645329136,stairs down
0.9890783691375,0.7958984375,1.22583007812,0.013561820401168047,0.11616372626238454,0.21420043945060002,-0.05603027343,0.68090820312,0.021433484570523922,0.146035328423198,0.0244042968739,-0.12744140625,0.32824707031,0.009488279998717503,0.09716397788647764,1.0252696602681002,0.81099534094,1.31734410505,0.017926340743418076,0.13355414272758814,stairs down
0.9865905761679999,0.78820800781,1.28381347656,0.014355343303139778,0.11951387612584606,0.1901696777308,0.00244140625,0.51098632812,0.011425489652979555,0.10662252203317392,-0.0104736328122,-0.17944335937,0.17114257812,0.005863696186606927,0.07638309829847106,1.011718751693,0.78863122692,1.32486927741,0.01763481634720545,0.13246373943638093,stairs down
0.9759228515582999,0.63732910156,1.32666015625,0.02392167785076732,0.1542791932229148,0.12333007812270001,-0.13439941406,0.34228515625,0.009326312374065901,0.09633109992206863,0.0156774902341,-0.1337890625,0.17114257812,0.006252463514962059,0.07887459158301391,0.9919931595436999,0.66389693271,1.33351647589,0.023250278343430537,0.15209874079594934,stairs down
0.9738757324187,0.64306640625,1.39758300781,0.040432833994268454,0.20057584556545463,0.087943115232,-0.12707519531,0.3369140625,0.009477553731272915,0.09710904161104954,0.050417480467599994,-0.12951660156,0.23608398437,0.006791620092353132,0.08220499979862153,0.9866744340011002,0.64814141419,1.42101428421,0.04181096996221269,0.20396547529521172,stairs down
0.9989233398392,0.65759277343,1.42883300781,0.044829765870055605,0.2112004191300418,0.0940075683569,-0.09899902343,0.34558105468,0.010634111068261558,0.10286369871300687,0.043684082029900005,-0.14099121093,0.294921875,0.008242862014511583,0.09056294885017285,1.0124129815623002,0.66302135978,1.44460029065,0.04723791038049256,0.21679880264565599,stairs down
1.0113220214803,0.68920898437,1.44677734375,0.052575090535072866,0.22871863737438955,0.13644042968490003,-0.04174804687,0.47937011718,0.012680379613353812,0.11232532089999585,0.0216137695304,-0.11584472656,0.16491699218,0.004099479817509444,0.06386691176518478,1.027409329809,0.69294955539,1.47012142314,0.055571478646216844,0.2351459573392359,stairs down
1.0139746093718,0.69396972656,1.49206542968,0.040891856548282084,0.20171117288226914,0.1186035156222,-0.07495117187,0.36279296875,0.011709431906697165,0.10793926415889483,0.0427490234362,-0.16345214843,0.287109375,0.00817161558806363,0.09017071315079697,1.0300682870956999,0.70781400987,1.52413190518,0.04368557267555093,0.20848775698388902,stairs down
0.9839550781216999,0.70654296875,1.28393554687,0.016960903424135712,0.12990804019388114,0.19958496093390005,0.00732421875,0.64868164062,0.012876881426843189,0.11319230106199349,-0.033419189452199995,-0.20092773437,0.12634277343,0.005787244350226905,0.07588351684309164,1.0122879370384998,0.72310879945,1.37966630537,0.019938322810686655,0.14084967588401906,stairs down
0.9962182617151001,0.81604003906,1.26599121093,0.01285688720759372,0.1131043888253491,0.18606811523129999,-0.06201171875,0.46142578125,0.014152626252694258,0.11866702626016541,-0.0397985839822,-0.17724609375,0.17004394531,0.005167207662252673,0.07170335852623229,1.0224916985944,0.82994302884,1.34309624693,0.015258954359592106,0.12321793533327097,stairs down
0.9788879394489,0.72827148437,1.21130371093,0.01411476697591365,0.11850819862369895,0.19628295898030002,-0.02978515625,0.49060058593,0.01451287059160953,0.12016782530549298,0.1014367675756,-0.12438964843,0.40026855468,0.016581881721135942,0.1284483254563105,1.0192042686203002,0.7769697526,1.28586952219,0.013310699817695138,0.11508321475613488,stairs down
0.9754663085905,0.64074707031,1.41076660156,0.04314748934778064,0.2071997874058797,0.19905883788659998,0.046875,0.43432617187,0.008520435656392749,0.09207515125217436,0.1113891601525,0.03161621093,0.23608398437,0.0025627285092941856,0.050496681739968956,1.0067864994168,0.67802385639,1.4218967719,0.04412756781169176,0.20953980522238086,stairs down
0.9255322265590001,0.57360839843,1.36682128906,0.04147979000710675,0.20315607560954513,0.2459057617143,0.017578125,0.49035644531,0.010314454211648179,0.10130588305024511,0.140172119138,0.01513671875,0.36120605468,0.006885723041730094,0.08277254633343983,0.9753181863054,0.62439771481,1.41081700998,0.04408921800288325,0.2094487333761387,stairs down
0.9246765136676,0.60534667968,1.28662109375,0.04350253097248254,0.20805051866702984,0.337606201169,0.10546875,0.60559082031,0.012538771250394569,0.11169636249288781,0.1541870117154,0.03588867187,0.32287597656,0.004727669846495452,0.06858594241725469,1.0023649508723,0.64291551538,1.39729266483,0.048751627185779786,0.22024502048820738,stairs down
0.9673913574182,0.62231445312,1.35668945312,0.0343857771952732,0.18496985783985678,0.1579687499976,-0.07019042968,0.46435546875,0.01609781449738309,0.12655957263240175,0.0988647460917,-0.08740234375,0.44860839843,0.011144392004846857,0.10530275421290092,0.9980543287712998,0.71372820627,1.46024831029,0.03596161105865423,0.1891607861142498,stairs down
0.9841003417929001,0.609375,1.42822265625,0.02380016711952128,0.1538868619600896,0.2233483886684,-0.04309082031,0.58862304687,0.026201005872878533,0.1614620724613497,0.0067370605465,-0.17614746093,0.14440917968,0.006055975287688329,0.07762535288969634,1.0235896554635,0.6128640183,1.4446953461,0.026557239385306276,0.16255600016111293,Null
0.9936169433553,0.95520019531,1.03283691406,0.0003364006164085295,0.01829531670473312,0.09213256835650001,-0.05798339843,0.19323730468,0.003415041046021496,0.058292073567436146,-0.0207666015609,-0.12768554687,0.17004394531,0.006168421272733237,0.07834270333840651,1.0028411133782997,0.96393141295,1.04524099165,0.00037613764182945544,0.019345721842834094,Null
0.600501708982,-0.37951660156,1.06811523437,0.279426185834549,0.5272846052231909,0.2912915039031,-0.03405761718,0.98937988281,0.07670914366565151,0.2762708778487578,0.2359387207032,-0.1259765625,1.07580566406,0.16303219857761653,0.40276176281361226,1.0055183863998003,0.77469729887,1.20963544061,0.006657877099328218,0.08139157028729435,Null
-0.42307983398059995,-0.58471679687,-0.107421875,0.018319399109706168,0.13501037780169953,0.44601806640259994,0.07775878906,1.03198242187,0.06605624301340889,0.2563707506685227,0.7022875976532,-0.1123046875,0.95422363281,0.07333011364128493,0.2701174986428656,1.0135582144364,0.93669343266,1.09352078079,0.0007572906846637636,0.02745003153441622,Null
0.3158532714826,-0.40881347656,1.02905273437,0.20305405293435153,0.44948724416792935,0.6047204589815,-0.12292480468,0.98193359375,0.043070078990465256,0.20701383672477772,0.5603881835907,0.10827636718,1.02001953125,0.052845731901836814,0.2293065704299108,1.0303878500125,0.73169019646,1.34541225196,0.015337620080516971,0.12353514471645058,Null
0.7020275878873999,0.43566894531,0.91674804687,0.011339221316638195,0.10621923182764505,0.577456054684,0.13684082031,0.95007324218,0.027413361479868115,0.16515536525486774,0.4380664062465,-0.01977539062,0.86206054687,0.05593001528589226,0.2359032963090232,1.0501389382606001,0.88102405979,1.36101935126,0.009666131629014677,0.09807038783888643,Null
0.6600549316376,0.38977050781,0.83312988281,0.011652111724141241,0.10767474711147705,0.7043359374959001,0.32995605468,1.15258789062,0.02602911854506285,0.1609315784808486,-0.08414916992070001,-0.44360351562,0.50366210937,0.07209447890950721,0.2678320490810606,1.0187466322338,0.8315429777,1.27419790722,0.010276219468877771,0.10111794287629364,Null
0.6668084716761499,0.29333496093,0.98706054687,0.024022034663858948,0.1546024724593357,0.6597631835909499,0.22534179687,1.60864257812,0.07556263333570618,0.27419850504520926,0.305200195311,-0.46704101562,0.78186035156,0.12095607644746639,0.34691684315586213,1.0792852690947998,0.77847598635,1.74094202657,0.027788446410285363,0.16628140057815827,Null
0.40771240234059997,-0.23864746093,0.7431640625,0.0424127545722068,0.2054280672141608,0.8944799804647,0.25793457031,1.34582519531,0.03276839573160227,0.18056731086479708,0.2051733398411,-0.7998046875,0.69714355468,0.1095470242689798,0.3301504038277629,1.0849002222728,0.85017598868,1.42695211644,0.015292441477833088,0.1233530675356066,Null
0.10860107421919998,-0.72778320312,1.18249511718,0.3146589869251246,0.5595406079906078,0.5051684570278,-0.00061035156,1.46813964843,0.1093127401690259,0.32979717474256925,0.0301330566399,-1.09973144531,0.94970703125,0.3840687171190489,0.6181815053311234,1.0090157914686,0.48136104132,1.75140556871,0.05405501402943893,0.2319153702523654,Null
0.10438598632920001,-0.33032226562,1.13940429687,0.09328921495666469,0.30466829320078803,0.8490966796837001,0.3125,1.39868164062,0.06325574975527475,0.25087740234325284,0.11583496093620001,-0.701171875,0.72338867187,0.19200480872990303,0.4370867015664667,1.0367669959629,0.8044141657,1.4190055535,0.017286999419467448,0.13115092230849965,Null
-0.068570556638,-0.18286132812,0.04089355468,0.0020339584394192187,0.04498653851122714,0.8460510253873,0.80822753906,0.91015625,0.0004643867887555755,0.02149569386672125,0.561398925777,0.48803710937,0.61999511718,0.0009787046669621552,0.03120594724771777,1.0192896672703,0.9752588115,1.05767988334,0.00018216231293957042,0.01346296777738373,Null
-0.0962292480428,-0.16174316406,-0.00720214843,0.0017710439509865913,0.04197843173859236,0.8410955810516001,0.76953125,0.88439941406,0.0007100774710618236,0.02658057718911526,0.5683111572231,0.50695800781,0.65466308593,0.0014723810264696275,0.0382755682039768,1.02124309180455,0.96513715908,1.07834228454,0.0005568971304008357,0.02353959737864757,Null
-0.0556054687477,-0.11340332031,0.02697753906,0.0014346929290187252,0.037782528559820235,0.8607226562467,0.7890625,0.91320800781,0.0006975821873617433,0.026345669025950633,0.544909667965,0.50805664062,0.63745117187,0.0010807749314178528,0.03279285069585692,1.0216301682533,0.97508422353,1.0800684261,0.00033245174371358593,0.01818761900291014,Null
-0.08977172851199999,-0.11999511718,-0.06628417968,0.00011278205030678187,0.010593306379749807,0.8648590087852,0.8427734375,0.87768554687,5.238318824136863e-05,0.007219506375103618,0.53429321288715,0.5048828125,0.57092285156,0.0002003321860274035,0.014118446270651262,1.0206867704476499,0.98714234388,1.03171097682,7.185148368658422e-05,0.008455307579748432,Null
-0.10313232421565001,-0.13330078125,-0.07800292968,0.00019598232442681946,0.013964326435767869,0.86334533691055,0.84826660156,0.87866210937,6.733197325474022e-05,0.008185066486502508,0.5348663330043,0.49926757812,0.55505371093,0.00018842217873267495,0.013692336098672556,1.02098177404635,1.00900761027,1.03154185528,3.8044570915697046e-05,0.006152588728423066,Null
-0.10162292480094999,-0.1494140625,-0.07360839843,0.00037385051539631965,0.019286815777088195,0.8556396484333999,0.81958007812,0.87475585937,0.0002331290412926792,0.01523034458199209,0.5460589599572999,0.50817871093,0.60864257812,0.0007302067054781042,0.026954696658480756,1.0207415312135,1.00409949702,1.03703579399,4.4262667582432975e-05,0.006636366042083635,Null
-0.0969946289023,-0.12622070312,-0.06884765625,0.00018508400746923486,0.0135705043175222,0.84747375487945,0.81567382812,0.87451171875,0.0002583365640259327,0.016032619287122206,0.5589544677698499,0.52197265625,0.60705566406,0.0005525991990611022,0.02344858637670503,1.0202732772440501,1.00145167542,1.0506398627,8.371829106856904e-05,0.009126866911116114,Null
-0.10539794921479999,-0.11828613281,-0.08239746093,6.571342598319883e-05,0.008086090455422993,0.8629016113249,0.85302734375,0.87194824218,1.5160215252922849e-05,0.0038838658803643355,0.5391113281209999,0.52380371093,0.55212402343,3.3570294405523715e-05,0.005779484659854725,1.0229600022509,1.01104149556,1.0331357851,1.5726778489593117e-05,0.003955773577588226,Null
-0.0695953369118,-0.13598632812,0.06469726562,0.003453161089854205,0.05861651033970663,0.85623413085525,0.77990722656,0.91345214843,0.0005622481745579609,0.02365241919307983,0.56054565429305,0.52551269531,0.64660644531,0.000935608865912266,0.03051115896819891,1.0280137431873002,0.98635327901,1.08394169079,0.00034384804850251283,0.01849672425755437,Null
-0.02500305175355,-0.06018066406,-0.00366210937,0.00016610877560819848,0.012856058172323175,0.8491027831987501,0.78881835937,0.86938476562,0.0002840703081829566,0.016812196663197877,0.56839965819965,0.53588867187,0.66625976562,0.0006035139677676238,0.02450502801322181,1.02258110420635,0.99612381085,1.03539058983,5.5447619973726667e-05,0.007427676748072578,Null
-0.11436523437110001,-0.14379882812,-0.03393554687,0.0007581403147371456,0.027465425777938705,0.8397967529264,0.7578125,0.86987304687,0.0013228862545600698,0.036280460626723986,0.5619989013638,0.51220703125,0.693359375,0.0031093054077999498,0.05562156848526433,1.0194271658226999,0.98792794286,1.04499544259,0.00011396190045525928,0.010648572249507583,Null
-0.12651916503515,-0.17443847656,-0.10437011718,0.0004314577605671591,0.02071956736431346,0.8655285644496499,0.8583984375,0.87109375,9.724271656732547e-06,0.003110570735162421,0.5309948730435,0.50927734375,0.55322265625,7.663467870205044e-05,0.008732210791577365,1.0235205299238002,1.0118933052,1.03652868878,2.3419748641523462e-05,0.0048272818333215065,Null
-0.0347741699178,-0.14770507812,0.31396484375,0.004814978866297203,0.06921635624594608,0.8558691406212,0.78845214843,1.35620117187,0.010677558716740138,0.10307361894857693,0.5711645507774,0.07666015625,0.63928222656,0.005356100629860321,0.07300219261577709,1.03644315785095,0.97209434671,1.43004945436,0.0065127119524762914,0.0804993688963703,Null
0.02122375488299999,-0.74243164062,0.59106445312,0.15285208950974435,0.389984395921421,0.87866088866785,0.51110839843,1.34643554687,0.016999075459136998,0.1300541428861123,0.14772338867085,-0.35192871093,0.58801269531,0.046009716038349885,0.21396183645257424,0.99895093078565,0.75316084938,1.35832430255,0.01125248149993145,0.10581218782556097,Null
0.39173767089730005,-0.90563964843,0.93762207031,0.4881116017247203,0.6969010286375653,0.576014404293,0.29956054687,1.14892578125,0.036465360829710615,0.19048105949296393,-0.08729370116904998,-0.29370117187,0.18872070312,0.007012744463169153,0.0835325130763663,1.0013514924619,0.57550202564,1.48446639432,0.01919410456625108,0.1381959986519864,Null
0.8562329101528,0.84106445312,0.8720703125,5.521175849754375e-05,0.007411862094309097,0.5276135253869999,0.5068359375,0.54675292968,0.0001589775070512832,0.012577067206468557,-0.08505432128510002,-0.1025390625,-0.0703125,6.389153325472483e-05,0.007973209867327663,1.00944899320365,0.99577736411,1.02262218409,3.4659985235242255e-05,0.005872536531096767,Null
0.8749725341765,0.85131835937,0.91455078125,0.0003143205171847344,0.017684708496291668,0.4924627685513,0.41479492187,0.54138183593,0.0007796855124749503,0.027852954689091346,-0.10465332030805,-0.13818359375,-0.08044433593,0.00018404293301440037,0.01353228429901354,1.0100828166715499,0.99162922569,1.0355232236,5.346091150918955e-05,0.007293394748102121,Null
0.88925842284725,0.85498046875,0.95397949218,0.00034997925947768905,0.018660904672075804,0.4661541748014,0.38403320312,0.53625488281,0.0011379722490701247,0.03364940397428718,-0.11265014648034999,-0.20239257812,-0.06677246093,0.0008684059947711459,0.029394964956558297,1.0113919079268001,0.96754088624,1.06479459412,0.0002023086316712847,0.014187920514047443,Null
-0.08326354980319994,-0.48962402343,0.96606445312,0.3029499372311448,0.549031135314737,0.5366595458945501,-0.01037597656,1.05444335937,0.08974670998031654,0.298827670121786,0.39269470214705005,-0.255859375,0.97424316406,0.1723815767739324,0.414149331630588,0.9979933720974,0.56134553164,1.25943162615,0.01548490264893245,0.12412686307035954,Null
-0.6995739746057501,-0.85314941406,-0.46337890625,0.021015182090977722,0.14460327167987186,0.6132855224574,0.43347167968,1.11767578125,0.00844784243894569,0.09168207691119874,0.08535278320554994,-0.2119140625,0.68591308593,0.14248614478555716,0.3765285036509578,1.0190175950588,0.76425105032,1.38861710538,0.0055281809388901286,0.07416562569139208,Null
-0.7438775634728501,-0.76733398437,-0.72277832031,0.00010723056765257915,0.010329298853955008,0.67540283202755,0.59033203125,0.70031738281,0.0005016505119074541,0.022341491878294897,-0.15542907714455,-0.20104980468,-0.07360839843,0.0006587413893186351,0.025601712489051232,1.01721680385085,0.95318629896,1.03274172484,0.0002133379826196539,0.014569533029804203,Null
-0.6924224853472001,-0.78356933593,-0.41625976562,0.0059840878256515176,0.07716325152897109,0.66412536620715,0.17321777343,0.81091308593,0.01837519020551016,0.13521580623019858,-0.011694946287549994,-0.17895507812,0.95349121093,0.08382719735485085,0.2888045383439751,1.0115829238761,0.78376239205,1.24624668127,0.005018797143590182,0.07066613869366452,Null
-0.645377807614,-0.74755859375,-0.55871582031,0.002378420775481571,0.04864698008719722,0.6754449462856499,0.53759765625,0.7578125,0.0035120047362401856,0.05911382843767594,0.37664062499684997,0.13842773437,0.52075195312,0.013187411837771636,0.11454900601307187,1.0165156587298,0.98444564505,1.05282193953,0.00027629561895984445,0.016580534999361306,Null
-0.23300476074084997,-0.65002441406,0.46862792968,0.2017526802433718,0.4480445478321938,0.7211328124959999,0.43005371093,1.06115722656,0.024041831936721263,0.15466616558587615,0.45197387694935,0.10900878906,0.68823242187,0.022456647090088957,0.14948031259881187,1.0117492249249,0.84365679084,1.14871198916,0.0019874839896881122,0.04446961400484235,Null
0.6729528808558501,0.38635253906,0.8662109375,0.04364258936139007,0.20838516361435888,0.6956213378871,0.50512695312,0.98059082031,0.031626202938914466,0.17739242352541412,0.054196777344250026,-0.09118652343,0.38049316406,0.025901995704507193,0.16053811300119564,1.01922465114675,0.88772060916,1.10471084818,0.0015456892575837593,0.039216843464203496,Null
0.6418029785129999,-0.68542480468,1.00158691406,0.18250823136781938,0.4261404583127261,0.51276611327825,-0.86145019531,1.80590820312,0.18505609490018093,0.4291046660497646,-0.3693096923792501,-1.35412597656,0.35729980468,0.13786633465074632,0.3703741391856248,1.1180747882784,0.66254342179,1.95947612778,0.06436389394237713,0.2530653561289361,Null
0.79377258300445,0.59289550781,1.00280761718,0.011313410002589501,0.1060982702619442,0.5891479492141499,0.38354492187,0.8310546875,0.02293993884599773,0.15108024077213983,-0.12183776855379998,-0.36596679687,0.11706542968,0.02438749134671334,0.1557740475495831,1.02381491556255,0.91449222896,1.21523341832,0.0021761970928390493,0.04653295721716871,Null
0.899555053707,0.87243652343,0.97888183593,0.0005359541976820473,0.023092735366206343,0.4038977050747,0.32592773437,0.6337890625,0.0016796739722026415,0.040881237778981554,-0.23240722655915,-0.34619140625,-0.14111328125,0.0024244187106596273,0.04911513633398903,1.01510529436465,0.97847710417,1.13830147504,0.0005264902220062593,0.02288793942005763,Null
0.51978271484145,-0.71875,1.2353515625,0.3127935531182002,0.5578795437660438,0.59731933593395,-0.00305175781,1.30615234375,0.10029378132571433,0.315899212438217,0.21916442870765004,-0.203125,0.58215332031,0.04475761252002034,0.21103038752137152,1.0366590868135,0.62249584405,1.77170120224,0.05617202663145946,0.2364131267470192,Null
-0.5154510498025501,-0.93103027343,0.90759277343,0.1893472604752257,0.434051292099044,0.6118981933557499,0.09130859375,1.44421386718,0.08336659339019523,0.28801000056116843,-0.15970886230320003,-0.94445800781,0.54174804687,0.0802752509290191,0.28261966434481167,0.9915369778195,0.61849664115,1.58370623986,0.033864005386587626,0.18356112159075158,Null
0.25382690429465,-0.6748046875,1.09655761718,0.29654793190171685,0.5431990355681868,0.80247192382425,0.39013671875,1.11706542968,0.030545583584473537,0.1743354687565074,0.07683532714850001,-0.26843261718,0.44702148437,0.04432773044488847,0.21001450376739228,1.03662088141075,0.84302973911,1.32142413478,0.00932084552147988,0.09630286233478463,Null
0.28154907226225,0.07885742187,0.41967773437,0.006877547494920213,0.08272339304843347,0.8398876953086,0.61157226562,1.18542480468,0.02526660046993677,0.15855682725000234,0.51388916015275,0.31469726562,0.80261230468,0.01428294049418969,0.119212104216471,1.03299430582805,0.77986809582,1.39358644509,0.02802111245207701,0.16697606681742333,stairs up
0.30319458007405,0.08532714843,0.50158691406,0.010502317549346605,0.1022242924240607,0.8428222656209501,0.56042480468,1.07983398437,0.019159591078201026,0.1380716955889585,0.4860949706994,0.33093261718,0.8232421875,0.009478605151549174,0.09711442800012483,1.028626095293,0.76234352702,1.31101070217,0.019535490097938275,0.13941955618724577,stairs up
0.3920227050752,0.23937988281,0.56713867187,0.006701254927118122,0.08165628360685129,0.7600463867153999,0.57531738281,1.0400390625,0.017586705822515758,0.13228292517707332,0.51830200194965,0.38146972656,0.82849121093,0.01019077647111294,0.10069668608627284,1.005678563929,0.79686965192,1.32328363332,0.023021352832058237,0.15134809568639424,stairs up
0.40412780761364997,0.2451171875,0.60852050781,0.008024719144525107,0.08935656410584776,0.7534216308555,0.47204589843,0.98828125,0.015260693103017711,0.12322495541692284,0.5426977539032,0.38159179687,0.7958984375,0.010933458080214302,0.10430144193544609,1.0212824702405,0.83690766161,1.2667509357,0.016597168617811336,0.12850752030415294,stairs up
0.4940258789024,0.34802246093,0.72265625,0.00878501606939652,0.09349380187504162,0.7541589355426,0.53125,0.98083496093,0.014658188027468847,0.12076794726802101,0.39850708007415003,0.14343261718,0.65588378906,0.013542283646281529,0.11608002510359015,0.9972873752786501,0.77188065407,1.25692949043,0.01391317926787962,0.11765888564634726,stairs up
0.4926007080045,-0.12756347656,0.755859375,0.024313130222438247,0.15553637700334302,0.80144714355085,0.47766113281,1.07482910156,0.014561627497898572,0.12036951175612984,0.35232604980135,0.0390625,0.837890625,0.028467979712132094,0.1683022275953929,1.0297242524677501,0.78916893609,1.44295189852,0.015859913998834473,0.12562091557077706,stairs up
-0.22757141112989998,-0.72375488281,0.15063476562,0.02291329683888158,0.15099248443113708,0.7362164306604501,0.52795410156,1.07934570312,0.017257955472261874,0.1310407024359247,0.60583679198885,0.23950195312,0.96545410156,0.031219417048184216,0.17624789349930767,1.00479547227595,0.68383799957,1.33730764565,0.022373239570330876,0.14920245766232948,stairs up
0.00529235839855,-0.14465332031,0.31896972656,0.008629284296518089,0.09266141524407825,0.70723327636265,0.44641113281,1.00183105468,0.014663183149586678,0.12078852277364246,0.7357324218712,0.45886230468,1.03125,0.014269268926044618,0.11915503590454915,1.03384370536035,0.86662133954,1.25374129805,0.010100737108821667,0.1002508524815503,stairs up
-0.03400756835805,-0.15966796875,0.11608886718,0.003858642091121557,0.06196247962005676,0.7000469970657001,0.501953125,0.92443847656,0.01113879169603391,0.10527629238130369,0.7345660400347501,0.56518554687,0.97985839843,0.01185475605466601,0.10860700840366004,1.02212537776245,0.89216509889,1.29701320647,0.011786645241909128,0.10829456133943008,stairs up
0.704614868161,-0.04467773437,1.18908691406,0.12731779509631086,0.3559230339846373,0.54823547362905,0.19274902343,1.01965332031,0.0319940280675048,0.17842101313233058,0.18396057128605,-0.02197265625,0.67822265625,0.03024735889510864,0.17348233944881275,0.9995157558965501,0.78403660667,1.31667842371,0.020568219728997285,0.1430572564756933,stairs up
0.9260729980434,0.70385742187,1.30615234375,0.020128505731497583,0.14151983324905415,0.37529357909695,0.01184082031,0.64770507812,0.017285469802929023,0.13114511982500293,0.0788519287077,-0.16833496093,0.26110839843,0.007490959642993584,0.08633368314150981,1.01289389495245,0.75275113255,1.3754179601,0.023518053212752594,0.1529720985888892,stairs up
0.9294451904262498,0.70922851562,1.22961425781,0.01656128690424988,0.12836853379909202,0.36821655273044995,0.08203125,0.56176757812,0.012095919132948095,0.1097061508634924,0.0905206298805,-0.09143066406,0.22595214843,0.007973296977059549,0.08906980684931483,1.01051568304135,0.74450403385,1.33250652011,0.019171470411069844,0.1381144925741484,stairs up
0.9345874023398,0.71472167968,1.21545410156,0.023764704945156853,0.15377217375205135,0.3027807617146,-0.08374023437,0.45068359375,0.011749118949682922,0.10812202992422269,0.08147705077879999,-0.10803222656,0.23791503906,0.007455598894191855,0.08612967490778597,0.9941466199126,0.76628735171,1.27861134456,0.02632702097873686,0.16184988685149945,stairs up
0.9605078124962002,0.73571777343,1.33898925781,0.021234135076562896,0.14535461602983266,0.3316650390582001,0.15576171875,0.49890136718,0.006802478028224951,0.08227068516843546,0.1022338867152,-0.02795410156,0.22839355468,0.003480318952413554,0.058846557738337475,1.0255061951428002,0.81895114015,1.42885387068,0.02283931127110204,0.15074851480113008,stairs up
0.9213067626915499,0.72204589843,1.29479980468,0.01630114394780698,0.12735634349363184,0.32578063964514997,-0.02966308593,0.62280273437,0.016020644144898802,0.12625585500947792,0.04693176269315,-0.13513183593,0.24169921875,0.006825057387256824,0.08240711195230992,0.9891368511234,0.80295592172,1.40271971824,0.017808248836098068,0.13311351393422674,stairs up
0.9372656249962,0.71228027343,1.32055664062,0.02319336167547638,0.15191245790618688,0.2610815429652,-0.19494628906,0.48071289062,0.014017765420006044,0.11810028193406658,0.047687988280999995,-0.12963867187,0.24169921875,0.009416887274434753,0.09679774190580366,0.98610545236,0.75243362333,1.3687062901,0.023010531885057625,0.15131252170799459,stairs up
0.11773925781160002,-1.08264160156,1.34338378906,0.7963175235856581,0.8901325384276938,0.44391845702719995,0.15441894531,0.93395996093,0.04718093242462516,0.2166680127810795,0.0758813476554,-0.45568847656,0.36462402343,0.04369334472953151,0.20850630207714071,1.0217982223372002,0.40908694069,1.68456168794,0.05564657568629936,0.23530478704834687,stairs up
0.9141821289024,0.72082519531,1.18664550781,0.011724535238911192,0.10800885409408173,0.423413085933,0.19982910156,0.71398925781,0.01504651505746501,0.12235719219636289,-0.0910961914036,-0.25,0.2890625,0.010215560281383542,0.10081905811887266,1.0223767726542,0.85709508694,1.27610691513,0.014928175372726001,0.12187507741889796,stairs up
0.9476562499968,0.70654296875,1.24877929687,0.021829175589755685,0.14737716821749192,0.3568408203086,0.05493164062,0.71057128906,0.020294215547459533,0.1421011768766263,0.018044433593,-0.16162109375,0.20971679687,0.007930023999135012,0.08882777650678496,1.0250652205484,0.78120636818,1.35702018008,0.024882193428372397,0.1573460595669003,stairs up
0.9429296874966,0.69836425781,1.27661132812,0.015224468911692874,0.12307861945575442,0.27781494140240004,-0.0830078125,0.52905273437,0.017280033491066507,0.13112449551327615,0.07232177734220001,-0.17407226562,0.34228515625,0.015142455298091599,0.12274666195706155,1.002019608055,0.73920179429,1.29479992552,0.014968245921160977,0.12203853773114119,stairs up
0.9655249023402002,0.70288085937,1.263671875,0.02683642646788143,0.163408213794601,0.2565991210902,-0.02087402343,0.42065429687,0.009777226885320468,0.0986323514415725,0.12302978515340002,-0.05651855468,0.32434082031,0.007537743559797135,0.08660285700828899,1.0142613228598,0.76320180059,1.33540471925,0.028565208940069125,0.1685893914081452,stairs up
0.9739648437465999,0.74279785156,1.36950683593,0.027017368766926907,0.1639581712605147,0.22959960937159998,-0.06774902343,0.44641113281,0.00994664139476994,0.09948320555649627,0.09605712890319999,-0.05285644531,0.23876953125,0.005565947773305041,0.07441853286943055,1.012794238413,0.78018317816,1.40417451285,0.027251867610320266,0.16466817625840358,stairs up
0.9677124023397999,0.64416503906,1.32104492187,0.027983221726496102,0.16686313438822734,0.29005126952779997,-0.0419921875,0.60498046875,0.016301548211327302,0.12735792268355617,0.0165502929682,-0.17651367187,0.19836425781,0.0072096604732634064,0.08469717923813691,1.0211321429228,0.67347126232,1.32923623326,0.029544773611193776,0.1714556786552659,stairs up
0.8580090331997501,0.5966796875,1.04187011718,0.009177717190554383,0.09556060173838175,0.3249023437471,-0.32312011718,0.75036621093,0.05770932070502738,0.23962632180439242,0.21857604980304998,-0.14721679687,0.68395996093,0.05873331748499993,0.24174294384236933,1.0037676968854001,0.74494938192,1.25729698966,0.006994158658449477,0.08342174695579822,Null
0.9281933593707999,0.90576171875,0.96166992187,0.00015024297800595801,0.01222668242475972,0.3893676757774,0.2939453125,0.474609375,0.0011362965083176642,0.033624619340240504,-0.0672509765588,-0.09484863281,0.01330566406,0.00033573519643967,0.018277213148001303,1.009524293037,0.98656995471,1.05730470953,0.0001484002488677625,0.012151471006566394,Null
0.9462719726522001,0.83447265625,1.09997558593,0.00411490759655845,0.06398697569486823,0.33662597655880006,0.17016601562,0.54895019531,0.006669909367046382,0.08146508344199464,-0.0104541015616,-0.15075683593,0.1728515625,0.005457793503714109,0.07369195706585312,1.0104979768532,0.88946029566,1.20043403479,0.003931878141343227,0.06254773177851064,Null
0.5633544921860001,-0.88940429687,1.11999511718,0.34924372835601786,0.5894891938909803,0.4213867187466,-0.23425292968,1.123046875,0.06288041541274934,0.25013199182768603,-0.18007568359179998,-0.88244628906,0.63073730468,0.10761121031489096,0.32722034512437714,1.007291935689,0.60556585702,1.35889495397,0.030011996013326346,0.17280606480462343,Null
-0.38934692382565006,-1.26330566406,0.02868652343,0.18372095708073485,0.4275539174131506,0.45896850585595006,-0.0263671875,0.97546386718,0.055188265923394944,0.23433378884355957,0.6101800537075001,-0.08972167968,0.9716796875,0.1041483540759538,0.32191242956054683,1.0298530247685,0.73835603648,1.34846818763,0.015384774847529946,0.12372490037697463,Null
0.555805664061,-0.27514648437,1.01611328125,0.20413037901347814,0.4506769653736596,0.5509765624974,0.40747070312,0.98571777343,0.02484235212426268,0.1572200380474492,0.0021679687515999825,-0.35412597656,0.89916992187,0.19083669051164423,0.4357550998658375,1.0045036866848,0.60637947007,1.45131930581,0.021288971547338355,0.1455421818223214,Null
0.6216064453101999,-0.05590820312,1.18383789062,0.15396611055498433,0.3914029637115813,0.413315429685,-0.10803222656,0.8134765625,0.04198410980634281,0.20438735102082786,-0.4492578124953999,-1.03991699218,-0.18957519531,0.07754010557490748,0.27776321759194994,1.0052507098363999,0.56877123929,1.46155553892,0.02075445631889709,0.1437034586824639,Null
0.9336401367152,0.71203613281,1.40344238281,0.017314927595808462,0.13125682061450908,0.429233398433,0.16931152343,0.69128417968,0.013397222811252702,0.1154566442314882,-0.209382324215,-0.45458984375,-0.02673339843,0.009670963125712249,0.0980948944139484,1.0574024563552,0.82237117932,1.564625196,0.021957202180788848,0.14780871479681063,Null
0.9046044921836,0.67663574218,1.15026855468,0.012873939677080675,0.11317937081772134,0.43013916015240006,0.24230957031,0.69885253906,0.011452530646496449,0.10674862056843623,-0.13620849609059998,-0.34936523437,0.08630371093,0.011406976786913055,0.10653610610013156,1.0198863327647998,0.80197699056,1.32719356187,0.017355162713613998,0.13140923445498773,Null
0.6535766601526,0.26452636718,1.201171875,0.06551167668409028,0.2553118060346404,0.7008154296842,0.27221679687,1.05639648437,0.060184608056913544,0.24471143213309218,0.08605957031200001,-0.22045898437,0.48010253906,0.04381226534652535,0.2087898561228316,1.041980288074,0.86645937757,1.32347676355,0.008692516004459997,0.09300028722771612,Null
0.52125488281,-0.42797851562,1.08642578125,0.15521065052917224,0.3929816754971234,0.6665185546836001,-0.01208496093,1.10144042968,0.07326514615436537,0.2699978155904109,-0.05369628906279999,-0.82458496093,0.53503417968,0.1006567146535282,0.3164702688725444,1.0148318523678,0.65020664579,1.27150942518,0.01652270175909525,0.12821890753824014,Null
0.5117871093731999,-0.6328125,0.98779296875,0.2987275471966341,0.5451916263669601,0.5670385742149999,0.00476074218,1.15417480468,0.06629333705161934,0.2568304311532441,-0.14289062499759997,-0.81396484375,0.22302246093,0.041677544559567056,0.20363977223707855,0.9972878674984001,0.67444206685,1.37720978421,0.01402850923196202,0.11814553180633709,Null
0.8670654296838001,0.85571289062,0.87963867187,3.990156566650391e-05,0.006300956898612415,0.4396948242148,0.40270996093,0.46447753906,0.000142384707629918,0.011902637694719958,-0.2793798828088,-0.32666015625,-0.20568847656,0.0007253738144731386,0.026865348413909935,1.0119330155664001,0.98600740411,1.03217072277,8.222161601359594e-05,0.009044916137451356,Null
0.9082128906208,0.87438964843,0.93798828125,0.0002831255610899679,0.016784216790917534,0.42758056640259995,0.40515136718,0.44592285156,0.00011651828062668408,0.010767343647508918,-0.26245605468419997,-0.28125,-0.23400878906,0.0001331297956049736,0.011509306956847955,1.0376378337746002,0.9986441555,1.07334084443,0.00039880581529561895,0.01992013519580479,lift up
0.21874511718759998,-0.41821289062,0.89587402343,0.28039073761647204,0.5281938885753883,0.3178881835896,0.09558105468,0.85632324218,0.035131713259582,0.18696538367645515,0.4459448242176,-0.25744628906,1.06811523437,0.31481200587410557,0.5596766440050317,0.9802820311207999,0.63113413871,1.23588663809,0.014069380639363468,0.11831751238158555,lift up
0.895688476559,0.76403808593,1.0673828125,0.0029881708825689433,0.0545273328538642,0.4444921874962,0.35070800781,0.57165527343,0.0030103227241265076,0.05472907006798009,-0.1194238281216,-0.22692871093,-0.00012207031,0.0029993802698502613,0.05462951005181183,1.0099116496614,0.8613198295,1.15941138711,0.0031402481355344404,0.05589764659497543,Null
0.62336914062275,-0.51477050781,1.2451171875,0.2652210085564985,0.5137070210866462,0.33369201659779996,-0.10437011718,1.05041503906,0.05112156285304558,0.2255348200140731,0.1413934326183,-0.43676757812,1.08752441406,0.226032720405348,0.47423892375396737,1.0153560466045999,0.63917956457,1.42708209019,0.028070341251291566,0.1671226781290771,Null
-0.16533020019465,-0.75073242187,0.12158203125,0.06426859061727087,0.25287793036203166,0.6573291015587499,0.00366210937,1.09887695312,0.10948944742323567,0.3300636305110266,0.6024090576137501,0.08361816406,1.21032714843,0.10443493110974837,0.3223550161765745,1.0434066846830499,0.82162637394,1.32116300513,0.010469135891969811,0.10206267786272298,Null
0.0245727539028,-0.00366210937,0.09106445312,0.00033718033047996264,0.0183165070039995,0.9051269531208002,0.85314941406,0.94580078125,0.0005498040261550575,0.023389207041374496,0.4570678710902,0.38110351562,0.53088378906,0.0017785596188881361,0.042067408058896326,1.0155111807068,0.96977681685,1.03314748949,0.00015971698422396834,0.012606284119551189,Null
0.07096740722295,0.01403808593,0.39575195312,0.00955487303658383,0.09750435206389975,0.8389672851532001,0.43383789062,0.9208984375,0.01934759622256052,0.13874746210813269,0.52457824706625,0.42211914062,0.94165039062,0.020698184733194305,0.1435085147631608,1.01619719063835,0.96086283137,1.11715493454,0.0006305915265916757,0.025048723898808044,Null
0.4532421874979,-0.236328125,1.15148925781,0.20005777370799677,0.4461585870959527,0.5204333496052,0.33129882812,0.74768066406,0.007909120146055102,0.08871062250556483,0.37611328124890003,-0.21606445312,0.95434570312,0.2174112806577464,0.4651066805093834,1.01421073752305,0.76098203979,1.37312801767,0.012430568617393422,0.11121337947525224,Null
0.9064752197229001,0.71520996093,1.13720703125,0.010979234887345618,0.10451956138880841,0.40364746093365006,0.2255859375,0.69934082031,0.009933720246040993,0.09941856790766394,-0.1451611328098,-0.44873046875,0.00964355468,0.008561753363941223,0.09229812889285197,1.00949402064825,0.81074557339,1.27951837034,0.016029656682562343,0.12629136312174927,Null
0.7154815673788499,0.45166015625,0.98388671875,0.022635332519213548,0.1500738346835233,0.48034606933310003,-0.39636230468,1.20397949218,0.06854500700059585,0.2611556661563996,0.50811645507435,-0.21875,0.884765625,0.035769780075787856,0.18865558877332236,1.04361330417765,0.55070523488,1.52236004899,0.037454721832964055,0.19304778740974793,stairs up
0.57134826659745,0.34814453125,1.17626953125,0.03452117763227961,0.1853336767673868,0.73688964843375,0.32165527343,1.07189941406,0.04071672507875332,0.20127876553019583,0.37924987792590004,-0.18835449218,0.72839355468,0.04185269527031078,0.2040672237130677,1.0524276171740001,0.81429835433,1.34274982223,0.02170189129976562,0.14694686741563018,stairs up
0.9237115478478001,0.71789550781,1.25427246093,0.025707165245021386,0.15993320299048686,0.37246459960524997,0.16784667968,0.55725097656,0.007490407388744953,0.08633050070398773,-0.10641479491849999,-0.26245117187,0.20104980468,0.006273382834526875,0.07900642961401458,1.0077855996304002,0.79063050113,1.36259689205,0.027074166867603902,0.16413042385025964,stairs up
0.92679992675345,0.67919921875,1.27905273437,0.020447711638739114,0.1426375584498887,0.38195007323825003,0.16101074218,0.58801269531,0.01206363401795899,0.10955964516129649,0.0886413574194,-0.11511230468,0.23986816406,0.005978682794115317,0.07712839542052422,1.01423643356345,0.72755274407,1.34034099749,0.02243546539237248,0.14940979909433857,stairs up
0.5253656005813,0.24829101562,1.24499511718,0.04962256345584755,0.22220362426965118,0.7176898193323501,0.33679199218,1.08251953125,0.024237270118486722,0.155293540650905,0.42759460448835,0.03576660156,0.66540527343,0.027452030133657487,0.16527180637661462,1.0225369802635,0.72713687712,1.42487468377,0.02929473891340573,0.17072863034312288,stairs up
0.85868103027035,0.35656738281,1.17333984375,0.038838347983860634,0.1965811696067081,0.473124389645,0.21472167968,0.82971191406,0.025654152077404496,0.1597682112218118,0.12248107910044999,-0.19104003906,0.60571289062,0.04860758634216402,0.21991941344604665,1.0368361211300001,0.82231712633,1.31429727432,0.013755636636381628,0.11699084773263128,stairs up
0.92903015136285,0.30200195312,1.19921875,0.021263986927426468,0.14545675299823427,0.4273449707005,0.23400878906,1.03930664062,0.029362958039123227,0.17092730398894032,-0.1713555908166,-0.53857421875,0.14538574218,0.015285948861876501,0.12332687913657395,1.0535350158522,0.56151915175,1.48603844044,0.030885210413258538,0.1753019804828007,stairs up
0.9062091064415,0.18981933593,1.28344726562,0.050017356764396746,0.2230857906290196,0.5098376464804499,0.21301269531,1.21130371093,0.05188797813970143,0.2272191414670052,-0.035684204100749996,-0.24450683593,0.13159179687,0.0073144675401204465,0.0853105808350866,1.0599646257363,0.42127294319,1.76489031959,0.06791098332687728,0.2599450488280992,stairs up
0.6301684570278,0.26953125,1.17785644531,0.05581343090673585,0.2356573015041167,0.62505371093375,0.25646972656,0.98205566406,0.03561200548058825,0.1882390646310837,0.31014343261419997,-0.0673828125,1.07690429687,0.08049857514435511,0.283012512565493,1.0075593507707001,0.65620576618,1.54317670941,0.04008233239202217,0.19970458364810273,stairs up
0.7128955078078999,-0.05615234375,1.18786621093,0.11536991234340452,0.3388112494910514,0.5931604003869999,0.16149902343,1.21130371093,0.06685024396710636,0.2579069459073773,0.04217163085845,-0.45751953125,0.65502929687,0.06245856067942544,0.2492915318979534,1.028520430047,0.35321221582,1.38108504958,0.04767714620357192,0.21780440875371201,stairs up
0.917412109371,0.62084960937,1.38391113281,0.029193371480299265,0.17043299159170378,0.34084289550394997,0.130859375,0.57592773437,0.010409712802980142,0.10177261045568813,0.11950134277115,-0.09399414062,0.51013183593,0.018632549930257675,0.13615941825891584,1.000395112934,0.69397693049,1.43267964628,0.02940050534700614,0.17103655404699636,stairs up
0.9525103759730001,0.64404296875,1.28662109375,0.02936824487956819,0.17094269114288085,0.21455993652080005,-0.05615234375,0.46313476562,0.016671425723360327,0.12879467611180023,0.002487182618199997,-0.29248046875,0.41833496093,0.02319932155133358,0.15193197472414066,0.9978845525906,0.74468787788,1.36590960044,0.02657023685274626,0.16259577383340112,stairs up
0.9302612304656,0.63403320312,1.24938964843,0.021731134784893587,0.14704584016887087,0.3939532470658,0.15808105468,0.69458007812,0.022631334221777762,0.15006057960260208,0.019310302733950003,-0.2294921875,0.36767578125,0.015466153978926565,0.12405169571203746,1.0289318991,0.79917352759,1.40964488746,0.021896113024942133,0.1476029554575972,stairs up
0.5888824462856,0.12109375,1.01818847656,0.08335037835549995,0.2879819898252709,0.630021362301,0.11352539062,1.49035644531,0.09693470742212464,0.3105640576193807,0.0770361328123,-0.91711425781,0.80505371093,0.21750052899851655,0.4652021349408491,1.04696510526555,0.63705431982,1.76913883161,0.049552535998545734,0.22204678182435567,Null
0.7386773681600001,0.32153320312,1.09387207031,0.06499550502794678,0.2543040060691279,0.5386499023398,0.2119140625,0.94201660156,0.04856948750104208,0.21983320964662476,0.0965069580067,-0.28112792968,0.56909179687,0.055248745163082744,0.23446215352859687,1.0047127004969,0.82079190369,1.13827087512,0.003641832091542167,0.060196535872793014,Null
0.94347229003505,0.84143066406,1.02062988281,0.001735021112206234,0.04154932017067431,0.3413751220662,0.17565917968,0.43249511718,0.0037762371136571163,0.061297275046194595,-0.1102246093721,-0.32299804687,0.09143066406,0.010496339881408388,0.10219519647224788,1.01645631236895,0.92583443694,1.13413417929,0.0015784177938915475,0.03962985875475826,Null
0.9343353271446,0.75952148437,1.17639160156,0.009864026867840202,0.09906920174050561,0.3699108886677,0.21276855468,0.52661132812,0.005149427129798744,0.07157988540190428,-0.13150634765334998,-0.302734375,-0.03198242187,0.0038891454139052947,0.062206910282023874,1.01682010242705,0.84733531519,1.29906073186,0.012055732959382707,0.10952376132413365,Null
0.7283801269486999,0.35681152343,1.25756835937,0.06163760806895572,0.24764777412407918,0.6181439208949001,0.2158203125,1.17919921875,0.06782595398123038,0.25978226308068886,0.023617553712349998,-0.40551757812,0.49890136718,0.04969442129215421,0.22236445126344598,1.0361106315953998,0.82131335645,1.36695478911,0.01802437953609363,0.13391884721133604,Null
0.8425991380944776,0.32287597656,1.18237304687,0.035894226223406524,0.18898584069577562,0.4531918046450746,0.11474609375,0.80126953125,0.023762547359279997,0.15376711524453746,-0.025727684816268654,-0.36706542968,0.44677734375,0.032345363388034676,0.1794002262599578,0.9961529195752736,0.75387064202,1.27104461846,0.015318017842058093,0.12345772069039569,Null
0.8142819811919598,-0.36499023437,1.16455078125,0.14460422639154655,0.37931197184846266,0.2979294666671356,-0.18054199218,1.435546875,0.14630130685422446,0.3815312888974125,-0.25518400105557787,-0.75903320312,0.00659179687,0.0314416662260756,0.17687189687265614,1.05758094732799,0.80821555502,1.57172027038,0.019282788981935875,0.13851314213763516,Null
0.7263635253877502,-0.28308105468,1.08325195312,0.17723315539354523,0.4199368876588213,0.5171490478478,0.24377441406,1.09582519531,0.06946077657928929,0.2628944135891686,-0.11045593261465,-0.39660644531,0.42321777343,0.029126236844808296,0.17023691039426278,1.03611664336,0.86692604213,1.24808533777,0.00819195083275769,0.09028283933613244,Null
0.90399597167595,0.79870605468,1.06396484375,0.005477049823569957,0.07382184347774111,0.43548950194924996,0.28881835937,0.60632324218,0.0058261081066444675,0.0761378852222154,0.019651489257499998,-0.25573730468,0.25109863281,0.016649218880240187,0.12870886832630837,1.01425095498375,0.89863907584,1.17453413945,0.006385547121040886,0.07970959406141573,Null
-0.40527465820025005,-0.88928222656,1.01623535156,0.271957706562985,0.5201902709876167,0.512258911129,0.12658691406,1.05322265625,0.055977031878783716,0.23600242947772762,-0.5044494628873499,-0.88000488281,0.08605957031,0.07615037176271908,0.2752628196903924,1.03518546558635,0.81411701466,1.28697123965,0.011639937398380507,0.10761848220165811,Null
-0.4074391227424378,-0.68688964843,0.01025390625,0.03738928679717515,0.19288149326711052,0.6909732344104974,-0.12841796875,1.12219238281,0.06907965092330454,0.2621754585539324,-0.06380815648303483,-0.78442382812,0.69885253906,0.2790645674452771,0.5269498899446831,1.009316667784826,0.67787763636,1.2053189153,0.012479509518558534,0.11143348871199314,Null
0.065391845703,-0.26452636718,0.76843261718,0.04900446150523408,0.22081539619715812,0.9489221191360001,0.74450683593,1.134765625,0.007751610786839522,0.08782284858113704,0.3270007324185001,-0.02062988281,0.5888671875,0.02437603991692471,0.1557374704987213,1.0409764088659,0.79504836854,1.26538313214,0.008797315082144024,0.09355922459454923,Null
0.1155343367205025,-0.36352539062,0.45104980468,0.027792194227890754,0.16629051374150577,0.9294544009069848,0.72875976562,1.10583496093,0.006764145087914233,0.08203751830157037,-0.3171969466434171,-0.72692871093,0.39672851562,0.057968813334189864,0.24016143063504455,1.0298073182369347,0.77229217537,1.29855567541,0.009452157003559189,0.09697761972310619,Null
-0.5584216308555,-0.75830078125,0.08776855468,0.051086139916797356,0.22545666815868048,0.6513269042928502,0.26049804687,1.07958984375,0.06258138686432348,0.24953653025158834,-0.20908081054505,-0.60864257812,0.66027832031,0.11542601585064986,0.33889362013970786,1.0015528422050999,0.8403836932,1.17182824359,0.004639415671455609,0.06794275968120761,Null
0.06374938964594999,-0.25817871093,0.27124023437,0.017507320967994212,0.13198403071263676,0.7521038818323,0.36120605468,1.07360839843,0.02944817584608358,0.171175158731789,0.28036926269370005,-0.79467773437,0.9228515625,0.3372489977505321,0.5792777854896384,1.01160704060135,0.75067932437,1.1869441099,0.007642501597273824,0.08720257501523367,Null
-0.3754852446720398,-0.78112792968,0.19921875,0.1243800357623142,0.35179714270335255,0.6903568096973134,0.12109375,1.23864746093,0.1128439323866178,0.3350858394317483,-0.3840526372016915,-0.68615722656,0.083984375,0.05951659298655245,0.24335260535667794,1.0264720982217412,0.87090285737,1.24043055507,0.006730880280555667,0.0818376033005961,Null
-0.7336804199176501,-0.81140136718,-0.57360839843,0.004821453170822578,0.06926287537323632,0.38437438964440007,0.0458984375,1.00720214843,0.0899203294330712,0.29911657892184085,-0.4433111572240999,-0.69213867187,0.06213378906,0.06021239917694402,0.2447679251475963,1.0167737961365,0.9271115913,1.18117900059,0.0029204728312127097,0.053906126433427265,Null
-0.7651821117270351,-0.80114746093,-0.5927734375,0.0013559658180021853,0.036730803413746065,-0.014481587624874379,-0.12768554687,0.40283203125,0.005992347861141605,0.0772155137283425,-0.6446790838923117,-0.67272949218,-0.34680175781,0.0014791841711123564,0.03836340814924242,1.0041184818434172,0.79619435618,1.02836409545,0.0018630768751632572,0.0430547869558157,Null
0.005525512694800003,-0.5927734375,0.31604003906,0.039142491600226856,0.1973493834351294,0.9102557373008001,0.40283203125,1.33557128906,0.04287972702989017,0.20655587233177547,0.004674072266199989,-0.68933105468,0.91967773437,0.20593947390370948,0.4526696107915694,1.0459868037857,0.79619435618,1.37175490259,0.017587439918302673,0.13228568599327428,Null
-0.16455078124889996,-0.642578125,0.20031738281,0.07666442052665944,0.27619033006972954,0.8792163085896,0.35339355468,1.32885742187,0.04330356708746031,0.20757420179787037,-0.1599121093729,-0.63220214843,0.537109375,0.10557406301892318,0.3241083039723428,1.0159495785325001,0.71681062648,1.36490790375,0.01802105917898374,0.13390651172773047,Null
-0.6616800032995523,-0.9677734375,-0.12512207031,0.026409018500737493,0.16210376414196104,0.16401755869084578,-0.38793945312,1.02270507812,0.19189109301035182,0.4369627111729031,-0.34621205495636814,-0.74304199218,1.37231445312,0.11538667397458738,0.33884009638764334,0.9364935278305473,0.46390620017,1.72288426903,0.03978945536866196,0.1989761238924551,Null
0.6801220703087499,-0.12512207031,1.001953125,0.04674610834604028,0.2156672849653143,0.69499450683205,0.24133300781,1.41223144531,0.06071586164050152,0.24578910132936937,0.08915527343730002,-0.46008300781,0.60961914062,0.080202596725202,0.28249174101480556,1.06181010339675,0.79510700216,1.54739587857,0.014064832328209868,0.11829838615369535,Null
0.8685784912073501,0.76245117187,0.99645996093,0.00327516933444583,0.05708584314673473,0.43846435546545004,0.24133300781,0.57983398437,0.005305089992560571,0.07265373041074882,-0.25744140624670003,-0.38342285156,-0.13464355468,0.004860017742979208,0.06953932451688262,1.0109100586501,0.8773219516,1.1842077507,0.004411651314409234,0.06625400408909025,Null
0.8800036559715074,0.72692871093,1.07580566406,0.007999679053282015,0.0892159159626491,0.42777056669658287,0.28198242187,0.58520507812,0.004928492047889803,0.070026607487382,-0.2589264682756281,-0.51684570312,-0.09692382812,0.008308732137821108,0.09092293283335062,1.0162960143748745,0.83929030346,1.26260540281,0.012773794451030005,0.11273688184957721,Null
0.7057946777302001,0.32983398437,0.98559570312,0.04916743946300328,0.22118228289283992,0.5941223144500001,0.08093261718,0.96435546875,0.051573037015508624,0.22652852321602038,-0.026928710936699983,-0.44848632812,0.49584960937,0.06712387644315837,0.25843424127027476,1.0061478844808003,0.8009155905,1.15447137614,0.0065769576136351805,0.08089544378744086,Null
0.8295922730066666,0.36889648437,0.94067382812,0.018233068877515062,0.13469356737444735,0.5139573130406467,0.37194824218,0.81408691406,0.011246515288645145,0.10578545493716907,-0.13420446594850746,-0.2705078125,0.49584960937,0.03694633337444219,0.19173554905282755,1.0172807406012438,0.86427285563,1.12703492315,0.00162974104478742,0.04026950310576842,Null
0.8792120361292,0.75695800781,0.91162109375,0.0014552935280398225,0.03805281934889481,0.4229455566369,0.37060546875,0.62890625,0.0050740282005211235,0.07105390953014842,-0.24592651366830004,-0.33972167968,-0.1279296875,0.0018092145736657195,0.04242839262566272,1.00942477127225,0.88187765738,1.09368281158,0.0017437922024670708,0.041654210368877904,Null
0.8826049804656501,0.72521972656,1.06213378906,0.007211586189004438,0.08470848988182599,0.4578143310511,0.32666015625,0.73278808593,0.008671812717111248,0.09288947008959461,-0.2288348388635,-0.40246582031,-0.07824707031,0.008602424134755184,0.09251709038918922,1.0255627005408499,0.8271264768,1.2991165816,0.01360345519713386,0.11634190096929047,Null
0.9229760864832662,0.72192382812,1.20776367187,0.01212228954442585,0.10982428473049306,0.4338753091597487,0.31237792968,0.64794921875,0.0073513409932183665,0.08552426311399673,-0.17314661686919597,-0.43762207031,-0.04541015625,0.00822302340724394,0.09045275939173662,1.039612757171809,0.85078917395,1.41478131923,0.01696040914468527,0.12990450707357523,Null
0.9095446777298001,0.60925292968,1.37170410156,0.03246192791212984,0.17972094555885576,0.39132080077700004,0.1630859375,0.81018066406,0.014634572231583069,0.12067062347740297,-0.10115844726329999,-0.30737304687,0.04821777343,0.0076621437474804705,0.08731456366920165,1.0048409179125002,0.69924724243,1.49702172844,0.03559407208195795,0.18819166219986516,stairs down
0.9570452182409454,0.60961914062,1.44873046875,0.054324832139137184,0.23249636414882935,0.3228589717382587,0.06555175781,0.62414550781,0.012218891389753201,0.11026377866428562,-0.15622631471169154,-0.33935546875,0.00354003906,0.006733989971221943,0.08185650574972139,1.0311503490109453,0.6602975931,1.492856964,0.054493343456146,0.23285667758231166,stairs down
0.9236639404261,0.58203125,1.35278320312,0.03946497715837138,0.1981606728707276,0.34910034179324995,0.13732910156,0.65197753906,0.013461683729408747,0.11573407152071383,-0.1297772216768,-0.31982421875,0.02038574218,0.006495300201478685,0.08039168925001695,1.0059858583145,0.6729353256,1.46244583702,0.039181462215181366,0.19744760040098097,stairs down
0.9233557128866501,0.57116699218,1.51843261718,0.04609884393724827,0.21416897468485493,0.416706542965,0.16101074218,0.97802734375,0.03210735058073957,0.17873671650736978,0.00023193359465000006,-0.17919921875,0.29748535156,0.012974462167227746,0.11362037606165369,1.02705731929625,0.62713686903,1.83048426173,0.062420286982395136,0.249215139081644,stairs down
0.8579126099212061,0.41564941406,1.33911132812,0.040233493597675585,0.20007827277815118,0.513623414922412,0.16101074218,0.89367675781,0.030647878366716414,0.17462493787454209,-0.01822834877396985,-0.23193359375,0.3095703125,0.02202672772929731,0.14804067230082663,1.0357494420064823,0.69392842326,1.39011385449,0.01991974876176708,0.1407822770158169,stairs down
0.7693212890591,0.35900878906,1.1240234375,0.04815025787276794,0.2188824035490384,0.5557470703088999,0.28845214843,0.89367675781,0.02859779754462848,0.16868553155770455,0.12147460937459996,-0.29626464843,0.60119628906,0.0725972638285424,0.26876435312258146,1.0224134547088,0.80867730966,1.36017052622,0.018829600965651654,0.1368775107927646,stairs down
0.9292654160797513,0.76806640625,1.19812011718,0.008876182875650628,0.09397884209672633,0.38807792093905474,0.23388671875,0.52099609375,0.005151397539124817,0.07159447391835898,-0.08494453999199005,-0.26647949218,0.03894042968,0.005544234169205376,0.07427416047746493,1.0145547498540797,0.8638928521,1.2939594196,0.011564899852343373,0.10727237779203734,stairs down
0.9391943359339501,0.65966796875,1.28894042968,0.027284966725285142,0.16476814586460187,0.36802246093330004,0.1142578125,0.72277832031,0.014420008156061662,0.11978275383076377,0.00023498535204999894,-0.14367675781,0.13671875,0.005348708751627234,0.07295180058003434,1.0165737496962999,0.70145978834,1.47776334866,0.0310782052890532,0.17584883924157116,stairs down
0.9146160888642502,0.61889648437,1.376953125,0.029509125624122112,0.1713522103621704,0.3136456298796,0.18115234375,0.59106445312,0.008061417634363873,0.08956065289060847,-0.05715942382565,-0.28833007812,0.07006835937,0.006132548141004958,0.07811456586514408,0.9756199394712999,0.6789934956,1.41623176766,0.0299634980218595,0.1726663850659711,stairs down
0.8642980956996499,-0.2431640625,1.39331054687,0.10285536085374657,0.319907930582344,0.3786065673791501,-0.14685058593,0.984375,0.033710994881712184,0.18314595247316723,-0.0179168701156,-0.38000488281,1.33801269531,0.05446441410637127,0.23279195010961914,1.0017918366440999,0.25754871745,1.52861762521,0.07755163553143399,0.2777838680589224,stairs down
0.7556414794896,-0.27600097656,1.35046386718,0.16131868267645658,0.4006396002182938,0.3227728271442,-0.00708007812,0.74633789062,0.022055323713601967,0.1481386077126215,0.19053466796884996,-0.4072265625,1.49853515625,0.18843619248806523,0.4330057869424206,1.0163343354719998,0.61137274192,1.57618304015,0.048739165416903645,0.22021686944877572,stairs down
0.94881347655905,0.60168457031,1.29833984375,0.027436364200469156,0.1652246421677675,0.36607604980105,0.13232421875,0.82373046875,0.020163532237452174,0.14164291219918104,0.020037841796300002,-0.25463867187,0.28002929687,0.010831342831581355,0.10381322708317783,1.0286141759287,0.70311289882,1.51040688105,0.03492679677696232,0.18641931979566256,stairs down
0.72608154296585,-0.50659179687,1.30688476562,0.21020916473164622,0.457338079442318,0.4502703857393,-0.13684082031,0.92980957031,0.04346437694970359,0.20795926299387357,0.0654974365239,-0.32983398437,0.95275878906,0.12411203481538655,0.351413537931181,1.02819736076325,0.28325431624,1.60826432225,0.05320058033602292,0.23007515605632609,Null
0.9225482177702,0.77221679687,1.18859863281,0.007867076135974187,0.08847452037334995,0.42137573241844994,0.27600097656,0.72033691406,0.010440689413808029,0.10192392244580754,-0.0262622070314,-0.23913574218,0.11242675781,0.006057211507558199,0.07763327540443214,1.02089871504475,0.86253702872,1.2691214208,0.011408433459963643,0.10654290822323101,Null
0.9732476806609001,0.62622070312,1.45434570312,0.04531727740159746,0.21234568753471184,0.28945983886315,0.134765625,0.61584472656,0.0118886497447538,0.1087621556242337,-0.07043762206845,-0.35070800781,0.18188476562,0.01620561669719946,0.12698263114975003,1.02933663540355,0.70783117787,1.54319848873,0.04971867534542083,0.22241870867508814,stairs down
0.9307141113247499,0.60107421875,1.3486328125,0.05100949972577811,0.22528748795072756,0.33224609374649994,0.13391113281,0.75952148437,0.01492346504813084,0.1218558481275732,0.00253784179645,-0.205078125,0.15393066406,0.005877415526890386,0.07647240318739783,0.99799333982105,0.64502125233,1.51827156886,0.05234501159917218,0.22821762977731655,stairs down
0.9392535400356,0.52172851562,1.41076660156,0.034132799936935396,0.18428818718857354,0.34054748534750007,0.19006347656,0.82104492187,0.015120984917590423,0.12265961027576465,-0.0039367675776,-0.19152832031,0.17321777343,0.0077931050897813575,0.08805759231510052,1.0067604421146499,0.60011838996,1.63268648692,0.04158830961970123,0.20342165094109999,stairs down
0.9552813720671002,0.58532714843,1.39819335937,0.03226382457989674,0.1791717205839059,0.34611145019145,0.10815429687,0.76721191406,0.014770855495856081,0.12123118913207444,-0.06837402343660001,-0.30871582031,0.15478515625,0.010032010221853103,0.09990920963927118,1.0287196876827998,0.67341332314,1.60672425975,0.03572643605183055,0.18854125243980796,stairs down
0.5653881835917001,-0.83154296875,1.18591308593,0.40879378522675885,0.6377694068396704,0.49125122069939997,0.13537597656,1.03283691406,0.047622678134445755,0.217679959444533,-0.0491229248028,-0.3994140625,0.36181640625,0.026112911580414115,0.16119040611187765,1.01294023720125,0.71147547268,1.26586639786,0.016612789449169066,0.12856798008027978,stairs down
-0.18759338378714996,-0.54699707031,0.36181640625,0.04838261651790824,0.21940989821637194,0.6794201660122,-0.26538085937,1.35388183593,0.20468698440144104,0.45129098094182407,0.4493572998024999,-0.25866699218,1.22192382812,0.15494570161056617,0.3926461168820002,1.0232140099324498,0.10685629641,1.40901580724,0.058023455686059176,0.2402776277717692,stairs down
0.89171325683265,-0.11352539062,1.39416503906,0.07398577008668153,0.27132239353995113,0.3574743652302,0.12243652343,0.86389160156,0.02611474678019015,0.16119607019493123,-0.08765075683365002,-0.33361816406,0.10986328125,0.01045379422639676,0.1019878681768806,0.9996410181298999,0.59169888078,1.46111600978,0.041550234965452446,0.20332851199628937,stairs down
0.95853820800375,0.65002441406,1.33508300781,0.03078936655866635,0.17502976811352125,0.2726721191373,0.11791992187,0.65258789062,0.012999716372562357,0.1137309007732707,-0.023412475585650003,-0.27099609375,0.17529296875,0.007614513931461692,0.08704275594099939,1.00401484634955,0.68301836048,1.43250843719,0.03493307046818565,0.18643606173657692,stairs down
