avg_accX,min_accX,max_accX,var_accX,std_accX,avg_accY,min_accY,max_accY,var_accY,std_accY,avg_accZ,min_accZ,max_accZ,var_accZ,std_accZ,avg_magnitude,min_magnitude,max_magnitude,var_magnitude,std_magnitude,Label
-0.6934023143021106,-0.708984375,-0.68347167968,3.008298929519366e-05,0.005470997943219802,0.7544638475541205,0.74548339843,0.76379394531,9.016318919777539e-06,0.002995164567181956,-0.0075941229564824115,-0.02844238281,0.00524902343,6.031712613012094e-05,0.007746871948973255,1.0247720183028644,1.01346700725,1.036064534,2.1472710402502456e-05,0.004622208058401655,Null
-0.6859771728477501,-0.71423339843,-0.642578125,0.00034131445739614305,0.018428453139348464,0.7591223144497999,0.73815917968,0.80102539062,0.0002209335580411485,0.014826627743723208,0.010753784180000002,-0.03088378906,0.09350585937,0.0012357518894666518,0.03506526957003637,1.0240607626156502,1.01220915849,1.03727233095,3.575699897531455e-05,0.005964747604085019,Null
-0.64960205077745,-0.69006347656,-0.57678222656,0.0005984795812589534,0.0244026060770701,0.77547790526915,0.705078125,0.86169433593,0.0007663980766390591,0.02761459915073662,0.11062133788695,0.06005859375,0.29614257812,0.003672198972195347,0.060446984848992844,1.0200368722668,0.97853191156,1.04983544592,0.0001231726589189229,0.01107053727803345,Null
-0.8216528320274,-1.09875488281,-0.60913085937,0.01705805709610897,0.13027957173182764,0.60575012206625,0.3232421875,1.02819824218,0.029044451605267866,0.16999773335912902,0.17596435546595,-0.71166992187,0.33776855468,0.028313115762730934,0.16784382676737705,1.0642566415638002,0.9201816265,1.66461046357,0.014483807425641525,0.12004744224061302,Null
-0.29835998535129993,-0.99670410156,0.52966308593,0.2820648597036213,0.5297683790158707,0.802630004879,0.48815917968,1.07373046875,0.021081391350971913,0.14483088204598166,-0.03877929687580002,-0.83276367187,0.62951660156,0.0583194799382709,0.24088977259024416,1.0396719378516999,0.72665406747,1.36118229942,0.013545832604274438,0.11609523436064491,Null
-0.6403680419892,-1.04711914062,0.16296386718,0.1661200118101774,0.40655800539544973,0.62472290038705,0.21911621093,1.08068847656,0.05556029780906861,0.23512230077137147,-0.09452514648435001,-0.77209472656,0.62951660156,0.1308783304356216,0.36086554114163283,1.0662125627112,0.78784451101,1.43546381599,0.023388495235718926,0.15255016473127891,Null
0.16426147460595,0.08410644531,0.30639648437,0.0019270080283337503,0.043787817805778825,0.72453613280855,0.69262695312,0.80908203125,0.00034200276562895167,0.01844702555429484,-0.7070666503873001,-0.73059082031,-0.63879394531,0.00022783584779005473,0.01505644940054276,1.02675425022485,0.99405908905,1.07904887351,0.00013845219025613524,0.011737117589291444,Null
0.15566955566055,0.08911132812,0.24304199218,0.0006997430290612639,0.02638644185781701,0.77924194335555,0.71301269531,0.86279296875,0.0015290016729389965,0.039004572354716334,-0.6545684814411,-0.71643066406,-0.55932617187,0.002058187087808554,0.045253686616335595,1.0313401788571,0.96889537827,1.0794455899,0.0005164284886361503,0.022668179154774863,Null
0.001461181638450011,-1.16638183593,0.86279296875,0.18965127508524512,0.43439960717042425,0.7499743652303499,0.15686035156,1.8759765625,0.0635419205792393,0.25144425023520245,-0.42025390624764997,-0.67614746093,0.43615722656,0.09951170247925333,0.31466512988708656,1.01230441227605,0.3089800481,1.97031897514,0.06558611036304017,0.2554568061556101,lift down
-0.9201348876912501,-1.04052734375,-0.8583984375,0.0007910099457361263,0.028054498676815556,0.42398437499565006,0.37255859375,0.48425292968,0.0006744780971747024,0.02590570799435578,0.11029785155920001,-0.107421875,0.19360351562,0.00215298276445656,0.046284099328325244,1.0205012566193,0.97306892342,1.13761767339,0.0007579311963294637,0.02746163761227317,lift down
-0.35337524414029997,-1.02954101562,0.716796875,0.5293152116226459,0.7257193917517518,0.59679992675465,0.27746582031,1.2568359375,0.051315281031506225,0.22596173265920202,-0.0725274658207,-0.45690917968,0.28344726562,0.05084911728431202,0.22493303825336655,1.04235157403605,0.63557828088,1.5904885983,0.028271213103766374,0.1677195785775994,lift down
-0.5146697998026,-1.03735351562,0.76843261718,0.2643592984253695,0.5128718182287292,0.7040106201131501,0.4384765625,1.40832519531,0.046850306454367725,0.215907514742067,0.15456970214645,-0.43432617187,0.71728515625,0.06542724250685325,0.2551472247435174,1.06119419212925,0.65595568006,1.7593151748,0.033194269975502226,0.18173689395833942,lift down
-0.023703613281950028,-0.53381347656,0.56225585937,0.13852423470546144,0.3712568026742865,0.8973034667926499,0.74719238281,1.09069824218,0.010009523251315964,0.09979717248028315,0.3166967773400501,0.03723144531,0.4814453125,0.015701178564010897,0.12499069033808416,1.0323571721178002,0.89717007677,1.20170441274,0.0036830679336684,0.06053637413985131,lift down
-0.11078308105444996,-1.35241699218,0.8369140625,0.5249800422744664,0.7227414074640349,0.6985375976522499,0.16064453125,1.16674804687,0.044687129498562614,0.21086415971205205,0.11286804198960003,-0.31677246093,0.740234375,0.04392912529692422,0.20906812208091313,1.03757930973845,0.48499168086,1.72236165838,0.047160153641990256,0.2166202965416221,lift down
-0.043939819333750005,-0.13171386718,0.10705566406,0.003651993253096536,0.060280455263966394,1.0189440917933,0.88464355468,1.24340820312,0.005535160535178618,0.0742124297709132,0.0992230224583,-0.03247070312,0.23803710937,0.005140640594213926,0.07151879047664926,1.0292753337363,0.90438109102,1.25015684574,0.004895900382594998,0.06979556490696256,Null
-0.17652099609445,-1.10888671875,0.17724609375,0.16300494821058742,0.40272810116694674,0.86022888183155,0.32934570312,1.24401855468,0.04023232179925304,0.20007788531033802,0.27925231933225,0.03283691406,0.60290527343,0.035433058339913344,0.18776552678330966,1.0372592216633,0.77467486113,1.33197697056,0.010759329482127511,0.1034675448375812,Null
-0.673471069334,-1.33850097656,0.19189453125,0.21988912157741564,0.467749586819196,0.6132690429648,0.30212402343,1.09106445312,0.05625030937493087,0.23657780501994732,-0.03776428222655001,-0.61901855468,0.42614746093,0.08679076312856968,0.2938652910993859,1.0731859090326499,0.46801740301,1.54992364764,0.04067928549340002,0.20118620495931877,Null
-0.9437768554651501,-1.37182617187,-0.6513671875,0.016807555307632067,0.1293194398808389,0.41933776855105004,0.06701660156,0.68981933593,0.01879043658130012,0.13673508839501886,0.15629821777029998,0.01940917968,0.529296875,0.011116683917168904,0.10517176663716864,1.0582096254021003,0.81513535904,1.41784014263,0.017750292519211754,0.1328967307973213,Null
-0.9379516601528999,-1.10546875,-0.89465332031,0.0015965957737718425,0.03985740577236536,0.39929138183269997,0.25830078125,0.51147460937,0.0029263155689626627,0.05396002215638768,0.11160461425465,-0.03784179687,0.25817871093,0.004322347850062755,0.06557999779515429,1.02887816740605,0.93585419833,1.19133533829,0.0019320003401845569,0.04384450180448666,Null
-0.9201306152301,-0.93139648437,-0.8994140625,2.9218944171395825e-05,0.005391924466323582,0.41031860351160004,0.390625,0.42724609375,6.6466683416607e-05,0.008132302871851488,0.1412438964805,0.12121582031,0.15625,6.425867577835911e-05,0.00799608544223155,1.0173915917669998,1.00575140216,1.02963678295,2.5163165278054737e-05,0.005003733551225971,Null
-0.9279345703082,-0.93981933593,-0.91467285156,2.1285004354745406e-05,0.00460201904960982,0.39155883788699997,0.37841796875,0.41125488281,6.789339696955313e-05,0.008219119781625364,0.14008056640269997,0.12841796875,0.14953613281,2.6081800465236216e-05,0.005094250824499127,1.0169082593137,1.00645047939,1.02513241377,1.581047995415638e-05,0.003966286368176862,Null
-0.9451440429643999,-0.97302246093,-0.92102050781,0.00026059413673738184,0.01610252048760364,0.4020703124965,0.37329101562,0.42956542968,0.00041332470114691127,0.020279498949460677,0.15456054687159998,0.13354492187,0.18542480468,0.0001977624366059654,0.014027602233558504,1.0388209283496999,1.00789226541,1.07490804578,0.0005680024966526413,0.023773146282504935,lift up
-0.9194128417934,-0.93078613281,-0.90966796875,1.8761402097341225e-05,0.004320601241361499,0.40283935546479993,0.38928222656,0.41955566406,6.446192013381103e-05,0.008008720904934942,0.15638305663729998,0.14733886718,0.16625976562,2.546409116376465e-05,0.005033564413807161,1.0159423373882002,1.00832461866,1.02705308116,2.4614521342644167e-05,0.004948883584802833,lift up
-0.9148535156208,-0.9326171875,-0.89343261718,6.341708964684654e-05,0.007943551107572248,0.398286132809,0.36254882812,0.44067382812,0.00033875599579716455,0.018359254228268063,0.19005737304370002,0.14294433593,0.26818847656,0.0015913291118440133,0.039791613014362626,1.0166633534376999,0.99695156783,1.03982250842,9.021522119865739e-05,0.009474394180772937,lift up
-0.9254785156216002,-0.93737792968,-0.91625976562,2.8530700719740793e-05,0.005328043469805975,0.3836279296836,0.36328125,0.40478515625,6.488036869159691e-05,0.008034672790359227,0.1610656738243,0.14306640625,0.17492675781,4.327008921842934e-05,0.006561534787863065,1.0147592198914,1.00697982011,1.02698800052,2.2860294714617075e-05,0.004769275966123579,lift up
-0.9278369140591001,-0.97338867187,-0.91748046875,0.00010947507829445225,0.010436843531594214,0.3947900390588,0.36840820312,0.90258789062,0.004599399985941811,0.0676491166683801,0.1568713378867,0.12658691406,0.20397949218,0.00022043238182326426,0.014809801481253824,1.0219699945543999,1.00310417522,1.34250985627,0.0018403234370759783,0.04279160922296097,lift up
0.0778271484349,-0.97265625,0.30700683593,0.0677816997571134,0.25969749952267124,0.9511193847620001,0.68835449218,1.04577636718,0.006982257694158075,0.08335074328215247,-0.1345227050759,-0.41772460937,0.22863769531,0.026861822932800046,0.1634855156218313,1.0090349082761,0.69666957222,1.409918271,0.01180674637744446,0.10838686565058166,lift up
0.0421472167932,-0.01135253906,0.09313964843,0.0009116988250349007,0.03011877040833052,0.9927087402302999,0.95129394531,1.03820800781,0.0004713873333004248,0.021657109609408236,-0.05251708984239999,-0.1767578125,0.11218261718,0.007213051767850192,0.0847170969109007,0.9990559024012998,0.95272682815,1.04026543387,0.0004477755297010508,0.0211077391506657,lift up
-0.035720214842200004,-0.13305664062,0.0849609375,0.003850633708364239,0.061898146497471294,1.013261718747,0.92272949218,1.119140625,0.0013452623118152456,0.03658600825802358,-0.0791540527326,-0.24926757812,0.08959960937,0.010720833837222516,0.10328228148156103,1.0240082957939998,0.93249630768,1.13142321008,0.0014922259713092253,0.03853264643717946,Null
0.21921264648410002,-0.49499511718,0.97766113281,0.18315290454768787,0.4268924220748706,0.8292028808558,-0.29333496093,1.50610351562,0.11487841368084412,0.3380887777085183,0.0584326171858,-0.32067871093,0.41882324218,0.032244479199577715,0.17911799687239646,1.0215421004298,0.71038382842,1.585690512,0.02424334496695237,0.15531300087924904,Null
0.530833740231,0.19519042968,0.97766113281,0.03894132438464413,0.19684160577154644,0.8190161132774,0.40759277343,1.11242675781,0.032743737260474644,0.1804993589300867,-0.10563110351440003,-0.771484375,0.30603027343,0.04354606233350595,0.20815458683833613,1.0359777768396001,0.80101796815,1.18991217187,0.005160600863474578,0.07165750385798549,Null
0.34226440429349997,-0.21838378906,0.81201171875,0.04718545035887935,0.21667838634041225,0.9177258300740999,0.73754882812,1.22338867187,0.0071027424152809,0.08406681094941389,-0.23429199218479999,-0.771484375,0.072265625,0.052288826350099356,0.22809511660346624,1.0536410973637,0.90696988616,1.480706772,0.010193900714853038,0.10071212047851427,Null
0.2116967773406,0.0361328125,0.4951171875,0.017993228393555587,0.13380307265376162,0.9861853027297001,0.73645019531,1.1650390625,0.009613201862302093,0.09780151252915562,-0.13070312499739997,-0.53039550781,0.14782714843,0.030935091013251956,0.17544348251840447,1.0439127567745,0.926903676,1.18579968643,0.0029701041698462476,0.05436224470160349,Null
0.0256384277346,-0.53503417968,0.34887695312,0.03628509231872901,0.19000964937901277,1.0197949218703999,0.88757324218,1.25622558593,0.004548332116067633,0.06727250891327968,-0.1721142578094,-0.41979980468,0.09375,0.013580483682953254,0.11624362892020572,1.0573382636635,0.90920147731,1.31350856018,0.006472325792975846,0.08024938731237122,Null
-0.04866455077990001,-0.24694824218,0.20764160156,0.02206059413248351,0.1481563065205835,0.9622644042934999,0.57836914062,1.16943359375,0.010678186385288719,0.10307664843873356,-0.2754650878868,-0.58264160156,-0.00695800781,0.021575859112758694,0.14651955438505435,1.0242049991004,0.60902503552,1.17577183361,0.009295701674538765,0.09617288165676471,Null
0.12138793944940002,0.091796875,0.14245605468,0.00019504439739001378,0.013930871308107893,0.9782629394488,0.93286132812,1.02478027343,0.000692410761100306,0.026247832430408506,-0.1840173339806,-0.22045898437,-0.16381835937,0.00017629120667727585,0.013244234619029122,1.0029486457304,0.95975652091,1.05095437903,0.0007519913668588968,0.027353818929440225,lift down
0.14866333007489999,0.12512207031,0.171875,0.00011072307825165577,0.010496164197476976,0.9975585937462,0.98767089843,1.0244140625,4.657219403606779e-05,0.006807299983538808,-0.16618896483979997,-0.18286132812,-0.14099121093,0.00013031827146121143,0.011387127825044618,1.0222942531846,1.01132139113,1.04871486428,4.3558878241594377e-05,0.006583394553753132,lift down
0.1484820556605,0.1376953125,0.16027832031,2.40148577687823e-05,0.00488822907400404,0.9997979736296,0.98962402343,1.00854492187,2.5310198484053425e-05,0.005018331146071686,-0.16680969237874999,-0.17883300781,-0.1591796875,2.463618676946995e-05,0.00495106108179071,1.0244582264549,1.01329225256,1.03275319562,2.745334980396018e-05,0.005226479030374118,lift down
0.16943115233949996,0.11315917968,0.69885253906,0.007819502192004087,0.0882066022531424,0.9821545410117001,0.10095214843,1.25891113281,0.022915704075138717,0.1510004157436761,-0.173250732418,-0.39428710937,-0.12585449218,0.002538689073949292,0.050259284003848936,1.0237818388901,0.65858649796,1.30394107916,0.008370398312818822,0.09126086960606243,lift down
0.42305297851280005,0.1025390625,0.99633789062,0.1258084541509873,0.3538070263296539,0.7327709960899,-0.0107421875,1.08190917968,0.18223185935182462,0.4258176840562936,-0.18358642577669998,-0.49426269531,-0.08288574218,0.00910718531471307,0.09519269608609425,1.0295857785567,0.72751017263,1.13581949562,0.005171876367299911,0.0717357441270627,lift down
0.1540991210905,0.14392089843,0.1689453125,3.6792174057316e-05,0.00605047214579403,1.007869873043,0.98559570312,1.02978515625,7.621680523798636e-05,0.008708370755301845,-0.0767004394492,-0.09106445312,-0.060546875,7.178168050889631e-05,0.008451199447791527,1.0225135446970999,1.00148597222,1.04525253198,8.150265089028539e-05,0.009005283873139923,lift down
0.2675378417932,-0.03869628906,0.73999023437,0.049070685668847015,0.22096454973706253,0.9330810546828,0.52612304687,1.36584472656,0.031168051101691945,0.17610284167549223,-0.1270886230436,-0.54028320312,0.02807617187,0.016149674796090946,0.1267632692151417,1.0219991547704,0.68724160323,1.43796087216,0.009841675041543893,0.09895689297030386,Null
-0.15036621093690003,-1.29809570312,0.66320800781,0.1752531007285242,0.41758452464726414,0.9249243164026001,0.48791503906,1.30334472656,0.039278510221795515,0.19769197674839142,0.0690795898436,-0.49169921875,0.67443847656,0.059002069820702885,0.2422953971325072,1.0563542269125,0.66305998131,1.79305561744,0.0393454651731058,0.19786039989659443,Null
-0.6708435058552,-0.80407714843,-0.55419921875,0.004436322305324381,0.06643899979528409,0.6066870117154,0.39978027343,0.75915527343,0.007962965180638064,0.0890120798247905,0.4626232910125999,0.21984863281,0.61376953125,0.008080636345290075,0.08966734725396767,1.0246294082815002,0.87186610617,1.11816495537,0.002645777708108069,0.05130836987829109,Null
-0.32950561523229993,-0.5751953125,0.32629394531,0.07647301165017191,0.27584533092282176,0.8726147460895001,0.7587890625,1.28308105468,0.011567580166730176,0.10728346688048689,0.3583142089804,0.25744628906,0.68383789062,0.00452339041020657,0.06708780409400458,1.0404458261315,0.8803405841,1.47560551325,0.008033329772772234,0.0894044916316198,Null
-0.4423046874975,-1.02429199218,0.32629394531,0.15396583844612646,0.39140261784241537,0.7410278320278999,0.21203613281,1.2431640625,0.05656042036113316,0.23722904177045334,0.3324145507782,-0.01013183593,0.63269042968,0.025152110280472217,0.1581971862236173,1.0295051991535003,0.49572814024,1.37236631736,0.030024261454831058,0.17284137278891562,Null
-0.4517919921863999,-1.16040039062,0.48120117187,0.2755732307683635,0.5236366723354292,0.7374414062462,0.33837890625,1.23913574218,0.0587035619071299,0.24168169996421793,0.13768188476399998,-0.2685546875,0.70190429687,0.059900277490712875,0.24413270183090857,1.0584607119772,0.76911665306,1.65084336069,0.038954009307938804,0.19687366319901478,stairs up
-0.40789794921805006,-1.32763671875,0.56420898437,0.4267358799332862,0.6516150708306399,0.4820208740197501,-0.10693359375,1.26049804687,0.09857378748450701,0.31317873259064777,-0.08961914062639999,-1.21350097656,0.4453125,0.2647337229729912,0.5132348919920842,1.06613852086745,0.5017608096,1.66146128354,0.05648068150423861,0.23706176008946994,stairs up
-1.0040014648405,-1.2021484375,-0.75402832031,0.0154477194865508,0.12397774352325519,0.4080761718715,0.17492675781,0.58801269531,0.009655545380895808,0.0980166702861882,0.189752197262,-0.01745605468,0.40612792968,0.012690121916318036,0.11236846224246573,1.1103641085551998,0.88327512181,1.34977216056,0.015323584017778228,0.12347860582987377,stairs up
-0.9894262695270001,-1.24841308593,-0.69470214843,0.020436127515244564,0.1425971489114293,0.41191894530859996,0.201171875,0.61169433593,0.012042783109311906,0.10946492220691223,0.1739672851529,0.03967285156,0.26062011718,0.002477468264170525,0.04964958129581429,1.0913552624229002,0.82099999274,1.3616199208,0.02274519076982216,0.1504375778054574,stairs up
-0.4254528808581,-1.17199707031,0.77783203125,0.5533660232957844,0.7420237147014275,0.5952526855433,0.22839355468,0.984375,0.050292894677434634,0.22369941931987097,0.07918334960830001,-0.26147460937,0.36010742187,0.027029501149471613,0.1639949805442967,1.0734912585293,0.82706442882,1.29373041059,0.016841619317343216,0.12945041993271594,stairs up
0.6145391845666,-0.07153320312,1.03002929687,0.05536260050677767,0.2347036162998853,0.72280334472245,0.23913574218,1.12316894531,0.05841305047720403,0.2410829426251845,0.19278991699059997,-0.25903320312,0.57568359375,0.05356530766844881,0.23086247232953772,1.0460440674325,0.81416705479,1.22696512745,0.008963958568405346,0.09444119215450068,stairs up
-0.67402465819935,-1.09155273437,-0.01452636718,0.1253566287856578,0.35317112798433775,0.65560241698825,0.33227539062,1.20275878906,0.05843351567173957,0.2411251710074684,-0.032738037108849996,-0.34777832031,0.29296875,0.03165141637346646,0.17746312093389752,1.0440062565596002,0.8253519124,1.24408709831,0.009659133051192903,0.09803487841547485,stairs up
-0.19812133788825,-1.04431152343,1.13720703125,0.4915532251039275,0.6993536008189333,0.62680664062175,0.19372558593,1.30419921875,0.07607317944309179,0.27512326972809176,-0.025903320313650006,-0.58166503906,0.65759277343,0.12058365494496066,0.3463823561762866,1.045740292536,0.74640295601,1.44646427038,0.024126493488837716,0.15493824905875736,stairs up
0.6341638183573,-1.298828125,1.16247558593,0.44445462000523944,0.6650055239659391,0.3374023437466,0.12951660156,0.84680175781,0.03173123951522681,0.1776867561684063,0.19504394530869998,-0.01721191406,0.85070800781,0.045127642813420424,0.21190093109600372,1.0211539267812,0.63186195001,1.58798261143,0.030148566153738954,0.1731987971175616,stairs up
-0.94079284667585,-1.16589355468,-0.68542480468,0.01809688690306874,0.13418793712012045,0.3998504638637,0.25549316406,0.57043457031,0.006767300570725371,0.08205768743921403,0.17642517089425,-0.03662109375,0.39172363281,0.008907428479102837,0.09414293035967874,1.04284782432905,0.77999942823,1.27921611152,0.020687917001702978,0.14347291527216718,stairs up
-0.9768524169884,-1.17199707031,-0.78515625,0.012986130066994011,0.11367145383366503,0.3969067382774,0.20947265625,0.56494140625,0.011859439851064744,0.10862846151819246,0.15963928222265,0.03759765625,0.27758789062,0.0057898341977095135,0.07590049424556447,1.0731077058744,0.84204078557,1.29438457014,0.016263701088434786,0.12720999403738925,stairs up
-0.9844757080041,-1.15270996093,-0.80078125,0.009787738987737254,0.09868536007330858,0.38461364745704996,0.20886230468,0.55615234375,0.008739624265783992,0.09325194981583534,0.1312860107387,-0.01879882812,0.25061035156,0.0053672065682606315,0.07307783888032902,1.07080378571375,0.88556241163,1.25831263532,0.011568284976019989,0.10728673520589527,stairs up
-0.97796813964445,-1.2724609375,-0.73229980468,0.020725796866319875,0.14360420565564322,0.34800903319954996,0.212890625,0.54162597656,0.0060151858529786184,0.07736349218923436,0.1483715820273,0.03894042968,0.28918457031,0.003232928502505258,0.0567165219313802,1.05280374021705,0.787659739,1.32635546215,0.021079821058906677,0.14482548792809968,stairs up
-0.9655908203085,-1.27893066406,-0.73889160156,0.017863624143874705,0.13332031361782545,0.34512878417590004,0.21398925781,0.48059082031,0.005032439447171941,0.07076211733643985,0.13204162597305,0.05090332031,0.28601074218,0.0024903043097543095,0.04977803519832354,1.0369568972692003,0.7958502632,1.33471276656,0.018989276570216825,0.1374566483927414,stairs up
-0.9772760009719501,-1.18139648437,-0.75341796875,0.016041872503906734,0.12633947578404464,0.3445306396441499,0.15234375,0.5078125,0.006540480705016485,0.08067080203823068,0.1464038085902,-0.05859375,0.26318359375,0.0045502117589161185,0.06728640798944122,1.05131466785055,0.78907841014,1.2719094581,0.017023306739559367,0.1301468025187771,stairs up
-0.93491027831695,-1.24841308593,-0.68017578125,0.018470381354140347,0.1355655909416901,0.4158105468713,0.15234375,0.82604980468,0.021500828541671037,0.14626456986899694,0.1630548095663,-0.05859375,0.28662109375,0.006941141045373241,0.08310496579715544,1.0503133935394,0.82173952683,1.41369338513,0.017147813923337106,0.13062187739318565,stairs up
-0.07237121582015008,-1.16577148437,1.09606933593,0.85388318672014,0.9217449597293924,0.3708319091757,0.16760253906,0.83837890625,0.025379002303659904,0.15890911645384478,0.04974365234279999,-0.24523925781,0.57800292968,0.048952591327611046,0.22069850106190797,1.0193167561838998,0.54956610535,1.4877071024,0.029945111261478433,0.17261339955278976,stairs up
0.14876770019449992,-1.08776855468,1.0439453125,0.7416265501683218,0.8590217793615481,0.4902362060502499,0.11804199218,0.97204589843,0.038565808875601064,0.19589022392968736,-0.009535522461449997,-0.34375,0.35461425781,0.04163744838539916,0.20354179212995094,1.0327720692541502,0.77733928353,1.30035838565,0.013725431048904158,0.11686232880470779,stairs up
-0.97252197265205,-1.14099121093,-0.69616699218,0.008499593441258531,0.09196246774664237,0.439196166988,0.23498535156,0.62915039062,0.011550130915408442,0.10720251984366506,0.13340148925605,-0.13439941406,0.57946777343,0.025314626297232957,0.15870744521208446,1.0917201282078002,0.8123038587,1.26756822085,0.009822018384806884,0.09885802088289472,stairs up
-1.0136389160119001,-1.1796875,-0.79479980468,0.007220096430988232,0.0847584565033678,0.3784857177689,0.15441894531,0.64599609375,0.01815655867932569,0.1344089873703729,0.13784362792715002,-0.20202636718,0.42761230468,0.019091071027111432,0.13782458297406844,1.1076272392186501,0.88622207007,1.26756822085,0.007159239013406827,0.08440049062854903,stairs up
-0.9999859619099999,-1.23425292968,-0.73571777343,0.011314491108031904,0.10610333949735863,0.38199890136335,0.15734863281,0.60205078125,0.011937748738615913,0.10898651290376637,0.11190979003625,-0.09460449218,0.29309082031,0.00788272609897863,0.08856247776843044,1.08445313095675,0.80680348597,1.36766215667,0.013426717227267683,0.1155836651137666,stairs up
-0.9924420165979501,-1.38525390625,-0.73303222656,0.01692030279744466,0.12975246156993492,0.3675476074179001,0.16589355468,0.52624511718,0.006981919421466624,0.08334872419155132,0.13892333984145,-0.13781738281,0.28857421875,0.008245365948820188,0.09057670295984552,1.0737736479505,0.78353191903,1.45318006595,0.01842120359159306,0.1353849975943978,stairs up
-0.9737847900354,-1.16638183593,-0.71911621093,0.012524854822046367,0.11163436096442768,0.3443194580041499,0.19665527343,0.49047851562,0.006711799337297912,0.0817205013482628,0.17375549316074998,-0.00256347656,0.45715332031,0.009652554853728176,0.09800149018999423,1.0544001928734001,0.76523468227,1.24502279484,0.014058968946893562,0.1182737253246007,stairs up
-0.9773162841761,-1.18872070312,-0.78442382812,0.010500692907509282,0.10221638539378966,0.36475524901925,0.22204589843,0.54370117187,0.008365956523600353,0.09123665239903507,0.13802001952735,0.00024414062,0.27819824218,0.005633181129911033,0.07486664961290493,1.05749558703595,0.83801958563,1.29388357339,0.013390403620200305,0.11542725675549646,stairs up
-0.9774279785119,-1.17346191406,-0.79724121093,0.012251516261800745,0.11040950448440452,0.39179321288644997,0.22595214843,0.95910644531,0.015765804068858143,0.12524765486233208,0.14672546386285001,0.02514648437,0.41955566406,0.00597946958895523,0.0771334703031729,1.0718924228727,0.86376120744,1.41616497962,0.015345905876533353,0.12356850871945767,stairs up
0.06533996581915001,-1.25830078125,0.95202636718,0.5584598340054503,0.7454311066996219,0.7020281982384499,0.20483398437,1.22827148437,0.045879495125231574,0.21365883470993055,-0.05026611328014999,-0.52722167968,0.7666015625,0.11635249990111991,0.3402509917716836,1.05967784555245,0.37107216621,1.79669741292,0.09428222907891107,0.3062855170156051,stairs up
-1.0226910400352,-1.39282226562,-0.69201660156,0.02958500328051191,0.17157237034006773,0.35046447753470006,0.1640625,0.59252929687,0.013449655180714677,0.11568235347195831,0.16717163085555,-0.095703125,0.37658691406,0.008271127775757427,0.09071809156325236,1.1031295268385,0.72261295704,1.50551743342,0.030978062181089734,0.1755652923279094,stairs up
-0.9774230957001001,-1.26184082031,-0.75769042968,0.013987181736322333,0.11797137715412465,0.3526092529262,0.21044921875,0.49743652343,0.0057110009835244,0.07538200036220039,0.1447155761676,0.0341796875,0.22741699218,0.0018683255601562659,0.04311593594432904,1.05227857303845,0.84612418742,1.31913973283,0.014874644928785933,0.12165636729798406,stairs up
-0.9696118164024,-1.29626464843,-0.74560546875,0.01705022637548412,0.13024966504220536,0.34366760253525,0.20227050781,0.49475097656,0.005733548087938684,0.07553065832825098,0.1527789306609,-0.05712890625,0.38488769531,0.00907832168119524,0.09504172806083265,1.04622214874205,0.78752421576,1.36168042171,0.018811958131405966,0.13681337047507067,stairs up
-0.9643811035120499,-1.18481445312,-0.76818847656,0.011548560107466981,0.10719522987022158,0.37082763671530006,0.22570800781,0.53674316406,0.007559265736866704,0.08672640548404142,0.12063476562155,-0.03723144531,0.24853515625,0.004635358012379685,0.06791304162175175,1.0444561184832002,0.81950565803,1.2729151772,0.014907216220938702,0.12178949108947787,Null
-0.25095642089729997,-1.16833496093,0.95727539062,0.7794195509035472,0.8806375265391712,0.3809539794885,0.15673828125,1.10717773437,0.05734867463106944,0.23887639326210972,-0.005915527344199995,-0.51440429687,0.34143066406,0.07067212340028012,0.2651768518994045,1.04360285203005,0.65324761823,1.36565152127,0.0220465201700964,0.14810903945825155,Null
0.32551696777195005,-1.2216796875,0.98986816406,0.7662372225394739,0.8731586547854728,0.35487670898085,0.16638183593,0.82580566406,0.04009989843731945,0.19974833902972225,-0.07731018066345,-0.31616210937,0.32177734375,0.05274488247935628,0.22908766458925608,1.0373991132016,0.77470114583,1.45120532894,0.016548052550397742,0.12831723301118114,Null
-0.910898437496,-1.06909179687,-0.74645996093,0.0049640646173096615,0.07027975735745758,0.28802856445025,-0.11828613281,0.52368164062,0.029385016777230117,0.17099149596791055,0.2627502441371,-0.13549804687,0.5634765625,0.03640766415587511,0.190330307190147,1.02480697269785,0.94454059138,1.14685186575,0.001917325326222312,0.04367766820231136,Null
-0.9572821044885,-1.37072753906,-0.48278808593,0.019356567535885816,0.13877962638012248,0.2918414306612,-0.35131835937,0.86059570312,0.05541755655493655,0.23482007744688668,0.2938525390587,-0.10632324218,0.80358886718,0.039495916258561935,0.19823833301677335,1.087636585731,0.81441914878,1.68938445905,0.01874885473859332,0.13658371229725877,Null
0.31829101562335,-1.07409667968,0.69250488281,0.25625816341346774,0.5049523468570083,0.79701232909835,0.51428222656,1.04907226562,0.014052337578262122,0.11824582821550539,-0.0562713623036,-0.49609375,0.36657714843,0.04594648474886868,0.21381476171004735,1.0183704199613501,0.74044199022,1.31615566166,0.017388621243148505,0.13153584354438436,Null
-0.94831787108985,-1.50524902343,-0.3173828125,0.04212580517298744,0.20473196171365746,0.46426086425409996,0.27478027343,1.36340332031,0.0526333245258085,0.22884527065941182,0.056431274412499996,-0.62463378906,0.38244628906,0.04266927131019523,0.2060483558625117,1.0887426626427001,0.57195445379,1.978817302,0.06975889144224282,0.2634579605649288,Null
-0.9316741943322501,-1.68688964843,-0.35791015625,0.07339859891449871,0.27024360477155834,0.5285083007777,0.16638183593,1.12023925781,0.03703483457549184,0.191962653666317,0.08718627929545,-0.88647460937,0.57849121093,0.08530315662470007,0.29133595871703954,1.135827341911,0.65329637469,1.90170362304,0.05989289668903151,0.2441176605769979,Null
-0.09776428222255001,-0.4111328125,-0.00109863281,0.0037174780730781115,0.06081850608747901,0.9243640136688501,0.77514648437,0.96398925781,0.0020966297403640422,0.04567435376294034,0.41226745605095005,0.34826660156,0.63928222656,0.004434620435153771,0.06642625484684503,1.0216042243335999,0.94440601171,1.08796455364,0.0004959129589727647,0.02221336071327121,Null
-0.023399658201650003,-0.19482421875,0.27966308593,0.012513656470289751,0.11158444420230941,0.9412713623009,0.86950683593,1.06103515625,0.0014303017198323063,0.03772466316924705,0.40292236327785,0.21362304687,0.64892578125,0.005958324287443271,0.07699696530387451,1.03277105772435,0.95987879575,1.16688958519,0.0020828801162357975,0.04552434201231929,Null
0.0795147705067,-0.18432617187,0.42407226562,0.025888104035787694,0.16049505760492674,0.8470776367153,0.61486816406,1.29650878906,0.02412397047406986,0.1549301475559212,0.48742309569915,0.10949707031,0.78869628906,0.047961733734988486,0.21845348490311053,1.024547195364,0.86773781884,1.34325789156,0.009277768088628983,0.09608006686189305,Null
-0.83117797851325,-1.1904296875,0.06420898437,0.09631668981939573,0.3095724573832413,0.47983581542614995,0.251953125,0.83520507812,0.023560880428225368,0.1531113190658491,0.05768188476569999,-0.52600097656,0.578125,0.08028052318908029,0.28262894503772057,1.0526469410811001,0.73607403446,1.37540778702,0.016152310995688493,0.1267736149232562,Null
-0.935561523433,-0.97497558593,-0.91442871093,0.00013791115440387727,0.011714162310291671,0.318828124996,0.26477050781,0.35400390625,0.0005401752462425678,0.023183493481599253,0.22947753905939997,0.14526367187,0.27856445312,0.00044721553074782556,0.021094536095730722,1.0152060921783999,0.9896088831,1.02879469635,6.326047966432717e-05,0.007933736652171253,Null
-0.9107281494107999,-0.94763183593,-0.87744140625,0.0005113660057527935,0.022556798880249595,0.31239685058225003,0.28369140625,0.34252929687,0.00017938049257327563,0.013359775077089032,0.22920043944909999,0.18725585937,0.2529296875,0.0001334782806041044,0.011524360685134941,0.9898354559070002,0.95721567673,1.02700372878,0.0005992660414693625,0.024418634508547275,lift down
-0.9332574462850499,-0.9443359375,-0.92529296875,2.3256369196184874e-05,0.004810414467611284,0.32198364257445,0.30688476562,0.34216308593,5.3066463021625486e-05,0.00726643865359898,0.24760620116855,0.23095703125,0.26599121093,7.99613966446076e-05,0.008919730358109742,1.01791791162295,1.00932896541,1.03344575164,2.7913701894101202e-05,0.005270117018115508,lift down
-0.9306860351523999,-0.9404296875,-0.91320800781,2.1874419405353306e-05,0.004665302488405927,0.318334960933,0.30578613281,0.33764648437,5.521007518378023e-05,0.007411749105836039,0.246938476559,0.22436523437,0.26342773437,5.621577027652177e-05,0.007478949887861207,1.0142020338972,0.99479055987,1.0212669214,1.921888355174224e-05,0.0043729611402325,lift down
-0.775832519528,-1.11389160156,0.572265625,0.18734466962857838,0.4317498654087057,0.396464843746,0.27844238281,1.02551269531,0.03313908766254041,0.18158577098502984,0.25937744140220004,0.11901855468,0.42639160156,0.0026527623375902794,0.051376050119703906,1.0106843277172002,0.52858961367,1.53245822767,0.027050406564836503,0.1640583875698293,lift down
0.3792871093714,-0.85498046875,0.61694335937,0.06827258562868524,0.2606361883939792,0.9499536132778001,0.71716308593,2.13513183593,0.0599619824022365,0.2442584133458361,0.2443481445276,0.03234863281,0.69152832031,0.026274380522202864,0.161687997759858,1.0977551399843999,0.99510931848,2.38662270635,0.05492125718314911,0.23376623130219934,lift down
0.34513183593385,0.17309570312,0.43176269531,0.006254967097694587,0.07889038130346508,0.96735656737955,0.8935546875,1.07043457031,0.0025421394890657247,0.05029342692261481,0.1324517822231,0.048828125,0.2119140625,0.0015211430772270795,0.03890420750819819,1.04015694693195,0.98862449806,1.11576927304,0.0007822828188688832,0.02789930832071897,lift down
-0.7064770507788001,-1.04516601562,0.16613769531,0.15617526847863925,0.39420095400220184,0.5275756835904,0.21203613281,1.06713867187,0.07061432369388423,0.26506839131706145,0.2436743164024,0.08850097656,0.37561035156,0.003944385405168335,0.06264713463633029,1.0308223115936,0.90762262968,1.25857816813,0.0038279068124316197,0.06171521107773562,lift down
-0.9275512695275999,-1.21643066406,-0.7490234375,0.010895411123511695,0.10411980631894269,0.3623754882774,0.02331542968,0.56518554687,0.012467988825264087,0.11138064859363034,0.1019824218726,-0.24621582031,0.31237792968,0.02354195379033538,0.1530498089557243,1.0176127690718,0.7606211457,1.29859882137,0.013269191628795862,0.11490363645530059,Null
-0.8724902343715999,-1.49011230468,0.99328613281,0.21835408567590087,0.4661140581955466,0.3224414062468,-0.220703125,1.51440429687,0.07671695507915104,0.2762849440410304,0.2603491210896,0.08068847656,0.9501953125,0.03319351175325806,0.1817348183328989,1.09088203403,0.35329883735,2.32738612758,0.06993864519153396,0.2637971796012541,Null
-0.9062451171839999,-1.37316894531,0.4169921875,0.08143152720900981,0.28464779917112437,0.38276855468419996,-0.04418945312,1.60205078125,0.060175587639655144,0.24469309287647836,0.29921142577700005,0.07104492187,0.49243164062,0.010211288635477659,0.10079797712404882,1.0710118186772,0.33458076456,2.10748701374,0.061620554685051586,0.24761351318461264,Null
-0.9545288085903999,-1.11486816406,-0.78259277343,0.00841900586495221,0.09152546550347314,0.32324218749660005,0.18017578125,0.52819824218,0.007296332162783449,0.08520475633419493,0.2573144531212,0.13427734375,0.36767578125,0.0034840992587176108,0.058878508493541364,1.0451121978412001,0.84301398989,1.2265387551,0.00870896483943139,0.0930882377920768,Null
-0.7815429687472001,-1.11779785156,-0.37121582031,0.03688996700779635,0.19158683976922153,0.4865747070278,0.24682617187,0.83984375,0.022203379833487233,0.14863499902216773,0.445878906246,0.17028808593,1.0185546875,0.046986091532657676,0.2162201680579182,1.0594718575424,0.63395706324,1.45598256721,0.029588724435292573,0.1715831600510846,stairs up
-0.2679248046868,-1.38598632812,1.07360839843,0.8222813829993915,0.9045274877439571,0.2576708984356,-0.33996582031,0.96325683593,0.09102388444112938,0.30094644875612625,0.05250488281159999,-0.43762207031,0.5537109375,0.08926303221178741,0.29802133656959606,1.0438462311176,0.54555407804,1.72675296975,0.049120863841176296,0.22107749664307857,stairs up
0.5261206054664,-1.20703125,1.19702148437,0.5755697395838263,0.7567640919638743,0.3583935546842,-0.24194335937,0.70532226562,0.042153930519728745,0.20480029508555425,-0.0039697265619999915,-0.35803222656,0.83715820312,0.10548276172606709,0.3239681279345806,1.0464835594226,0.77442255773,1.56753977052,0.02987653245635323,0.17241563094473616,stairs up
-1.0106420898400001,-1.35400390625,-0.74401855468,0.021957717163481428,0.14781044813430486,0.3524096679654,0.15393066406,0.61853027343,0.015165326229783787,0.12283932431690948,0.2840258789024,0.08862304687,0.44262695312,0.006595324517453763,0.0810083199113924,1.117416236001,0.7920536436,1.44565323086,0.02124767769835789,0.14540096048467527,stairs up
-0.970368652341,-1.33410644531,-0.69348144531,0.02268695460493793,0.15024486624145678,0.3566967773396,0.12890625,0.546875,0.009873601905080775,0.09911727344693948,0.24377929687099997,0.11193847656,0.37670898437,0.004090076091873886,0.06379361810882431,1.0680999306019998,0.76960873092,1.39688170322,0.024026307213905095,0.15461622061684074,stairs up
-0.9929296874965999,-1.15222167968,-0.80651855468,0.006682467724258126,0.08154174014354143,0.33584716796400005,0.09155273437,0.54895019531,0.014444314540987555,0.11988366430954059,0.23930175780840002,0.01574707031,0.48266601562,0.010712234075415352,0.1032408490135483,1.0851578833452,0.84816908375,1.26310371113,0.010130859602865729,0.1004002256215164,stairs up
-1.034531249997,-1.31616210937,-0.73266601562,0.016429054461516747,0.12785503192760606,0.34794433593420004,0.08740234375,0.6142578125,0.018765000697820312,0.1366425105680191,0.2584692382776,0.07470703125,0.45727539062,0.00774581222072825,0.0877899946441769,1.1313343038047998,0.77985934464,1.39015608285,0.021039574212164427,0.1446871671610983,stairs up
-0.9662915039028002,-1.28308105468,-0.75366210937,0.017725810339636643,0.13280504993387285,0.3027246093714,0.09631347656,0.48046875,0.009724431205701902,0.09836569040917362,0.2817553710898,0.14819335937,0.568359375,0.009078857892879513,0.09504453484243644,1.0586295884072,0.85765969143,1.38487904975,0.02049989674550598,0.14281945687397937,stairs up
-0.9890795898402002,-1.19445800781,-0.77368164062,0.011632757696117126,0.10758528666893323,0.3128833007772,0.15026855468,0.46215820312,0.0074531163463480675,0.08611533408526223,0.2527001953088,0.18273925781,0.31042480468,0.0009019929799870555,0.029958020880677685,1.0716127046252,0.85529671424,1.25620535538,0.011624042839998646,0.1075449795471581,stairs up
-0.9769091796833999,-1.17846679687,-0.78454589843,0.011032787615207111,0.10477415557822967,0.3125805664028,0.17626953125,0.46228027343,0.006261177763777099,0.07892953740494246,0.2690624999962,0.08715820312,0.43286132812,0.005238162428856025,0.07219398601484575,1.0660705342626,0.89080880594,1.27068983763,0.010417957682103678,0.10181290632180755,stairs up
-0.958798828121,-1.27172851562,-0.74047851562,0.013137504227716408,0.1143320458427025,0.3210571289028,0.17150878906,0.50842285156,0.008012629783311825,0.08928923022624434,0.21715087890240004,0.10754394531,0.31616210937,0.003195826282397333,0.05639013345422536,1.0385565797788,0.8021143354,1.33058504704,0.015227978015574874,0.12309280289885757,stairs up
-0.9797717285120501,-1.16125488281,-0.78698730468,0.010488014363430722,0.10215465868776405,0.3428192138626001,0.17895507812,0.50659179687,0.009024581783024368,0.09476000672282187,0.22948730468314998,0.09509277343,0.37976074218,0.005622276984222407,0.07479415484716233,1.0688379385873,0.83858396391,1.24978458217,0.012800739897674105,0.11285714952179916,stairs up
-1.0460034179653999,-1.3056640625,-0.89477539062,0.007270502690858736,0.08505380754207564,0.35213378905879994,0.07800292968,0.61730957031,0.023302206106487765,0.15226849666282033,0.27351074218439997,-0.15161132812,0.48486328125,0.020813326739405506,0.1439071231930806,1.1557191197518,1.00618347575,1.4031724155,0.008413973349065127,0.09149810644117069,stairs up
-0.6633862304668,-1.31860351562,0.97399902343,0.5164028724842648,0.7168129868535053,0.45305175780900003,0.0517578125,1.17639160156,0.05171449040631519,0.22683896921447078,0.1216992187486,-0.33715820312,0.61071777343,0.06643973041296844,0.25711384980374663,1.1123381134498,0.43154169044,1.7347475717,0.054508658367296174,0.23288648538603457,stairs up
0.04653808593739999,-1.21337890625,0.97229003906,0.6324431605988305,0.7932723017954405,0.6189428710906,0.24462890625,1.13830566406,0.04776153845409265,0.21799708888382474,0.09780273437279999,-0.39514160156,0.40356445312,0.033626401842611085,0.18291601852598374,1.0433567757074,0.74437009222,1.36543602061,0.01657289441689109,0.12841351153522215,stairs up
-1.0192236328086002,-1.29528808593,-0.75903320312,0.013489191400280938,0.11585225696238953,0.3398901367148001,0.09704589843,0.58776855468,0.01648446716257268,0.12807046820699852,0.20976074218380003,0.03234863281,0.34436035156,0.007064856332717304,0.08384230466210789,1.1049106872442,0.78869519324,1.33815871288,0.014439581114564322,0.11986401965974401,stairs up
-1.003054199215,-1.24145507812,-0.77307128906,0.011750660044598784,0.10812912070471946,0.31483886718340004,0.19897460937,0.5185546875,0.004946308735012319,0.07015395349755606,0.191718749997,0.00598144531,0.3642578125,0.007558401002329539,0.08672144485257317,1.0746630985288,0.85453083931,1.29522653738,0.011287070899959888,0.10597469294817555,stairs up
-0.19189880371089998,-1.17797851562,0.72045898437,0.5500441902458593,0.7397931935984745,-0.01643859863244998,-0.71350097656,1.20495605468,0.3172423166021566,0.5618328087777945,-0.022325439452800033,-0.53063964843,0.52783203125,0.13503291510605475,0.3665484286291847,0.9976450185321499,0.41566052751,1.45950786998,0.03876258342874351,0.19638933400671177,stairs up
0.1134326171864,-1.2041015625,0.94372558593,0.6745879120269201,0.8192771035899793,-0.06191894531199999,-0.72937011718,0.9248046875,0.22036629798775953,0.46825683817518426,-0.17262451171799995,-0.64624023437,0.48181152343,0.14537435201240678,0.38032549250917264,1.0282494211707998,0.55849419887,1.36786505122,0.024452445784358647,0.15598135643543062,stairs up
-0.9963427734332001,-1.13830566406,-0.82299804687,0.00616119312880417,0.07829678897094151,0.3686669921838,0.15393066406,0.57531738281,0.013530545282589483,0.11602970549034647,0.237585449215,0.029296875,0.44140625,0.010062543740778633,0.10006113642206318,1.0985251481206,0.91747107305,1.25819837089,0.007948873033643448,0.08893328211909886,stairs up
-0.9759472656215001,-1.13598632812,-0.70959472656,0.011616079028599102,0.10750813287122098,0.3557427978481,0.15844726562,0.55456542968,0.006092218672446753,0.0778572898262232,0.2153100585899,0.0576171875,0.45166015625,0.005501056849652258,0.07398345467335246,1.0667665340274002,0.79288723719,1.23328693335,0.011170278774609731,0.105424984613405,stairs up
-0.96735290527005,-1.26440429687,-0.71911621093,0.017197177143152702,0.13080975214958915,0.31371093749644996,0.11730957031,0.4521484375,0.006579344799828707,0.08091012344465656,0.20476135253579997,0.03356933593,0.45166015625,0.006867973214143989,0.08266579309528985,1.0437273736111998,0.80492588326,1.34194397432,0.01732447174365316,0.1312929906161593,stairs up
-0.9782061767547501,-1.1748046875,-0.78723144531,0.009334905644365898,0.09637546947301512,0.29519470214545,0.14807128906,0.44775390625,0.006065833505338982,0.07768850840254489,0.2527954101525,0.17028808593,0.34130859375,0.0015709150077495115,0.03953555909192083,1.05586947952445,0.84953964648,1.24034363873,0.010009240103734026,0.09979576094812521,stairs up
-0.93403503417595,-1.19274902343,-0.70922851562,0.015323843590172229,0.12347965165249442,0.33110595702815004,0.04064941406,0.712890625,0.010446403248278807,0.10195180838041772,0.33326232909809994,0.17614746093,0.69653320312,0.014826246957848257,0.12145828799657525,1.0579760688214,0.83186536577,1.3449602665,0.01426786831367936,0.11914918787852044,stairs up
-0.95202819823905,-1.2216796875,-0.703125,0.015221606019463554,0.1230670467239961,0.32975341796530006,0.1904296875,0.58776855468,0.007815933473073286,0.08818647178398692,0.2282403564417,0.01391601562,0.33740234375,0.003880343544641085,0.06213647742604886,1.0371137132555501,0.74747850822,1.31441587307,0.01845940362716942,0.13552529877861763,Null
-0.94937805175395,-1.0380859375,-0.88049316406,0.0011328704689360894,0.03357389040000293,0.30968261718355,0.17309570312,0.51599121093,0.00465168565961448,0.06803254538319442,0.24019897460575002,0.02258300781,0.33032226562,0.005948982285301186,0.07693658020652257,1.0320119798942,0.9734524069,1.15719420311,0.0015514573038666346,0.03928994804459916,Null
-0.952998657223,-1.12036132812,-0.84423828125,0.0028268015530714826,0.05303458819776133,0.33243835448865,0.1591796875,0.64721679687,0.006199007099757085,0.07853669247083366,0.24283142089410004,0.15100097656,0.36486816406,0.001998000099665913,0.044587106871466595,1.0410647768818,0.92958171627,1.31440709842,0.004865948967449142,0.06958174489484936,Null
-0.6328386145435323,-1.45324707031,0.29553222656,0.3217214163956541,0.5657921988981327,0.5436562305620896,0.08728027343,1.25317382812,0.09610935529788801,0.3092429454351079,0.15831972947582088,-0.28442382812,0.51489257812,0.039463623507607716,0.19815975139327988,1.064824412034776,0.68713882018,1.55450907119,0.04249161714896514,0.20562153600394592,stairs down
-0.6382682455222111,-1.75354003906,0.28601074218,0.3523460902249114,0.592094170598687,0.5158587125045727,0.12866210937,1.18200683593,0.06972133628264064,0.26338370832088026,0.10543501197216075,-0.99719238281,0.83630371093,0.17019879439911104,0.411513698527154,1.0935383186387437,0.52350681472,2.0150826301,0.0784713892576997,0.27942272754460223,stairs down
-1.00282165526935,-1.32299804687,-0.66003417968,0.026250001799836078,0.16161296912945103,0.3331988525356999,0.05358886718,0.63537597656,0.019766871440587468,0.14024277907751445,0.21010864257425,0.02001953125,0.40197753906,0.006504190565802119,0.08044668801742622,1.0863936578266,0.68596201876,1.44020256191,0.032990621120131076,0.1811785528547196,stairs down
-1.01606689452705,-1.24194335937,-0.79968261718,0.013502496205321256,0.11590937720605114,0.3587750244102,0.12915039062,0.60961914062,0.014944564274280347,0.12194195936144762,0.2030163574182,-0.009765625,0.34790039062,0.007161298108221678,0.08441262712225328,1.1042056718858,0.82157501068,1.31438296217,0.018580145373320336,0.13596780739003528,stairs down
-1.0205487060512501,-1.23767089843,-0.79992675781,0.012878703154239453,0.11320030758998958,0.33118408202695,0.14526367187,0.57946777343,0.014544957193249941,0.12030059188251607,0.22176513671544998,0.02941894531,0.3916015625,0.006985528235541612,0.0833702620504692,1.1036328961193,0.82591064868,1.35749782102,0.016697393684291233,0.12889494449306294,stairs down
-1.0025042724578,-1.40112304687,-0.623046875,0.03043222636693856,0.17401168131796171,0.32082336425465,-0.00048828125,0.52893066406,0.018088334181460206,0.13415622427063495,0.22624145507430002,0.05725097656,0.36804199218,0.006412419288836167,0.0798771381084224,1.0863796757200501,0.7087607228,1.4559194603,0.0337338275991374,0.18320796505922365,stairs down
-1.0018091913445275,-1.38635253906,-0.66357421875,0.04502131965381771,0.21165380456980531,0.3075819632269154,0.09545898437,0.49365234375,0.01371718624713284,0.11682868457461833,0.1970876817051741,0.05969238281,0.35668945312,0.006330736122359232,0.0793677511508642,1.074004773783582,0.71342875406,1.46941171613,0.048572790258980196,0.21984343198296816,stairs down
-1.0002343749958,-1.54028320312,-0.67443847656,0.04287131967255254,0.20653562180454435,0.32191284179280005,0.10339355468,0.57971191406,0.012806000090912666,0.11288033526907201,0.2020739746064,-0.00231933593,0.36108398437,0.0062769396504786645,0.07902882355334838,1.0767172610243,0.69571436295,1.67804633405,0.047492464099877674,0.217382156073994,stairs down
-1.0348802116011557,-1.39196777343,-0.67565917968,0.03307219996702755,0.18140013232463267,0.3176165250040201,0.05554199218,0.56530761718,0.026809499687443263,0.1633241518682594,0.2323672807365829,0.07751464843,0.43823242187,0.006927392187551745,0.08302157051955772,1.1180950298590453,0.68368257218,1.50506345641,0.042401808859178255,0.2053989640743119,stairs down
-1.0079260253871,-1.22778320312,-0.80480957031,0.014572730841564324,0.12041539431217466,0.33378234862885003,0.14343261718,0.60375976562,0.01484754960113375,0.12154551350472827,0.24085327148150001,0.056640625,0.36682128906,0.004652100218874361,0.06803557685343742,1.09549770494505,0.82786804387,1.37726422305,0.01921871809995595,0.13828457798849506,stairs down
-0.9959472656215,-1.40356445312,-0.61962890625,0.029678912617934546,0.17184445890061417,0.31106018066034996,0.03283691406,0.546875,0.014924878196197457,0.12186161744050696,0.22092041015324995,0.09350585937,0.3564453125,0.0032310616371828567,0.05670014399449919,1.0737117135944,0.72276905313,1.49696160087,0.032375933459500524,0.17948273953838295,stairs down
-1.0205566406207,-1.42492675781,-0.63879394531,0.036618019468238436,0.19087935815822843,0.31769958495725,0.02392578125,0.560546875,0.023741795803529957,0.1536980378030647,0.23140258788680002,0.06530761718,0.3974609375,0.0070418586308109935,0.08370573061419952,1.1057385628714,0.73084079223,1.50914645113,0.04062606712802048,0.20105456172984582,stairs down
-1.0088236794501988,-1.32299804687,-0.66430664062,0.039429514470452676,0.1980740965694245,0.31931953999194035,0.03845214843,0.58337402343,0.021938778711330452,0.1477485382619326,0.22098248989049749,0.0693359375,0.37451171875,0.0059772218216036345,0.07711993516339084,1.0918621020574628,0.68521716674,1.44902418737,0.04358791375058327,0.2082571930529455,stairs down
-1.0049328613247,-1.46105957031,-0.66430664062,0.053877860485982365,0.2315350323030026,0.3446533203084,0.07873535156,0.58959960937,0.01866936384132778,0.1362938627456172,0.21337524413689998,0.00463867187,0.41442871093,0.009699464280202675,0.0982393350893707,1.0946684016167,0.68521716674,1.55832949527,0.05803166577574802,0.24029462633789644,stairs down
-1.028611686356985,-1.24194335937,-0.80493164062,0.020059215089801595,0.14127425460420395,0.31087076004663305,0.11901855468,0.59399414062,0.016332664654992068,0.1274778057673509,0.22575646788246231,0.03112792968,0.34399414062,0.005859536025715643,0.07635503337085124,1.105303448717839,0.81496299134,1.31249679837,0.026123269617338248,0.1612203365140184,stairs down
-1.0076623535114502,-1.34838867187,-0.65368652343,0.025166903714679553,0.15824370191608308,0.3185803222616,0.109375,0.6083984375,0.01885037511897077,0.13695299647461504,0.24349670409705,0.08679199218,0.35900878906,0.003789709431698718,0.061406521514739985,1.09381555530865,0.66843235368,1.41743909648,0.027440170465140586,0.16523610263140098,stairs down
-0.9931945800741501,-1.39001464843,-0.59521484375,0.042612235412723534,0.20591059767690423,0.30327941894105,0.07934570312,0.58947753906,0.021581500750509283,0.1465387090387954,0.21528259276999998,0.05432128906,0.36462402343,0.006095155264440472,0.07787605208354022,1.0710176297039,0.62215838564,1.50670195977,0.04785845067999461,0.21821814412783058,stairs down
-1.0194128417932,-1.33715820312,-0.63720703125,0.0385134052254946,0.19575708978059295,0.3048535156204,0.01281738281,0.6748046875,0.032562020292436065,0.17999780607266824,0.21194213866875,0.04016113281,0.40966796875,0.008542417088762747,0.09219384471492081,1.1015705627064,0.64088269609,1.4460619504,0.043034901423531766,0.20692927998814983,stairs down
-0.24694702755641798,-1.39514160156,0.919921875,0.6304379920591396,0.7920236641893724,0.5786746200604477,0.1240234375,1.28015136718,0.11122628943971109,0.33267540458475875,0.09487231809597015,-0.49951171875,0.95715332031,0.08342062245413061,0.2881069150189249,1.069481848872836,0.56042996293,2.06299630609,0.08244666835672333,0.28642012137258777,stairs down
-0.36638671874990003,-1.70837402343,1.099609375,0.7018302074930669,0.8356560634947858,0.607874755856,0.14123535156,1.2353515625,0.0877036333369959,0.2954066945252103,0.1223999023428,-0.41491699218,0.68505859375,0.08459171592685448,0.29011852293023316,1.1432720938065999,0.51168582897,1.97945104404,0.08182565936916213,0.2853358215722595,stairs down
-1.0197448730428,-1.2490234375,-0.81213378906,0.012695244022160181,0.11239113756008247,0.35692871093360007,0.06762695312,0.640625,0.018848409281406818,0.1369458551216494,0.2553124999959,0.11291503906,0.39721679687,0.004676109127051611,0.06821091248045545,1.1188123349132,0.87282438238,1.36325441569,0.01684402643914699,0.12945967058103947,stairs down
-0.9928892509382412,-1.51635742187,-0.69067382812,0.03834563022922172,0.19532777227017578,0.33415245170844216,0.08337402343,0.66528320312,0.020177851627263505,0.14169140901243985,0.20074677586768844,0.00573730468,0.34790039062,0.006240648429201286,0.07879903798171327,1.0756854189944218,0.72762030845,1.67267597031,0.04535366324664881,0.21242823586128567,stairs down
-1.0137322998008,-1.51635742187,-0.69702148437,0.036076241101969476,0.1894620275845786,0.345823974606,0.02209472656,0.62170410156,0.02666471890910785,0.1628846073592048,0.22226989745750003,0.06872558593,0.3837890625,0.007031095354085561,0.08364173526006698,1.1052531563731,0.70900392111,1.67267597031,0.04471352744297772,0.21092643221218824,stairs down
-1.03119934081675,-1.50805664062,-0.65258789062,0.042236882579514134,0.2050017028383339,0.3593176269501,0.048828125,0.72961425781,0.03200007082674253,0.17843786165668096,0.22814514159795002,0.05480957031,0.46813964843,0.0090521222649007,0.09490448700444146,1.1299932014835,0.66801002999,1.63494387603,0.05077330458901962,0.22476529551083843,stairs down
-1.0024597167931,-1.3056640625,-0.75988769531,0.01409157328118053,0.11841079095578505,0.27546997069949997,-0.06079101562,0.490234375,0.02020404907161785,0.14178515023181998,0.25729614257390004,0.02014160156,0.62414550781,0.023994972015469494,0.1545153621986893,1.0893597867794,0.77431147738,1.36687548755,0.01839687424978737,0.13529556488864825,Null
-0.9530090331985,-0.98669433593,-0.9306640625,0.00010661515008946175,0.010299615251989486,0.2925610351531,0.24597167968,0.34240722656,0.0008999112922416752,0.029923431216698177,0.19478149413700002,0.12072753906,0.23413085937,0.0006061955237551964,0.024559408505426598,1.0165049240211999,0.99838513877,1.05051583976,8.080895096189776e-05,0.00896687828662173,Null
-0.6471947138011056,-1.48950195312,0.5205078125,0.31898776836430526,0.56336916382993,0.5179191857693969,0.06420898437,1.53015136718,0.13333367312061786,0.3642302220611646,0.10940199041859298,-0.64477539062,0.603515625,0.07810775079575183,0.2787745496552217,1.0781656673755278,0.52518286018,1.92437248854,0.058223702711382476,0.24068884745812852,Null
-0.8495349121064,-2.08898925781,0.236328125,0.2542559965441548,0.5029758608138507,0.3949694824184,0.14013671875,0.56127929687,0.010395905808088787,0.10170509465630688,-0.011940917969899996,-0.91540527343,0.56652832031,0.1555258438135504,0.3933804959507813,1.099383708595,0.51836309826,2.20589611603,0.08772398307903355,0.2954409639228088,Null
-0.9791873153726369,-1.32556152343,-0.70983886718,0.012916464675052274,0.11336755998418785,0.3558732217779105,0.00537109375,0.65979003906,0.019056270961026956,0.13770063050985965,0.24661421894094526,0.09704589843,0.55078125,0.009646327422949231,0.09797109647354209,1.0864168471512936,0.93993542161,1.34539877297,0.0074194716145419524,0.08592181806991606,Null
-0.9412182617153,-0.96545410156,-0.91906738281,0.00011163333552233815,0.010539220504606896,0.3195349121063,0.27001953125,0.36926269531,0.00043394087996594533,0.02077910430134359,0.2003625488241,0.04125976562,0.23059082031,0.0012124572132391476,0.03473319632819519,1.014778787742,0.99422462723,1.04081035544,0.00011334716972451382,0.010619813269351361,Null
-0.48006286620950006,-1.51611328125,0.78845214843,0.5875889431134679,0.7646247435166484,0.4796606445275499,0.27807617187,1.74108886718,0.0801347408102694,0.2823722137644178,0.15303649902019997,-0.08557128906,0.2412109375,0.00464978573562381,0.06801865043461014,1.0415619627441002,0.56898800669,2.30924630342,0.06861291818642208,0.26128500453621517,Null
-0.7601312255837,-1.49377441406,0.78210449218,0.27103431447727144,0.5193064056074074,0.40310852050390006,0.2734375,0.91418457031,0.01778255282903173,0.13301744270916718,0.19821655273094996,-0.11865234375,0.31701660156,0.006228890788888962,0.07872576665199595,1.0196695659877,0.44402355909,1.75171601935,0.03359825798018147,0.182839456054432,Null
-0.9542359011815577,-0.98669433593,-0.92932128906,0.0003291702624174267,0.018097407010279985,0.3413214755380401,0.32165527343,0.35986328125,7.936424558115458e-05,0.008886249505653478,0.2327561881637688,0.21447753906,0.25305175781,0.00011990546067234674,0.01092258763613129,1.0398738426529148,1.0098966222,1.07675749669,0.0004322960973423184,0.020739425140167658,lift up
-0.9308146766138309,-0.94409179687,-0.91687011718,3.678098395271297e-05,0.0060496275904223205,0.34332913070965176,0.32531738281,0.36584472656,9.631065289916171e-05,0.009789356231236631,0.2189024360577612,0.20056152343,0.23132324218,4.843797998266161e-05,0.006942405563464547,1.0160448397176618,1.00240074257,1.03142307736,4.2854078239112177e-05,0.006529997999215878,lift up
-0.93321166991745,-0.94201660156,-0.92260742187,2.489981189763125e-05,0.004977480571347627,0.34023864745730004,0.32653808593,0.36096191406,4.4570193450533846e-05,0.006659380037457028,0.21442321777025,0.20483398437,0.22399902343,2.1164695447417484e-05,0.004588994657894079,1.01621655800955,1.00611658603,1.02421778861,1.785243154076332e-05,0.004214637515025403,lift up
-0.9360333251916501,-0.94689941406,-0.91870117187,3.2830399706519946e-05,0.005715439415127007,0.32694091796405006,0.30554199218,0.33801269531,5.8551379782444326e-05,0.007632733644215033,0.2190325927694,0.20434570312,0.22961425781,3.1528397638902315e-05,0.005600960243628569,1.0154359376048,0.9996713903,1.02687802655,3.63604563027506e-05,0.006014869410156537,lift up
0.07723876952994999,-1.02355957031,0.79895019531,0.38346807309887687,0.6176979300057451,0.7323236083938001,0.31567382812,1.03015136718,0.04968238905681302,0.22233752969647064,-0.05047241210855,-0.40502929687,0.55798339843,0.07054093763149483,0.2649306191125091,1.0113768857253,0.55863041523,1.49710393023,0.02321698203594322,0.15198979283413577,lift up
0.36778015136395,0.26977539062,0.47204589843,0.0014733165049494765,0.03828772547990712,0.9519122314419,0.83117675781,1.02282714843,0.0009475200735540141,0.03070476303745469,0.03877502441165,-0.32531738281,0.11413574218,0.0075832557280992785,0.08686391339019203,1.0259377570959,0.96678201683,1.07754364787,0.00030997892901514235,0.017562147772128178,lift up
0.36786594102994963,0.34387207031,0.39575195312,0.00023968826980991952,0.015442920907086618,0.9554878886578391,0.9296875,0.98718261718,0.00015197872424694523,0.012296951332131057,-0.022529640389145743,-0.18383789062,0.09338378906,0.008949309207852583,0.09436279883936279,1.0285761478857285,1.00749657728,1.0514466827,0.0001157670070884476,0.010732439766159152,lift up
0.3532714843710448,0.32861328125,0.38159179687,0.0002952261268850067,0.017139350634842797,0.940435760646418,0.90100097656,0.98388671875,0.00047968771332446315,0.021847224246755538,0.06587302743741293,0.00256347656,0.10900878906,0.001205620076996621,0.03463555928754171,1.007499115376965,0.96340230071,1.04172516738,0.0004780084968752874,0.021808951032764957,lift up
0.32456665038704996,0.29553222656,0.34130859375,9.681258219355398e-05,0.00981470933255724,0.9699017333942002,0.95141601562,0.9912109375,6.175933434469913e-05,0.007839039333552015,-0.08334655761505,-0.17199707031,0.02648925781,0.003467809680127942,0.058740706769048176,1.0278865888011,1.01103258614,1.04552037576,5.722804309459468e-05,0.0075459858785397755,lift up
-0.20039916992244997,-1.13049316406,0.32800292968,0.33817375621020945,0.5800714502793242,0.76134521484005,0.28857421875,1.06811523437,0.0721878801216693,0.2680054863637328,0.06535095214915,-0.16491699218,0.39868164062,0.022184433333709085,0.1485715691747265,1.0222584799768,0.70308890779,1.34011489415,0.009495527482330424,0.09720107944317682,lift up
-0.9327716064419499,-0.96594238281,-0.88806152343,0.0001577437639156168,0.012528170061746396,0.34050476073854996,0.3046875,0.39562988281,0.0002437950195122814,0.015574852950019143,0.20565002441035002,0.16455078125,0.28259277343,0.0006827124365176397,0.026063362682797696,1.01453710259025,0.98841794391,1.04428227181,9.205210176019503e-05,0.009570362649941435,Null
-0.9550079345661999,-1.11694335937,-0.81298828125,0.005201995288541633,0.07194432091623998,0.34627136230114997,0.22717285156,0.47778320312,0.0058732776483332765,0.07644547900361152,0.2105798339804,0.09497070312,0.31494140625,0.0023499037618116554,0.04835446456122327,1.0399336881173502,0.8497840877,1.23558167135,0.008224977937946649,0.0904646508215055,Null
-0.8390112304651501,-1.08862304687,-0.39453125,0.04437311341986684,0.2101219832686897,0.44386413573835,0.24938964843,0.72998046875,0.01833500255276408,0.135067862720931,0.28142150878475003,0.05505371093,0.65466308593,0.02716599518588118,0.16440853143907033,1.0328415212530502,0.91961795297,1.19484788928,0.0028305668627477774,0.05306989757323862,Null
-0.45767333983950004,-0.60522460937,-0.38391113281,0.002556133995142084,0.05043166986295788,0.6304003906212501,0.52844238281,0.89990234375,0.0044002221817484215,0.06616812730340552,0.65261108398045,0.31823730468,0.71655273437,0.003393365269063587,0.058106784825167096,1.02105810381775,0.99072464914,1.1302194646,0.0005116451264658364,0.02256295416902466,Null
-0.51802001952855,-1.33557128906,0.13232421875,0.23409706047873247,0.48262467319474955,0.59127197265315,0.26806640625,1.25,0.07217775682093203,0.26798669376823053,-0.23642333984294997,-0.90014648437,0.37866210937,0.14759114656463718,0.3832142883972543,1.03890990405435,0.51125522906,1.72318149525,0.04633781628366824,0.21472337367471175,Null
-0.84072387694825,-1.18383789062,-0.01965332031,0.08898021791328403,0.2975488477943035,0.49586547851124996,0.16931152343,1.61108398437,0.08299810447722711,0.28737277872972067,0.22001037597345,-0.07336425781,0.58813476562,0.015481050879494865,0.12411142423281343,1.0650569740771498,0.55193259922,1.97823256023,0.053547230112964986,0.2308235125856986,Null
-0.7778295898405,-1.09423828125,0.85791015625,0.23805615260162566,0.4866886806148439,0.36099914550405005,-0.13403320312,1.14953613281,0.04490541141750803,0.21137853334816306,0.17618713378675,-0.34692382812,0.39086914062,0.024955619809182435,0.1575780495822198,1.0233186031897,0.45486189653,1.32642808105,0.02570632590404218,0.1599305920533091,Null
0.6279797363260999,-0.20935058593,1.00183105468,0.2212730611943318,0.46921924074824567,0.2271093750012,-0.36242675781,1.36804199218,0.263622906180598,0.5121569990244155,-0.12827819824020004,-0.37634277343,0.54553222656,0.09833206234623278,0.3127945044825782,1.01096555638125,0.48189310292,1.40784951477,0.020756831132933674,0.143711680030779,Null
-0.2893298339813,-0.99353027343,-0.12512207031,0.08139831103097012,0.28458973888005035,0.82738464355015,0.43041992187,0.91418457031,0.01902162999931513,0.13757369606621228,0.4278857421834,0.16748046875,0.50280761718,0.0070386942666699915,0.08368692129201935,1.02735948226705,0.8288209438,1.18774092263,0.002831302410373592,0.05307679246451997,Null
-0.9181939697232999,-0.96240234375,-0.8779296875,0.00048767578326291413,0.022028104874151102,0.3614135742147,0.31518554687,0.43041992187,0.0003423848044111297,0.01845732592736754,0.1749346923789,0.12219238281,0.20532226562,0.00024151878101965214,0.015501973652233894,1.0023989077055502,0.96294504286,1.06748737126,0.0005675734306634676,0.02376416553363804,lift down
-0.9346380615194501,-0.98120117187,-0.87683105468,0.000866625581187251,0.029364816588586327,0.37365112304340004,0.3486328125,0.38598632812,7.929810178311248e-05,0.008882657894695537,0.18302124023079996,0.16577148437,0.19775390625,6.851904207040883e-05,0.008256902982357053,1.02310825604075,0.95871674946,1.07006399374,0.0009237277410063319,0.030316812205462833,lift down
-0.9421997070276501,-0.97741699218,-0.92248535156,0.0001404966840648034,0.011823459757806907,0.3503887939416,0.31018066406,0.37329101562,0.00018936016413472406,0.013726374733120557,0.19066772460505,0.17443847656,0.20886230468,4.0001568179727516e-05,0.006308847782188827,1.0232513567045998,0.9984886401,1.06479893238,0.00019240821816581875,0.013836407665105478,lift down
-0.93546142577685,-0.96740722656,-0.91735839843,0.00011672251788852893,0.010776776201586739,0.3315893554654001,0.2705078125,0.36950683593,0.0008498207947407289,0.029078715424980955,0.21696289062014998,0.18444824218,0.26110839843,0.0004087544326127024,0.020167068712374607,1.0165556718093,0.99467665155,1.03301476706,9.594276434565285e-05,0.009770519460290972,lift down
-0.9527863928976381,-1.09606933593,-0.83227539062,0.003233931945440879,0.056724606928053554,0.3409055776890954,0.20129394531,0.55224609375,0.006328973197377841,0.07935470566994676,0.18923658821105524,0.09729003906,0.27612304687,0.0012454347495969526,0.03520193579220574,1.0319056770990953,0.86918897172,1.22672898079,0.005782769047570003,0.0758532128958783,Null
-0.9772748804760697,-1.130859375,-0.80102539062,0.005272601960886325,0.07243183078132605,0.32598603660990055,0.05737304687,0.52685546875,0.008829111020940616,0.09372931822788054,0.1749874893068657,0.04138183593,0.38513183593,0.004239239711205858,0.0649472783600205,1.0497497295763183,0.85650664124,1.26049155086,0.006780118532793609,0.08213639022865953,Null
-0.93412963866715,-1.16369628906,-0.42468261718,0.02279545925231203,0.15060372490762128,0.43431823730130004,0.16455078125,1.07531738281,0.02943135072791796,0.17112625156380412,0.20859680175534998,-0.07678222656,0.49523925781,0.02001721422177567,0.14112805585944557,1.0731698917256,0.61709172676,1.6021944846,0.025057614440679936,0.15789973517544775,Null
-0.9708013915979001,-1.20178222656,-0.80395507812,0.007148379910694959,0.08433645718870034,0.3182995605432,0.09826660156,0.48718261718,0.009681307788604437,0.09814734458792766,0.22484924316045,0.04663085937,0.74267578125,0.018254528000280507,0.13477112213036999,1.0580337229093002,0.85234149684,1.31806952221,0.009849819224629153,0.09899782890804226,Null
-0.48171630859015,-1.01171875,-0.17785644531,0.11701378917621541,0.3412165298316222,0.6444738769500501,0.23681640625,0.85400390625,0.03731193942496289,0.19267947406986055,0.48981201171495004,0.2021484375,0.67065429687,0.023794157846405227,0.1538674333872285,1.0302373009011,0.85736273211,1.18703297792,0.0034148177192956704,0.05829016753020352,Null
-0.19709960937159998,-0.22619628906,-0.16638183593,0.00023834894651584982,0.015399909148539498,0.7309326171832001,0.64880371093,0.77526855468,0.0006144681767438854,0.02472641979462789,0.6739331054650001,0.6142578125,0.7607421875,0.0007864296795727632,0.027973157332966535,1.014304969159,0.99195446071,1.03608375598,0.0001136257588862558,0.010632856158710345,Null
-0.23385986327695002,-0.27453613281,-0.18139648437,0.00036780186633040483,0.019130155697190572,0.6345776367153,0.56726074218,0.7099609375,0.0010785093319974383,0.03275846127853766,0.7527758789025001,0.7041015625,0.80615234375,0.0005363650118314074,0.02310158407495578,1.01271870249495,0.98031969951,1.08572773313,0.00042646128255653177,0.020599246980017232,Null
-0.19613708495889998,-0.58178710937,0.78125,0.1461113861283738,0.3812883806225046,0.8125347900358,0.15222167968,1.74060058593,0.10334605343612967,0.3206701158027499,0.45106262206685005,0.08349609375,0.91430664062,0.03890423849575101,0.19674785209316073,1.05059411253245,0.37425613136,1.96143809232,0.085740613590944,0.29208202704546765,lift up
-0.38247253417585,-0.42590332031,-0.3427734375,0.0007273249107346017,0.026901455094119512,0.5828955078093,0.50732421875,0.64562988281,0.001095663416906761,0.0330179511754171,0.7046997070273,0.64599609375,0.74230957031,0.0005527095279377767,0.023450927066921846,0.99207604410445,0.94030198352,1.04339442335,0.0006986939246467007,0.02636665422505228,lift up
-0.38296142577720005,-0.40124511718,-0.36804199218,6.712099416591098e-05,0.008172232815765922,0.6024560546836,0.57836914062,0.62060546875,8.200846726070488e-05,0.009033184650188512,0.7174096679652,0.67687988281,0.736328125,0.00018691446913162826,0.013637444657485145,1.0122137136488,0.99626638375,1.02483046717,4.7381671752142456e-05,0.006866204438653261,lift up
-0.38115234374639995,-0.39831542968,-0.365234375,6.474142698229674e-05,0.008026065028853509,0.5870263671836,0.56604003906,0.61352539062,0.0001183944970434909,0.010853687141164215,0.7280981445279999,0.70153808593,0.75891113281,0.00017592301321129512,0.013230396749351043,1.0101084677068,0.99489319201,1.02202736917,4.2331747233225774e-05,0.006489999113794981,lift up
-0.9509374999968,-1.126953125,-0.77966308593,0.006125297881898838,0.07806837639204074,0.36710937499639995,0.20031738281,0.66247558593,0.010455722042017482,0.1019972716880574,0.2619238281218,0.10095214843,0.4033203125,0.00577038043713674,0.07577287466469157,1.058722397679,0.82960006411,1.2545631328,0.009047278251531827,0.09487909074329375,Null
-0.47088623046820005,-1.11730957031,0.21240234375,0.2972778616503884,0.5438671458565377,0.5577709960902001,0.22009277343,0.86669921875,0.042167046447514976,0.20483215376321512,0.3962939453084,0.1025390625,0.71508789062,0.041941612305892904,0.20428388150895174,1.029300871234,0.77316503831,1.36933454046,0.00996032310762455,0.09955160215730548,Null
-0.2011645507824,-1.12255859375,0.17736816406,0.2509664335469255,0.4997115181574174,0.5953637695274,0.2685546875,0.69750976562,0.01384197305185872,0.11735741641072125,0.622495117184,0.12768554687,0.80041503906,0.04013931106684211,0.19984647735576402,1.0378678836242,0.85352277425,1.39880356179,0.008722211754767884,0.09315900759451039,Null
-0.9630908203088001,-1.14660644531,-0.83068847656,0.0036103496360020975,0.05993578136490828,0.33972412108940003,0.11096191406,0.91296386718,0.016876991963209114,0.12958629172637462,0.23468505859039998,0.03637695312,0.39929199218,0.009252712480998345,0.09595024188918626,1.0585209885158,0.88612684584,1.42972774136,0.007194124645186484,0.08460587463031484,Null
-0.8784863281212,-1.18127441406,-0.45129394531,0.0393219785835717,0.19780133642282055,0.3924560546832,0.09484863281,0.82067871093,0.039957661125427944,0.1993937632419851,0.3129174804648,0.01770019531,0.82543945312,0.02890320764121347,0.16958387778031084,1.053728671294,0.71571156715,1.38915655742,0.021080556324445172,0.14482801366732523,Null
-0.5121801757774,-0.810546875,-0.18640136718,0.019841971283504917,0.1405089371786983,0.5690600585914001,-0.33850097656,0.99035644531,0.14071805022300254,0.3741850611286981,0.527504882809,0.26135253906,0.84692382812,0.027192140009145674,0.16448762661397953,1.0215168980179998,0.73407780944,1.30782483412,0.007774785832065793,0.08795403289733487,Null
-0.6345092773398,-0.6669921875,-0.61682128906,0.00012327813023840334,0.011075276050158357,-0.05716552734,-0.10095214843,-0.02685546875,0.0003441909149993099,0.018505943921462462,0.7828222656214,0.755859375,0.81420898437,0.00014522185876060428,0.012020638479997695,1.0095797754906,0.9995407376,1.02624247452,3.9120069376406765e-05,0.006238947750183899,Null
-0.5792724609344,-0.61254882812,-0.54174804687,0.0003921176919975586,0.019752394881066216,-0.0100463867158,-0.02600097656,0.0205078125,8.046821731172893e-05,0.008947953745140298,0.795148925778,0.77001953125,0.82702636718,0.0003056556195959798,0.01743924715972567,0.9839519757678,0.94506720047,1.01445683275,0.0005348620631258147,0.023069194888642855,lift down
-0.5645361328088,-0.60473632812,-0.48205566406,0.0014368166515815444,0.037810482254576394,-0.099294433591,-0.38977050781,0.02258300781,0.015497388006738718,0.12417689425454731,0.8142041015584001,0.77954101562,0.83679199218,0.00014556410325829242,0.012034794669706708,1.0042058358882,0.98782911248,1.02062173599,5.402801090969616e-05,0.007331975917523712,lift down
-0.5420410156208,-0.60864257812,-0.46215820312,0.003090200112708521,0.05545042030629685,-0.1151977539052,-0.38659667968,0.04333496093,0.024773397187231212,0.15700168853007618,0.8258569335904,0.78356933593,0.87902832031,0.0004572874876671491,0.021330753625430427,1.0085759564162,0.99418728462,1.02896067794,7.284460554349685e-05,0.008513541126686319,lift down
-0.5956567382774,-0.62268066406,-0.5673828125,0.00020843048789747064,0.014400983836460038,0.0392382812466,0.0244140625,0.05639648437,3.4060406324394435e-05,0.005821520788657587,0.8393383789026001,0.81420898437,0.8720703125,0.00026662865475931944,0.01628789463023146,1.0300184392858,0.99882559061,1.0634920944,0.0004061261830206476,0.020102128049177888,lift down
-0.35971740722469997,-1.16369628906,0.64013671875,0.26422333233253525,0.5127399103550186,0.30569702148175,-0.166015625,1.02429199218,0.14250427734660304,0.37655246109920726,0.4716033935529,-0.42199707031,0.837890625,0.22932629720304015,0.47768155262373796,1.02556920860535,0.68585465523,1.64489695363,0.026470832689253227,0.16229133841892784,lift down
-0.333974609374,-0.751953125,0.68981933593,0.17003713231340728,0.4113234088303755,0.7710571289027999,0.64953613281,1.21276855468,0.022099447160468168,0.14828671526696457,0.35039062499720003,-0.39172363281,0.5263671875,0.04530561509363624,0.21231836241401275,1.0290146102092002,0.82764174198,1.26802289122,0.0062569260266491285,0.07890273377086426,lift down
-0.9555322265583999,-1.16418457031,-0.62426757812,0.012358309060670801,0.1108896636994064,0.37885009765219996,0.22021484375,0.60900878906,0.00941489462285485,0.09678749996637259,0.20584472655879998,0.0517578125,0.37707519531,0.005203522054464788,0.07195487783460176,1.0544969542544,0.727264209,1.25532025383,0.013888743230552603,0.11755551673315821,Null
-0.9524633789018,-1.12829589843,-0.77697753906,0.002279913659023792,0.04762892073865072,0.3250073242158,0.22302246093,0.47521972656,0.002627646629600387,0.05113226375247223,0.18054931640179997,0.05578613281,0.26452636718,0.0018993343000844262,0.04347226274975808,1.02417073977,0.81027477247,1.24315986123,0.003277849761712841,0.057109198146220515,Null
-0.997089843746,-1.255859375,-0.75891113281,0.01314817802400951,0.11437848195307307,0.3395483398393999,0.16662597656,0.56860351562,0.010011106933099687,0.09980506699779419,0.24870849608999998,-0.12731933593,0.54858398437,0.023048909518929264,0.15143865085021926,1.0954877162674002,0.81520900823,1.33390911219,0.017307502140895485,0.13122867304896063,Null
-0.7036437988259499,-1.26599121093,1.0087890625,0.47575765155185407,0.6880253362297749,0.41261535644165,0.06945800781,1.19360351562,0.07210481052969506,0.26785123945400474,0.19616210937224998,-0.44604492187,0.80749511718,0.07279787079053486,0.2691354332609926,1.1212980060148499,0.61982945051,1.81437376195,0.06441549152275264,0.2531667712499784,stairs up
-0.2082836914048,-1.150390625,1.06506347656,0.8179498897730195,0.9021419734854124,0.29933105468480004,-0.33386230468,0.9873046875,0.07680200190914521,0.2764380435099328,0.0050830078120000085,-0.52551269531,0.43078613281,0.09839106130591173,0.3128883283207959,1.0470156879374,0.55838282144,1.3739560998,0.02506773950860918,0.1579316333451476,stairs up
-1.0237670898394,-1.25,-0.79626464843,0.020269540236947495,0.14201476168258975,0.3441601562462,0.11511230468,0.5400390625,0.013796829554249889,0.11716588840818236,0.22842529296519998,0.11474609375,0.39721679687,0.0043821675154733595,0.06603223968559595,1.11163165086,0.87885302064,1.36917264958,0.021361557065681137,0.14579008635827312,stairs up
-0.9854614257776001,-1.22045898437,-0.79528808593,0.006858964212002162,0.08261155724801555,0.2887841796836,0.14221191406,0.51098632812,0.008531623174180365,0.09213557976324598,0.20323486327779997,0.00866699218,0.45458984375,0.011892869394679569,0.10878145544028252,1.056073454585,0.86381319322,1.29521979562,0.007729479196504209,0.08769738764935754,Null
-0.9971960449179,-1.06262207031,-0.94519042968,0.00047818618653251704,0.02181273150249309,0.15374755858955,0.08081054687,0.31518554687,0.002867760819988109,0.053417431760504626,0.07994995116834999,0.02551269531,0.18115234375,0.0008756017789793715,0.0295164999633167,1.01408916326125,0.98905687466,1.07568391236,0.000255144182942347,0.015933250202881874,Null
-0.7731616210912,-1.20129394531,0.45422363281,0.20068375238084737,0.44685605469652434,0.3857568359342,0.07958984375,0.80712890625,0.03029943868737778,0.1736316258460448,0.22195556640280004,0.015625,0.74304199218,0.033834601652669063,0.18348141225858744,1.0153112500252,0.50387930982,1.38031683141,0.028631428726639097,0.16878469001365587,Null
-0.975710449215,-1.38293457031,-0.53637695312,0.021309318548508323,0.14561171640965498,0.37840332030940005,0.19482421875,0.80493164062,0.015504224599863985,0.12420428123404066,0.1547558593722,-0.78515625,0.35290527343,0.03809252549629167,0.19468452138988918,1.0802504076152,0.70493571991,1.63954876158,0.026874296168576783,0.16352346830878403,Null
-0.7552661132777999,-1.63024902343,0.10632324218,0.14455635224667518,0.3792539656818921,0.5702563476525999,0.04541015625,1.43139648437,0.11237024434825889,0.3343776205527481,0.2519482421848,-0.42260742187,1.02172851562,0.11301005183633682,0.33532819979410494,1.094977420577,0.18642135143,2.17421085316,0.12885279825172719,0.35806219328556393,stairs down
-0.46045593261635004,-1.47900390625,0.6494140625,0.38376519985033014,0.6179371924808205,0.6426770019496,0.13513183593,1.14575195312,0.06618677377583466,0.2566239269962088,0.06822082519469999,-0.49206542968,0.64465332031,0.07112594775041192,0.266026912194349,1.04077586315415,0.5334484109,1.75944980662,0.06799135557771836,0.2600988250643008,stairs down
0.61137207030925,0.15502929687,1.0634765625,0.06513765664566654,0.2545819482257888,0.6699389648400499,0.34289550781,0.94152832031,0.024489479753730434,0.15609943098859067,0.20963500976404995,-0.20568847656,0.73181152343,0.08433046249553464,0.2896701748248462,1.0057616963357001,0.70258188464,1.3421725673,0.028213149116103023,0.16754725712622845,stairs down
0.47364257812090005,0.24768066406,0.69885253906,0.016149321746677794,0.12676188361626853,0.88062255859005,0.67395019531,1.28442382812,0.021685309392147672,0.14689071735540996,0.24652282714544999,-0.03625488281,0.52014160156,0.011425912826143287,0.10662449653814349,1.0441952485414498,0.77294940189,1.40178423799,0.019374282392963994,0.1388431164336179,stairs down
0.3966333007774,0.013671875,0.66186523437,0.022701494232509153,0.15029300303522652,0.8860571289026001,0.76770019531,1.09069824218,0.007519631583502591,0.08649874811571019,-0.0752441406258,-0.48681640625,0.28857421875,0.06957431054997298,0.2631091769536424,1.0209981792624,0.88418983098,1.17433430426,0.004960873156485626,0.07025716184634274,stairs down
-0.15825195312580004,-1.45202636718,0.59301757812,0.47677834563638183,0.6887629881956491,0.7677471923796501,0.33471679687,1.04919433593,0.043083961087414475,0.2070471957839019,0.029038696289999995,-0.33203125,0.650390625,0.04563262926416105,0.21308323753369302,1.0650054548116001,0.78877039497,1.80620600653,0.044018335990313594,0.2092803008177359,stairs down
0.44565979003569994,-0.31481933593,0.73278808593,0.0601231837827675,0.2445865242891637,0.7284600830039,0.38830566406,1.21130371093,0.053929923436537526,0.23164687310506663,-0.33183105468459995,-0.70544433593,0.36535644531,0.0982289142088233,0.3126304042120331,1.0173528329516501,0.75193033555,1.34729743271,0.015670768289167473,0.12486958976356748,stairs down
-0.80137939452745,-1.44152832031,0.48498535156,0.18567350117321826,0.429819885146502,0.5954986572229001,0.01281738281,1.67333984375,0.15324653017752363,0.3904872565483233,0.10672912597494999,-0.43713378906,0.42102050781,0.03713957417759882,0.1922339103974916,1.15053023026885,0.66380372334,1.68993232854,0.05897305306307038,0.24223581031250319,stairs down
-0.9989331054647,-1.41662597656,-0.65161132812,0.05138349401896192,0.2261118673331126,0.33224060058275,-0.05725097656,0.66040039062,0.0394833298146845,0.19820674349176687,0.14351440429405,-0.05432128906,0.42016601562,0.0179076486955935,0.13348449517496605,1.0881278670998,0.72216266581,1.50702707558,0.05332250765586772,0.2303386531122998,stairs down
-1.0149523925741,-1.44104003906,-0.74841308593,0.03768356810711245,0.1936366449476361,0.35124206542525,0.07580566406,0.78076171875,0.027981272659789024,0.16685732317309324,0.13839782714625,-0.12731933593,0.40637207031,0.016277223300356542,0.12726286647665438,1.10041066702275,0.76053244327,1.54927457746,0.04349952153259653,0.20804332223105249,stairs down
-0.96747497558245,-1.33850097656,-0.71862792968,0.027938344624988697,0.1667292802775318,0.33701416015280006,0.14416503906,0.52575683593,0.008423294667727317,0.0915487749475037,0.1458026123015,-0.02136230468,0.59899902343,0.010981029493316334,0.10452810313905898,1.0426985204544499,0.75214471729,1.42108110125,0.030884949909422452,0.1753012411817878,stairs down
-0.8026519775354001,-1.15417480468,-0.44873046875,0.04269919457386702,0.20612059237494368,0.53234680175445,0.13757324218,0.93688964843,0.04795787793867452,0.21844470364140475,0.22209167480089997,0.00268554687,0.59899902343,0.012846086258652082,0.11305686988130718,1.0343073871949,0.76874531147,1.2472685654,0.010212962981682427,0.10080624071343011,stairs down
-0.07109069824155,-0.86071777343,0.86071777343,0.3244268261319948,0.5681590375954032,0.8714068603474,0.57971191406,1.34704589843,0.023481041578905567,0.15285168095579138,0.15574340820075,-0.34753417968,0.4560546875,0.03461347329312163,0.18558126502062655,1.06940066114845,0.77219378533,1.57255651022,0.025779671431110023,0.16015858726260815,stairs down
-0.75145935058275,-1.42614746093,0.50048828125,0.2945615433995708,0.5413767040449496,0.49268615722325004,0.05883789062,1.10546875,0.07526580649090951,0.2736594187278321,0.23871398925424997,0.06604003906,0.47937011718,0.012451475259329825,0.11130686359355013,1.08843448221725,0.62031994005,1.54781764622,0.060394957495460234,0.24513870095923845,stairs down
-0.9278887939420001,-1.32543945312,-0.19030761718,0.0864650522459379,0.2933133597105802,0.4170825195276,0.08068847656,1.05139160156,0.04684496154123723,0.21589519849577724,0.2427331542939,-0.03369140625,0.49572753906,0.011991612562183543,0.10923211294931828,1.0935589102727499,0.70330306023,1.43370147217,0.04277271778204093,0.20629797428266408,stairs down
-0.7722705078100998,-1.38391113281,0.2421875,0.2090823202014748,0.4561106319748175,0.4988470458950501,0.1162109375,1.12561035156,0.0632682419748403,0.25090217369517964,0.226281127926,-0.01672363281,0.53564453125,0.010638464664841652,0.10288475271641297,1.0615250346874001,0.47495800133,1.54427082797,0.05144918967456029,0.22625636726109496,stairs down
-0.43626159667904996,-1.42199707031,0.43725585937,0.44851326079402215,0.6680349500513069,0.45901123046505,0.09387207031,0.79309082031,0.032321082760945474,0.17933063694511528,0.42091857909775,0.01403808593,0.95666503906,0.08276805203449168,0.28697423538415295,1.046483785346,0.66880624258,1.49205902305,0.04406433294374983,0.2093896159770849,stairs down
0.2512384033181,-0.63745117187,0.43542480468,0.05717472505783549,0.23851383907971946,0.6017230224571499,0.37097167968,0.95581054687,0.013260417484313117,0.1148656406280466,0.7309997558555,0.40686035156,0.90673828125,0.010931519370318356,0.10429219421158405,1.01650656889625,0.7961571115,1.26143683836,0.007262510666387655,0.08500704743170248,stairs down
-0.7127606201143002,-1.19274902343,0.32824707031,0.185046717009669,0.4290937932720778,0.55111755370705,0.134765625,1.06127929687,0.05535310394454788,0.2346834856244153,0.25362548827729997,0.10437011718,0.42565917968,0.008700336193832694,0.09304211150260688,1.0533404174847,0.80133143807,1.32751532754,0.01448519512814283,0.12005319301252305,stairs down
0.17585632323994996,-1.11547851562,0.61474609375,0.07395746774875166,0.27127049306920187,0.8826385498011,0.6357421875,1.12854003906,0.01552097693129946,0.1242713645480847,-0.29667846679515003,-0.78503417968,0.38806152343,0.07793394446698731,0.2784677265764426,1.0257647954418,0.80836377582,1.36394664844,0.012438472675546864,0.11124873173285676,stairs down
-1.0007606391290955,-1.45007324218,-0.63732910156,0.0517620072040988,0.2269402930621477,0.38512202123492445,0.02722167968,0.78564453125,0.03547337521171575,0.1878699471571297,0.20096453948989948,0.06823730468,0.38806152343,0.006722655554370098,0.08178553274054447,1.104221872142814,0.66091412712,1.56240055721,0.06473280880856759,0.2537863635265735,stairs down
-0.9727758789028,-1.35339355468,-0.7197265625,0.02992709946352718,0.17256147880164202,0.33888916015299997,0.17810058593,0.64233398437,0.009353715384984272,0.09647251840840142,0.1703588867152,-0.00512695312,0.35070800781,0.007324292486050092,0.08536785708696126,1.0493290299381999,0.75220493212,1.51017335762,0.03561969090918833,0.1882593754760766,stairs down
-0.9716578241561195,-1.30749511718,-0.65173339843,0.032804145034568105,0.1806680390464888,0.33778009366840794,0.12060546875,0.56237792968,0.009941454768407463,0.09945850790372479,0.13755198615940298,-0.08850097656,0.32897949218,0.008204145349777182,0.09035114114523377,1.0445511752382586,0.71312035817,1.42810649692,0.036927693831483,0.19168717735329777,stairs down
-0.9666973876917,-1.33020019531,-0.70373535156,0.02228054120877897,0.14889304383595317,0.38742492675359996,0.17529296875,0.60534667968,0.011160077143816444,0.10537683216958726,0.16016357421555,-0.02709960937,0.37182617187,0.009875480199950824,0.09912670073673929,1.0613297926957,0.76337032754,1.43353145578,0.027068214011684733,0.1641123790017874,stairs down
-0.6076104736293,-1.05249023437,-0.22021484375,0.058856040658221476,0.24199537279652758,0.6943450927691001,0.25317382812,1.02233886718,0.045827622230332425,0.21353801562995936,0.32714538573885,0.1318359375,0.57922363281,0.013268223425382666,0.11489944433397296,1.0352409168256,0.89774264126,1.17859936733,0.003988009992009886,0.06299261815522385,Null
-0.9543316650358,-1.06311035156,-0.87609863281,0.0009101228165462971,0.0300927267369304,0.34351379394195,0.26916503906,0.54809570312,0.004411420342474372,0.06625226970272037,0.18834289550389996,0.07250976562,0.27880859375,0.0028434610843135716,0.053190636195593714,1.0347613517582999,0.9293241512,1.1404222478,0.001624948677230086,0.04020974923875969,Null
-0.94684509276975,-1.11083984375,-0.73962402343,0.006559112667711353,0.08078562436704191,0.36420837401979994,0.21936035156,0.62365722656,0.008836390249949921,0.09376677609206883,0.1784844970668,-0.02722167968,0.43395996093,0.009274441452455175,0.09606284008498239,1.0388067547011,0.8262518986,1.17831665878,0.00647960415952528,0.08029449631654498,Null
-0.8115142822231999,-1.26940917968,0.46691894531,0.16856962621014923,0.4095445984005875,0.48325317382435,0.11108398437,1.00402832031,0.04640998618535053,0.2148905215555674,0.30429260253560003,0.1171875,0.6826171875,0.017074023206405022,0.13034052742862826,1.07982668516035,0.25866779869,1.43573749859,0.0497997443840353,0.22259996779450603,Null
-0.9197491455038,-1.17565917968,-0.75207519531,0.012547293092439996,0.1117343126661537,0.28784118652005003,-0.10034179687,0.54553222656,0.015148381266812963,0.1227706779344274,0.32180664062119996,0.13146972656,0.69970703125,0.02691073606988332,0.16363429466201118,1.03906264980135,0.85006236135,1.23022447008,0.007068081836439969,0.08386144183865293,Null
-0.38576110839764993,-0.92626953125,0.71264648437,0.2872887062175681,0.5346515338858387,0.4586157226523,-0.04455566406,1.15637207031,0.1322040150451572,0.3626885647079756,0.47117675781049995,-0.44458007812,0.94702148437,0.13464440660672514,0.36602074336530643,1.0503755488439,0.56696032028,1.33713032636,0.029372059838389943,0.17095379357942894,Null
0.0339373779267,-0.13439941406,0.37048339843,0.0037664941022354926,0.06121814789524684,0.8693151855428001,0.61328125,1.11511230468,0.004873901681905084,0.06963858250636323,-0.5320410156204,-0.69641113281,-0.43188476562,0.00379564848380002,0.061454619365683326,1.0237417559715,0.78807123636,1.26505623505,0.004276342580210267,0.06523006107086836,Null
0.08320983886355,0.07434082031,0.09326171875,1.787519297315217e-05,0.004217323441270116,0.91670837401935,0.888671875,0.94348144531,0.00031817168111224735,0.017792718249516743,-0.4977209472616,-0.52490234375,-0.46997070312,0.0002527894551505238,0.01585955572753446,1.0464613529971,1.01423629305,1.08229293826,0.0005113471920690535,0.022556383932463737,lift up
0.08665649413740001,0.07922363281,0.09252929687,8.865335774902253e-06,0.002970018366277849,0.9008557128865999,0.88720703125,0.91430664062,3.1240380291697654e-05,0.005575318680599268,-0.47903930663680006,-0.49182128906,-0.46728515625,3.462005350913347e-05,0.005869152685148666,1.02400174030655,1.0134630521,1.03225073519,2.392835251968853e-05,0.004879417050948821,lift up
0.08324279784755,0.0654296875,0.09460449218,3.9857676495772664e-05,0.0062974906203418675,0.9031530761684,0.88854980468,0.91552734375,4.531245585025926e-05,0.006714603009188851,-0.47531860351165006,-0.49633789062,-0.46008300781,7.281986163729516e-05,0.008512095061094458,1.0240486622774,1.01257145417,1.03167257176,2.4275941838258e-05,0.00491472910027264,lift up
0.08491577147985,0.06823730468,0.09606933593,4.7527262615414143e-05,0.006876745327721324,0.9036657714810999,0.89001464843,0.9130859375,3.346502931185533e-05,0.005770416290467791,-0.47230407714454997,-0.48205566406,-0.46069335937,3.6634269295031534e-05,0.006037474467735361,1.02321430479325,1.01239004656,1.03536605867,2.491123891345354e-05,0.004978622572447752,lift up
-0.3362841796881,-1.15246582031,0.14135742187,0.21822401647844836,0.46597521006600356,0.7225671386686,0.36865234375,0.92358398437,0.03543880442702094,0.18778075089019597,-0.09656738281230001,-0.521484375,0.4658203125,0.1618711564020958,0.40132505605816005,1.0235253251194,0.73958528993,1.36189810862,0.010419894550048887,0.10182237022039235,lift up
-0.8561804199179001,-1.01123046875,-0.50659179687,0.023430727251572917,0.1526878306064863,0.43710937499659996,0.30969238281,0.71752929687,0.014362860115351674,0.1195451622391091,0.21381103515365002,-0.02453613281,0.53466796875,0.023043747199601474,0.15142169086231821,1.01425904733735,0.8951846073,1.1770966228,0.0016446318628564175,0.04045254878919418,lift up
-0.9338360595664501,-0.94714355468,-0.88732910156,9.91270885697839e-05,0.00993133692545646,0.3699157714807,0.359375,0.38732910156,4.1565665940492406e-05,0.006431005956364055,0.1411108398399,0.12634277343,0.1630859375,5.791504179969316e-05,0.007591143957974627,1.0143428610340999,0.96587001414,1.0264277345,0.00010644048663405283,0.010291175064145132,lift up
-0.51329956054335,-0.9306640625,-0.00537109375,0.16862546420413627,0.40961242276463683,0.64667480468325,0.33203125,0.97082519531,0.07523124745740518,0.27359658481077237,0.2635284423796,0.12634277343,0.40979003906,0.013743007368394804,0.11693712982433266,1.00224309079525,0.88563608461,1.18546047241,0.002992624893462175,0.054567955514155594,lift up
-0.5987890624969,-1.14514160156,0.01599121093,0.2004823229653271,0.44663174019599244,0.636411132809,0.23645019531,1.03466796875,0.08748936877169929,0.29504562685767904,0.07666870116989999,-0.34790039062,0.46057128906,0.05924429763166896,0.24279224893622658,1.0512560742062,0.84474333818,1.28907222744,0.009835313502896759,0.09892490553638288,Null
-0.9530432128868,-1.08544921875,-0.82360839843,0.0033657128652880394,0.057869545539615215,0.36578369140250006,0.19836425781,0.64562988281,0.00837631186643069,0.09129310109257181,0.1550256347617,0.0244140625,0.24670410156,0.0026261960605566534,0.05111814824750473,1.0363058053183003,0.87909178576,1.24336898445,0.006521285941370932,0.08055234019979853,Null
-0.8948193359334999,-1.18627929687,0.20373535156,0.04667721577037649,0.21550830538873578,0.441375732418,0.20544433593,1.39331054687,0.061113472971570874,0.24659259033213674,0.1315478515597,-0.49548339843,0.392578125,0.026946046998488026,0.16374161585710453,1.0522610713831,0.58705193396,1.8333399395,0.03982784732820792,0.19906960614711347,Null
-0.3291357421869,-1.19604492187,0.77380371093,0.4797237554581764,0.6908872098113306,0.650537109371,0.30822753906,1.40576171875,0.06175668365366359,0.24788686983258162,-0.1845324707028,-0.642578125,0.17321777343,0.09206076353924449,0.3026556784888535,1.0794349420812,0.68855839236,1.5644431477,0.03092944990018944,0.1754274854482287,Null
-0.7318066406211,-1.17456054687,-0.01354980468,0.13429165213502506,0.36554096059723584,0.5457458496065,0.18676757812,0.94750976562,0.0678556496700501,0.2598391260409022,0.05601074218599999,-0.43505859375,0.34375,0.06095633366443602,0.24627535807732337,1.0405859584241,0.82347708141,1.49441265048,0.015563492745913697,0.1244414532307628,Null
-0.9332397460901,-0.95544433593,-0.90100097656,5.37455680981758e-05,0.007312786080399517,0.3530737304661,0.33166503906,0.40783691406,0.00022099239143080377,0.014828601736969328,0.193925781246,0.11950683593,0.21801757812,0.00037483968926491226,0.019312314486321612,1.0167401646942,0.97847146945,1.04569914955,9.091328333595617e-05,0.00951097875716671,Null
-0.9205175781205002,-1.03161621093,-0.34338378906,0.00669296101703686,0.08160573639121012,0.41111572265259994,0.33679199218,1.18090820312,0.03169562080390089,0.17758700036849934,0.2160900878868,-0.14367675781,0.52221679687,0.00788233396829137,0.08856027494565445,1.0458462797072001,0.69874750805,1.63182868704,0.015385724181385629,0.12372871760621582,Null
-0.2970062255818,-0.33203125,-0.2412109375,0.0004439909460365304,0.02101834891960707,0.73548156737855,0.68090820312,0.85864257812,0.002549662074552989,0.05036778498385872,0.6063500976528999,0.52307128906,0.68579101562,0.001922732495750168,0.04373921390779008,1.0003471746765502,0.94721765298,1.07252330497,0.0010086518788864213,0.03167978250386182,lift down
-0.2951977539031,-0.3359375,-0.26123046875,0.000389590221465379,0.019688633024109423,0.7147583007770999,0.66967773437,0.75891113281,0.0005032784076080493,0.022377712474022208,0.6601806640586,0.62414550781,0.70373535156,0.0006200788009033401,0.02483905004018518,1.0175023530773,1.00432597192,1.03081175132,5.426714901254091e-05,0.007348184351761883,lift down
-0.3264843749981,-1.0859375,0.1796875,0.16643682775690197,0.40694550448200983,0.6387121581994,0.35583496093,1.03820800781,0.031072627975569516,0.17583305956415496,0.5571691894490001,0.15307617187,1.15173339843,0.06736891325248294,0.258905520772,1.0327035916407,0.62357743014,1.32545112833,0.022170897261157025,0.148526235981564,lift down
-0.9143615722613001,-0.93518066406,-0.90124511718,4.517474216786278e-05,0.006704391729085008,0.3803735351521,0.35461425781,0.43151855468,0.0001961822425945267,0.013971447003855901,0.23935424804310002,0.21618652343,0.27319335937,0.0001598822097173377,0.012612802966381067,1.0190168714455,1.00795618408,1.03643324197,3.559380755566783e-05,0.005951120778297941,lift down
-0.92861083984,-0.95617675781,-0.90490722656,0.0003256086069127283,0.017999460099629785,0.39935302733969996,0.37939453125,0.41967773437,0.00014132006682729748,0.011858054920313069,0.2564416503872,0.2431640625,0.2705078125,5.773229664278034e-05,0.00757915794528432,1.0428965124245,1.01288747113,1.0750729719,0.00045442653988480794,0.021263922666934807,lift down
-0.9100610351518,-0.92028808593,-0.89294433593,2.8377975052113966e-05,0.005313763748686367,0.38259155272999995,0.36608886718,0.40148925781,7.308748349245694e-05,0.008527722209065834,0.2531433105429,0.23840332031,0.26696777343,2.5529470576540695e-05,0.005040022145155514,1.0191955572396,1.00580685672,1.03254890281,3.5875030767839155e-05,0.005974584137327046,lift down
-0.9230139160118,-1.01770019531,-0.82885742187,0.0009344220326344022,0.030491800905673484,0.36749999999590005,0.26416015625,0.47546386718,0.0021156373095888733,0.04588092330196646,0.23769653320030001,0.09875488281,0.28759765625,0.0022061450083440373,0.046852046735466286,1.0235004632125,0.90523478766,1.13617888801,0.0011932725404465608,0.03445730949659778,Null
-0.9437084960904001,-1.12646484375,-0.81005859375,0.005302684396949222,0.07263725610844944,0.40128173827749997,0.23937988281,0.76342773437,0.012054932926081712,0.10952012719793246,0.1946716308558,0.0517578125,0.38830566406,0.0038382669714449947,0.06179867018462266,1.0491501455082999,0.85571404863,1.2739987102,0.009933346715869113,0.09941669870947117,Null
-0.0127099609377,-0.81103515625,0.11767578125,0.02442444756939541,0.1558920310071956,0.9253381347621,0.63513183593,1.0068359375,0.007321695782737118,0.08535272288464751,0.36629150390289994,0.17785644531,0.51318359375,0.005434240294413908,0.07353277563741109,1.0125333895139,0.84625735193,1.16928211736,0.0023641099794221385,0.048500406488245315,Null
0.1919433593718,0.07678222656,0.43664550781,0.013834925752232642,0.11732753778832776,0.9767565917932001,0.68017578125,1.26391601562,0.006721822489079385,0.08178149776467773,0.2428588867154,-0.06616210937,0.35314941406,0.008836595107515818,0.09376786300208743,1.0364201350856002,0.76897294951,1.2679734341,0.004980715473565376,0.07039752762844409,Null
-0.6907568359363,-1.31518554687,0.30786132812,0.2991070830847517,0.5455378517292159,0.5320202636678999,0.21484375,1.11022949218,0.07068583494899792,0.2652025749766637,0.1928613281215,-0.01318359375,0.44714355468,0.01565982039845435,0.12482596403177537,1.0717923765594,0.59829235507,1.47274870038,0.032334307054111326,0.17936732009717035,Null
-0.9552838134728501,-1.21142578125,-0.7529296875,0.008972333690239675,0.09448530055933821,0.34053283691055003,0.21630859375,0.65283203125,0.005255294190210974,0.07231194727885511,0.22476135253545,-0.0361328125,0.47973632812,0.011468923645587983,0.10682499252216235,1.0464788773015,0.81720749081,1.28168108712,0.009545197008053364,0.09745496920636268,Null
-1.0102832031213,-1.18872070312,-0.73596191406,0.009445288708409532,0.0969436035273472,0.36811279296470006,0.08544921875,0.65283203125,0.019122769539332972,0.13793895639606785,0.24485107421510002,-0.04602050781,0.52893066406,0.02298178366692799,0.15121797098424958,1.1204640324115003,0.84479495085,1.30704001237,0.012043891632423412,0.10946996014551798,Null
-0.998094482418,-1.49438476562,-0.65686035156,0.03955828241812027,0.19839478573296646,0.33777465819979996,0.04663085937,0.59594726562,0.01891995326223916,0.1372055155448496,0.1672839355431,-0.00769042968,0.34582519531,0.006611210884923346,0.08110582488637132,1.0775023141133002,0.76085579725,1.61480162334,0.04223215382815935,0.20499022674024867,stairs down
-0.9285437011686,-1.39282226562,-0.13928222656,0.06981497842893687,0.26356385096745,0.3839978027307,0.060546875,1.07507324218,0.047984079887473476,0.2185043694941502,0.1765173339811,-0.03344726562,0.85815429687,0.029583004387818166,0.1715665741509082,1.0621424444646,0.66153719324,1.78898259779,0.059602680135676364,0.24352549504106955,stairs down
-0.19892822265285,-0.73693847656,0.03686523437,0.04081617221748564,0.20152441875960891,0.9307122802692,0.55737304687,1.37829589843,0.030768998288763925,0.17497186430200745,0.19508850097525,-0.25219726562,0.74938964843,0.07267735947426832,0.268912574412014,1.0270283582684,0.69214269781,1.43932088816,0.03277515404008319,0.18058593043169993,stairs down
0.0421679687491,-0.40026855468,0.27404785156,0.02526567159499044,0.1585539127143051,0.9989880371052,0.78637695312,1.37829589843,0.011303508190171422,0.10605183001353896,0.06256103515499999,-0.32775878906,0.33569335937,0.03167355464839254,0.17752517251125424,1.0300130692791,0.84637746729,1.39099974886,0.01069720287638362,0.10316839080843368,Null
0.1885485839832,-0.43444824218,0.54565429687,0.1235340270820433,0.35059429109247214,0.9356408691372,0.71350097656,1.10180664062,0.0064637322086656505,0.08019609434144734,-0.09244018554509999,-0.37744140625,0.25561523437,0.024903771222325944,0.15741426989385146,1.0335136595211,0.87706270786,1.16649745525,0.005523749619455499,0.0741358946216893,Null
-0.22539916992260003,-1.14904785156,0.58227539062,0.5420018130328091,0.7343648983765803,0.6682653808551001,0.17150878906,0.96520996093,0.05135854232697738,0.22605696099731698,0.08699829101310001,-0.23291015625,0.41320800781,0.023561438930778413,0.1531131337806281,1.0517796702805,0.89185148415,1.31076278272,0.012611877581901425,0.11202150772950664,Null
-0.9970251464809,-1.16174316406,-0.77270507812,0.011607186175856569,0.10746697281014891,0.33140991210590004,0.15209960937,0.53125,0.009815707606648332,0.09882625697968678,0.2820312499961,0.02331542968,0.54040527343,0.008259242802903195,0.09065289068137143,1.0953803784859,0.87759067834,1.2881765847,0.01317472448432772,0.11449389006364524,stairs up
-0.9709259033168999,-1.20666503906,-0.75329589843,0.019516178776540688,0.13935062928691058,0.31167297362905,0.1806640625,0.47338867187,0.006962266764659351,0.08323133683196525,0.2329901123017,-0.0087890625,0.43896484375,0.009388399722821595,0.09665121687908274,1.0524714719352,0.81715718098,1.32343764884,0.02124839768598982,0.14540342395404543,stairs up
-0.98856628417635,-1.17846679687,-0.76525878906,0.014447435553598504,0.1198966153643651,0.31714538573885,0.15576171875,0.48754882812,0.00879960656129272,0.09357140871273797,0.22649291991790002,0.11108398437,0.34167480468,0.0031357020453828266,0.05585717084811862,1.0685759554564,0.83477028795,1.27058849034,0.013607833706020138,0.11636062279607323,stairs up
-0.9802404785118,-1.1943359375,-0.75817871093,0.01522641869503495,0.12308650048465825,0.3108929443321,0.16418457031,0.46032714843,0.007427955359310436,0.08596985275382228,0.24389709472305,0.11608886718,0.38659667968,0.004669114797212102,0.06815987986510864,1.06316488889755,0.83873340041,1.2578284695,0.013948645010822745,0.11780875088790574,stairs up
-0.9905651855438,-1.28271484375,-0.59655761718,0.02500604124385698,0.15773715807519068,0.35587768554329996,0.13940429687,0.51245117187,0.011189095151723167,0.10551374164517412,0.21565917968370002,0.06042480468,0.32482910156,0.003897397626048047,0.06227287240779734,1.0796763464663999,0.655510463,1.36520058258,0.028711812959060487,0.1690214598631345,stairs up
-0.97997863769115,-1.19323730468,-0.79296875,0.010039053442147958,0.09994427534850217,0.35250061034745,0.18017578125,0.57897949218,0.009976362399907615,0.09963172480644947,0.2236468505823,0.06298828125,0.3310546875,0.0048140314622171785,0.06920954634229366,1.07125489224035,0.85704996997,1.31082003798,0.012596062534101064,0.11195124930714512,stairs up
-0.9817724609329,-1.18994140625,-0.81494140625,0.009084513103538572,0.09507413180261431,0.32605895995750006,0.16088867187,0.49975585937,0.009119127104793,0.09525508631705204,0.24870910644150002,0.14294433593,0.33715820312,0.0036618880947075173,0.06036206303825259,1.0695514541182,0.89422513063,1.24535761886,0.009913284118140122,0.09931625092375075,stairs up
-0.9892974853479501,-1.17150878906,-0.75366210937,0.011414777384450738,0.10657252693601894,0.31130249023080003,0.15551757812,0.4990234375,0.009227400807006323,0.0958189115100526,0.23307373046500002,0.11633300781,0.32849121093,0.002952551488359851,0.05420137203907344,1.06802999529875,0.82258967449,1.26377977267,0.01279477783639395,0.1128308643377865,stairs up
-1.0058081054654502,-1.19201660156,-0.7763671875,0.011737301475368691,0.10806764070706756,0.3447814941365,0.17041015625,0.51586914062,0.009615751030150738,0.0978144788617717,0.2491766357375,0.10424804687,0.36401367187,0.002650367105039591,0.051352850646428506,1.0967045148266,0.88415440547,1.29880910873,0.013804853454791306,0.11719995387165197,stairs up
-0.9957934570276501,-1.20581054687,-0.71459960937,0.016214789882888818,0.12701856531025052,0.3084210205042,0.14660644531,0.46325683593,0.009154322350774178,0.09543872766870012,0.24938659667605,0.09729003906,0.35168457031,0.004418695158315717,0.06630687507735633,1.0781983532972002,0.80529814762,1.30128874057,0.016129637036069594,0.1266846038431239,stairs up
-0.97654235839525,-1.16540527343,-0.74182128906,0.010919350591918989,0.10423412991414757,0.3464105224574,0.19104003906,0.51611328125,0.007234667757981792,0.08484394155855728,0.2309686279261,-0.00256347656,0.39770507812,0.008840156200189572,0.0937867550307005,1.0680985748254,0.83506902697,1.26336209186,0.013071731686622286,0.11404548666295031,stairs up
-0.99778076171465,-1.22204589843,-0.74816894531,0.01509779792934384,0.12256552916581856,0.35212890624640003,0.169921875,0.56335449218,0.012173035492232377,0.11005530570931697,0.23547607421495,0.12219238281,0.42956542968,0.005951245819391307,0.07695121565182939,1.09069214249565,0.80147170097,1.32552155967,0.018549563552310196,0.13585586382099465,stairs up
-0.9982434081994501,-1.25842285156,-0.736328125,0.020108702313018024,0.14145019901524683,0.32230346679359995,0.16882324218,0.498046875,0.009267955627574929,0.09602924476135931,0.2328320312465,0.03527832031,0.32653808593,0.004764675351338274,0.06885384502394606,1.0805146164122,0.80147170097,1.32507097058,0.021144695317606946,0.14504817076067836,stairs up
-0.9755963134730001,-1.19274902343,-0.76892089843,0.01744476152082221,0.1317480083842564,0.32183410644164995,0.15173339843,0.46691894531,0.0065162406310763105,0.08052117378628387,0.2281585693316,0.04455566406,0.34265136718,0.005785058182315319,0.07586918275165314,1.0576715102123,0.84770767653,1.30024406865,0.0184422092559583,0.1354621652332433,stairs up
-0.98956176757405,-1.24401855468,-0.77673339843,0.016657437509912706,0.12874063197904204,0.30823425292609996,0.16516113281,0.50244140625,0.008814809190223552,0.09365220309353343,0.22973937987950002,0.15649414062,0.31176757812,0.0014367376795727364,0.03780944314817229,1.06565027912935,0.84363115321,1.30448010218,0.018276332903046602,0.13485158967743527,stairs up
-0.9632379150355501,-1.21435546875,-0.74243164062,0.01702130860716303,0.13013916422094934,0.31069152831644997,0.17016601562,0.45324707031,0.005588657753802833,0.07457019823651952,0.21903320312165,0.01635742187,0.33325195312,0.006426409824340759,0.07996422809743776,1.0411834288686501,0.82328165486,1.27589816499,0.01724654527920113,0.1309973761294673,stairs up
-0.9871203613231501,-1.15368652343,-0.81567382812,0.008129109987338682,0.08993589070778132,0.35281738280955,0.17272949218,0.56311035156,0.010317000635912217,0.10131838743649967,0.24154907226220002,0.04858398437,0.47119140625,0.008342624416028727,0.09110933702946468,1.0828252877747002,0.89148714766,1.30077596898,0.011434025310038077,0.10666234191826038,stairs up
-0.9758398437463501,-1.12915039062,-0.74523925781,0.010727411742162747,0.10331396170630537,0.33254272460479994,0.17883300781,0.51123046875,0.009381886761124012,0.0966176864105035,0.23834228515275002,0.10510253906,0.36560058593,0.005886527012347428,0.07653165604693062,1.0638499389213,0.8370615986,1.26830936024,0.013813329718053212,0.11723592908943463,stairs up
-0.9994134521448,-1.22497558593,-0.70910644531,0.01797318693634923,0.13372853473237298,0.30107482909805,0.08654785156,0.50268554687,0.010903050566592487,0.10415630232376495,0.261159057614,0.0830078125,0.41369628906,0.0069106492681203615,0.08292222875550175,1.08359000942625,0.81351438803,1.30376025045,0.01921406856942102,0.13826784957673247,stairs up
-0.9812274169881001,-1.18371582031,-0.79736328125,0.012150759504857217,0.10995456201237369,0.31601562499665,0.15905761718,0.45861816406,0.007094494961093004,0.08401798906357816,0.23823181151969997,0.05993652343,0.33020019531,0.0035036652677598564,0.05904360203630074,1.0622226896873501,0.86837416725,1.29767622384,0.013814721368315562,0.11724183451939835,stairs up
-0.9857556152302501,-1.2373046875,-0.75268554687,0.01925152755710219,0.1384025647136522,0.29956237792639995,0.166015625,0.44873046875,0.0068846796442087015,0.0827662748103819,0.23157714843349997,0.14367675781,0.29992675781,0.001594886611995174,0.03983606630849987,1.0595926833178,0.82645046325,1.30121692887,0.020035689154155514,0.14119316806554322,stairs up
0.10993774414024993,-1.36987304687,1.10766601562,0.7233034448320645,0.848343637689294,0.45829895019109995,0.18408203125,0.99853515625,0.035157236123996155,0.18703328565626007,0.0727600097654,-0.3720703125,0.81970214843,0.10045526940214021,0.3161534327745462,1.02218425952845,0.55288221181,1.69225746654,0.03736579350334989,0.1928184756081044,Null
-0.9503491210899,-1.10083007812,-0.81726074218,0.0029971107226012665,0.05460883782858101,0.3427911376911,0.20593261718,0.52770996093,0.004175536656155888,0.06445664413289842,0.20200439452734997,0.03784179687,0.34033203125,0.0038250260556880068,0.061691984288151785,1.033532846725,0.8858060635,1.24510868443,0.004248775129040766,0.06501946826447877,Null
-0.9277398681602,-0.96716308593,-0.90100097656,0.00020886355573373794,0.014415936943364772,0.32688903808265,0.28625488281,0.39758300781,0.0005744950162547426,0.02390862901074566,0.259567260739,0.22827148437,0.28100585937,0.00015441668055175264,0.012395345785777574,1.0176978445118998,0.99092042922,1.04797983228,0.00015784190234013478,0.012532066582508812,Null
-0.9226281738237,-0.93701171875,-0.90869140625,3.2622477221400364e-05,0.00569731207108171,0.3354901123008,0.30358886718,0.38989257812,0.00023326910882595007,0.015234919208247228,0.25595275878535,0.21484375,0.275390625,0.00014879026267977888,0.012167428297153839,1.0147294379138,1.0016230361,1.03270596259,4.51794850033791e-05,0.0067047436623902485,Null
-0.936119384762,-0.982421875,-0.91516113281,0.00022798258305767682,0.015061297093623392,0.3065142822224,0.162109375,0.35339355468,0.0012205062466009017,0.03484829573118171,0.24868286132425,0.18310546875,0.28210449218,0.00019064464610159514,0.013772850934758829,1.01669201721715,0.99684613553,1.03525008729,8.236501118281435e-05,0.00905279990538288,Null
-0.9589117431605501,-1.06982421875,-0.85913085937,0.0028709583692910043,0.05344720364476096,0.32512756347259997,0.162109375,0.49011230468,0.006609616072460834,0.08109604177824298,0.23316040038725,0.07202148437,0.37390136718,0.004602596650568223,0.06767262125346839,1.0437399809019,0.93137428587,1.19194794519,0.004224164336345443,0.06483088395713663,Null
-0.95371398925425,-1.07592773437,-0.87292480468,0.0011907529048009542,0.0344209113806847,0.31315673827815,0.20153808593,0.443359375,0.001964991050765685,0.04421726015383424,0.22294677733980003,0.05163574218,0.39099121093,0.0043082871569209485,0.06547324431503561,1.031053089234,0.89963112199,1.16427017765,0.0017075574791910657,0.041219166558715256,Null
-0.9423187255819001,-0.99584960937,-0.82775878906,0.000759974786591667,0.027498634741723246,0.33770690917625,0.24096679687,0.45422363281,0.0028933565217452023,0.05365528621800909,0.18471557616795,0.03857421875,0.23815917968,0.002030402030991476,0.044947191467727084,1.02003149271425,0.90295378801,1.10939773348,0.0013280901633334773,0.03635174978617686,Null
-0.93280029296525,-0.94836425781,-0.92297363281,3.5177373407439415e-05,0.005916205417360204,0.3475994873018,0.32104492187,0.36303710937,0.00012860494006268608,0.01131202525467357,0.21280090331579998,0.16162109375,0.23315429687,0.00022450635741617128,0.014946030430488573,1.0181345534956001,1.00946729669,1.02684020984,1.446511240855585e-05,0.0037937826567310193,Null
-0.9374536132777002,-0.97644042968,-0.91979980468,0.00016214523481415584,0.012701752187792245,0.3253173828089,0.24230957031,0.36242675781,0.0006252641054554633,0.024942690009864335,0.21269775390234996,0.10974121093,0.28308105468,0.0017625450429053652,0.04187758729548347,1.0160326061448501,0.99808301319,1.05235975319,0.00010649144041101094,0.010293637996789857,Null
-0.9312707701685077,-0.943359375,-0.91857910156,2.8536902432569362e-05,0.005328689125254105,0.34016684156960203,0.30505371093,0.37084960937,0.00019782870415907796,0.014030127645546434,0.2225779063622388,0.18444824218,0.24353027343,0.00015372531184225044,0.012367720456728135,1.0162961536922888,1.00441754156,1.03032903295,4.017968417280023e-05,0.006322957001796501,Null
-0.9333526764648743,-0.9453125,-0.92041015625,3.7246195529039264e-05,0.006087612727279516,0.32972356901271355,0.26965332031,0.38391113281,0.0005732354179993379,0.023882102880805774,0.22949954852050253,0.21301269531,0.24731445312,5.0906225615619296e-05,0.007116910526109369,1.0164348158305025,1.00021304155,1.03154806684,5.349164965229616e-05,0.007295399056442141,Null
-0.9758605956987999,-1.26428222656,-0.81079101562,0.007147422949544459,0.08433081189456637,0.29851562499645,0.1728515625,0.5166015625,0.004344606315707097,0.06574863712753719,0.1729541015586,0.03259277343,0.30615234375,0.006352564414032781,0.07950346905615262,1.0390063860974998,0.85131783426,1.38459969455,0.009597690665620755,0.09772257780212641,Null
0.4604290771460499,-1.22314453125,1.015625,0.5518052736344342,0.7409765497411251,0.10073974609325001,-0.46398925781,0.9111328125,0.12006132615107265,0.34563133469105095,-0.23848510742,-0.58056640625,0.46105957031,0.09323538773883105,0.3045803847921545,1.0048403474821501,0.59167799054,1.52821583253,0.0307446549205702,0.17490263475993537,Null
-0.7497576904266501,-1.349609375,0.84020996093,0.29009641826158755,0.5372577930288956,0.3704803466759,-0.30737304687,0.64599609375,0.017610796497856955,0.13237349627235684,0.12380920409929999,-0.48657226562,0.28100585937,0.03027289678902151,0.173555559706615,1.01630775827725,0.65009294175,1.49389810526,0.018391012371293928,0.13527400825523528,Null
-0.9232177734348,-0.93469238281,-0.9091796875,3.120228273409282e-05,0.005571918100656394,0.37047363280859996,0.34423828125,0.41088867187,0.00020240349985001618,0.014191246680639659,0.21110595702760002,0.18493652343,0.23132324218,0.00015407224995924435,0.01238151399100482,1.0171008494758,1.00585840465,1.04026484657,3.929298639920431e-05,0.006252721125014955,Null
-0.9119412982841707,-0.95922851562,-0.87548828125,0.0005615400796559879,0.023637222133966594,0.3363533978447235,0.29467773437,0.37390136718,0.00034987008555346417,0.01865775829032067,0.2115809761661307,0.13256835937,0.25915527343,0.0007941034516336882,0.02810894843332793,0.9952825822514575,0.95248774815,1.03991534433,0.0006498394241167765,0.025427817432341123,lift down
-0.8309594726521,-1.86999511718,-0.26354980468,0.10033678965973968,0.3159669376872222,0.5054608154258,0.25512695312,1.16479492187,0.04333769668254218,0.20765598522346873,0.3212518310514,-1.38647460937,0.77648925781,0.11464562146363871,0.3377460486168869,1.1010597054959501,0.62731669927,2.6030637316,0.09433612500428387,0.3063730477363543,lift down
-0.8084716796838001,-1.419921875,-0.19775390625,0.04839327527064425,0.21943406502703955,0.4389941406208,0.30236816406,0.65747070312,0.013012354433934347,0.11378617078434741,0.3571289062464001,-0.60168457031,0.96130371093,0.060690034573516134,0.24573681938335687,1.0399491068495998,0.83329064239,1.66711497287,0.013944129799025503,0.11778968184875267,lift down
-0.2700610351522,-0.54345703125,-0.14562988281,0.013534159282894585,0.11604520018716893,0.7035546874964002,0.38671875,0.85461425781,0.02376104194312638,0.1537603223637709,0.6554785156206,0.49353027343,0.96008300781,0.013794412828643621,0.11715562626054458,1.0234033219436,0.93012738439,1.1050758742,0.0010593488107643744,0.032466168032438826,lift down
-0.49146972655980004,-1.21801757812,0.38403320312,0.21150775748776968,0.45874853536586996,0.6291503906214,0.23071289062,1.46435546875,0.0854715935550346,0.29162344828092857,0.4388891601522,0.23583984375,0.64221191406,0.021687150534427373,0.14689695293557056,1.0525713983286,0.58707081864,1.53350514638,0.03935982063702372,0.19789649196951067,lift down
0.07342285156114997,-1.04455566406,0.63415527343,0.3716654452435877,0.60811768434849,0.7742651367144999,0.31115722656,1.05712890625,0.05469216730732473,0.23327817401288983,0.09408020019395,-0.25549316406,0.53894042968,0.025359294640885637,0.15884740529099367,1.01837521774825,0.50852710621,1.52529790208,0.02622988911120667,0.16155104353005784,lift down
0.049611816405199995,-1.29992675781,0.61108398437,0.4836114453798797,0.6936810420884949,0.7137011718713999,0.23376464843,0.92919921875,0.03567062536092405,0.18839392833666224,0.20217773437140005,0.00134277343,0.52600097656,0.015908967046952587,0.12581503173992298,1.0346601636682,0.77509392507,1.49657913879,0.014773828794392325,0.12124339013084533,lift down
-0.9399926757774,-1.08288574218,-0.83410644531,0.002706044936240389,0.051889447015353585,0.3649023437458,0.25451660156,0.50378417968,0.003771979629051906,0.06126271077014668,0.1644409179644,0.04467773437,0.24462890625,0.0020759909895804213,0.04544899376919713,1.0238231310706,0.89827011041,1.20084742064,0.004098701759057498,0.06386085068539418,Null
-0.236391601561,-1.01306152343,0.08654785156,0.13804419809715665,0.3706129748223487,0.8714819335896,0.28625488281,1.12377929687,0.0585291168139001,0.24132233885372195,0.21949951171559998,0.01940917968,0.544921875,0.015872265831469185,0.12566982335593474,1.032930173097,0.85534640094,1.29589260189,0.008020498342029806,0.08933306135087758,Null
0.0945654296862,-0.14111328125,0.28918457031,0.021508577144786278,0.14629092336526675,0.9657373046844,0.79638671875,1.05017089843,0.004684817515349119,0.06827439804035165,0.19604980468560004,-0.13818359375,0.548828125,0.046288760438017836,0.2146096843943156,1.0246560167288,0.89010649361,1.1695506314,0.0022376681101818692,0.047185588579893335,Null
0.5531005859342,0.19946289062,0.87817382812,0.028972880924231482,0.16978815188230986,0.5850952148396,0.28466796875,1.0556640625,0.03898725752262026,0.19695766355998223,0.2294677734368,-0.8427734375,0.89697265625,0.23018085716641,0.4785707396828372,0.9935110679072,0.75659684865,1.16097781443,0.010550930871941493,0.1024606081261564,Null
-0.7149560546856,-1.28271484375,0.5673828125,0.2612029121375138,0.5098008410907403,0.501145019527,0.00537109375,0.99743652343,0.04890461476584148,0.2205903254723839,0.1176049804672,-0.68127441406,0.5791015625,0.03840781701200333,0.19548856213841084,1.0386367177294,0.54184872214,1.6003875237,0.04436779692311217,0.21010939516950833,Null
-0.9508227539018002,-1.03112792968,-0.80725097656,0.0012133888323410474,0.03474653778694133,0.31258300780820003,0.2333984375,0.42712402343,0.0015081834793146088,0.0387381280125671,0.18789306640300002,0.06909179687,0.2998046875,0.0021566705428917726,0.046323721678825786,1.0201720058512,0.87852289104,1.10918507494,0.0011847041516018183,0.0343333748828135,Null
-0.9463354492143999,-0.96276855468,-0.93640136718,4.695641335302379e-05,0.006835322324971856,0.3318115234338,0.28308105468,0.35522460937,0.00024942596955222643,0.01575369289101655,0.1688549804654,0.14331054687,0.19287109375,0.00015742384008365402,0.012515459275761148,1.0171480215238,1.00698651613,1.02891172843,2.3229603754787993e-05,0.004807645550164243,Null
-0.950480957028,-0.95825195312,-0.93835449218,2.237037797986944e-05,0.004717894243194742,0.3151147460896,0.306640625,0.33142089843,3.326723323990693e-05,0.005753337907137682,0.1728173828088,0.16320800781,0.18591308593,2.5968479744355074e-05,0.005083171976790998,1.0161910638987999,1.00954491658,1.0226783412,1.4191344960704856e-05,0.0037577105045361507,Null
-0.9511230468714001,-1.00573730468,-0.93811035156,8.880313316123095e-05,0.009399953058150067,0.3085375976528,0.2138671875,0.32641601562,0.00022763895028976068,0.015049942044350598,0.1787329101524,0.10632324218,0.20434570312,0.00017243635116888286,0.013098632348953018,1.0159902769564,1.00818850282,1.03370756588,2.6275175496650834e-05,0.005113100783200697,Null
-0.9135566066117911,-0.99279785156,-0.640625,0.004576515616124699,0.06748145583577846,0.33676041180437816,0.04809570312,0.89086914062,0.014694341312829193,0.12091829943041489,0.23831040111611942,-0.02575683593,0.56884765625,0.01258423481406515,0.11190007453376356,1.0159222715062686,0.83564237928,1.28829131321,0.004405560894542079,0.06620908307125539,Null
-0.79334350585555,-1.12536621093,-0.30920410156,0.047440401799121235,0.21726297381313187,0.368851318356,0.1328125,1.10522460937,0.0384400235810045,0.19557050765158707,-0.26883666992009997,-0.93493652343,0.38684082031,0.16943086247562678,0.41058946426235615,1.03635178582815,0.59235124463,1.37660588965,0.017817161668731853,0.13314682069200223,Null
0.5110016635886934,-1.1650390625,1.1005859375,0.40223805891012987,0.6326268743356442,0.23463140899723622,-0.35974121093,0.87866210937,0.14832476277793008,0.3841606593747033,-0.2414538512851256,-0.72631835937,0.7236328125,0.15811680001131243,0.39663868095199184,1.0230292648966335,0.66581550791,1.4334011832,0.033170788696303265,0.18167030939567377,stairs up
