avg_accX,min_accX,max_accX,var_accX,std_accX,avg_accY,min_accY,max_accY,var_accY,std_accY,avg_accZ,min_accZ,max_accZ,var_accZ,std_accZ,avg_magnitude,min_magnitude,max_magnitude,var_magnitude,std_magnitude,Label
-0.5880599285451256,-0.73803710937,-0.45739746093,0.0029714827891708724,0.054374173233746104,0.7631909547705528,0.53186035156,0.96875,0.004277756063323108,0.06524001687383571,-0.27809089391939695,-0.43115234375,0.02709960937,0.006587186027058829,0.08095730102799208,1.0078376819559296,0.83383521325,1.15129722013,0.0036579418396155356,0.06032876778396054,Null
-0.33393798827939997,-0.63562011718,0.09252929687,0.07366495688806757,0.27073350753762865,0.22712097167934997,-0.53625488281,1.1005859375,0.3951360001343479,0.6270249756857188,-0.48218261718604993,-1.07995605468,0.08935546875,0.20248324425086284,0.4488550189422065,1.02747897714745,0.78599087399,1.27221954936,0.007852586832245951,0.08839300819682924,Null
-0.8330578613242,-1.10900878906,0.0185546875,0.08995544748520932,0.29917498265694487,0.21518920898155003,-0.5068359375,0.55004882812,0.05037971404096793,0.22389241941334925,-0.34023620605094995,-0.86596679687,-0.17504882812,0.05314403845408335,0.22995286095592057,1.0199455929815497,0.73546240833,1.3163694269,0.008316847460817572,0.09096847378907423,Null
-0.9661071777309,-1.02380371093,-0.93115234375,0.00027882719608560396,0.016656321926078875,0.25200134276945,0.16333007812,0.30590820312,0.001028327471253865,0.03198727612500939,-0.18052734374645,-0.29064941406,-0.12475585937,0.001536439495491802,0.03909932605575629,1.0159000262093998,0.98766548212,1.07350208304,0.00023556824257342415,0.015309813890461144,Null
-0.9644207763636998,-0.97619628906,-0.94982910156,2.4516060956985103e-05,0.0049389756683142485,0.24464416503530004,0.20068359375,0.28662109375,0.00022459882848111347,0.01494910814526097,-0.19387817382485,-0.26184082031,-0.14990234375,0.0003520327821220183,0.018715571543808332,1.0139569962419,0.99913890093,1.02426013208,3.6481767240430495e-05,0.006024894887400804,Null
-0.926422729489,-1.19763183593,0.31274414062,0.08119288071807461,0.28423039301679937,0.3356689453088,0.04602050781,0.74816894531,0.03305003511244471,0.1813416249427651,-0.21520568847394997,-0.88427734375,0.21166992187,0.05491879033829492,0.23376098131767722,1.0809749619146,0.79621401656,1.40602316616,0.017140936947445444,0.13059568240454283,Null
-0.3337585449199,-0.76013183593,0.47180175781,0.14341075482269133,0.3777481979421979,0.6183862304654499,-0.01110839843,0.94995117187,0.09491024615737227,0.307303912969857,-0.1200390625001,-1.00720214843,0.50244140625,0.302037040643678,0.5482032975461381,1.0095937324721,0.61222005256,1.53698721258,0.02671599963196819,0.16304115932428948,Null
-0.6541149902310499,-0.869140625,-0.44177246093,0.009085533605520089,0.09507947169338125,0.7416491699184499,0.60693359375,0.9091796875,0.006366996787597847,0.07959372967552066,0.23151916503555,0.04174804687,0.3623046875,0.005789911911403767,0.07590100362871856,1.02539776796715,0.94485948284,1.11110780942,0.0012127467396763267,0.03473734310476184,Null
-0.60674682616815,-0.623046875,-0.58764648437,6.732358255698294e-05,0.008184556472051375,0.80224975585555,0.79052734375,0.82080078125,4.584075069104043e-05,0.006753632129275716,0.1826831054647,0.13696289062,0.20922851562,0.0003291513512628326,0.018097115640524554,1.0225132856122,1.01303937873,1.03191115397,2.631528853235777e-05,0.005117002256174603,Null
-0.65205322265225,-0.74987792968,-0.57861328125,0.0012914280136209777,0.03584649039380108,0.7717956542927001,0.68444824218,0.82116699218,0.0009410099393601934,0.030599099491053532,0.16199707030845,0.01745605468,0.24731445312,0.004230730701289651,0.06488125343874919,1.0263768297468001,1.0078348039,1.0421184474,6.677800905297231e-05,0.008151326211587134,Null
-0.63497497558175,-0.76721191406,-0.54528808593,0.004347302862384477,0.06576903791353918,0.7674005126915,0.66687011718,0.84301757812,0.002399493970714485,0.04886201490791096,0.21894836425405,0.16735839843,0.27941894531,0.0011798388151691252,0.034262802294810615,1.0236003836181,0.99596725109,1.07046233471,0.00016523601331871568,0.012822239790774547,Null
-0.6348773193319499,-0.7041015625,-0.56518554687,0.0006504007586248412,0.02543911859384513,0.75722229003585,0.67956542968,0.90673828125,0.0017526579229329682,0.041759964479370706,0.27601684569945,0.06005859375,0.37902832031,0.002579113692866864,0.05065785353133836,1.0281032630768001,0.9914067493,1.15122935187,0.0006040685464909903,0.02451628446071173,Null
-0.6679907226527498,-0.78466796875,-0.55102539062,0.002211336628226181,0.04690714172794,0.7400848388629501,0.61706542968,0.86145019531,0.002269316474012805,0.0475181006737721,0.2042327880818,0.01037597656,0.2734375,0.00544440880148805,0.07360154045589405,1.0224289205353,0.99876811474,1.06032544488,0.00016356285593513033,0.012757156487848484,Null
-0.6477667236290999,-0.82531738281,-0.43359375,0.007093284447123765,0.0840108208797423,0.7785711669883,0.68200683593,1.0,0.00547998277955893,0.07384160660265414,0.11657287597489999,-0.14611816406,0.30651855468,0.01308333460012542,0.11409609076179952,1.02967016854165,0.82902234421,1.20445423886,0.004695164377228933,0.068349751684573,Null
-0.6616351318324,-0.80407714843,-0.49499511718,0.003953385319707558,0.06271856497966946,0.7634191894497501,0.65295410156,0.93395996093,0.002984656088012266,0.05449525490877352,0.14505493163865002,-0.14514160156,0.32275390625,0.01592148901631649,0.12586453659087182,1.03017447708845,0.88140027848,1.16601504991,0.0031121801148123744,0.05564727499382438,Null
-0.6523291015586,-0.75439453125,-0.53051757812,0.0022784553220544204,0.04761368548478628,0.7770410156214501,0.67541503906,0.84631347656,0.0011479900949565136,0.03379719136972377,0.09550903320050001,-0.13500976562,0.23229980468,0.006611105663002491,0.08110517945660116,1.0236581433805,0.96329844816,1.12217509392,0.0005621516974995947,0.023650389827909745,Null
-0.64003906249685,-0.67395019531,-0.59521484375,0.00017379067050220706,0.013149970233795057,0.7942407226525501,0.76428222656,0.82141113281,0.0001333542145807876,0.011519003581381667,0.0547943115212,-0.029296875,0.1337890625,0.0029369017492364585,0.05405753638939049,1.0230424035699999,1.00109607262,1.05052554199,8.322664809214827e-05,0.00910002828851029,Null
-0.6654193115194499,-0.69775390625,-0.63049316406,0.00025654500716418055,0.015976929684027516,0.77422241210515,0.74816894531,0.80749511718,0.00017362406354746787,0.013143665517264601,0.019805908201699998,-0.04260253906,0.06640625,0.0012332742760155246,0.0350300999803804,1.02185799153025,1.00654737035,1.03888521618,5.713449822198834e-05,0.00753981602765468,Null
-0.6209454345666999,-0.73254394531,-0.47106933593,0.0028035787299286177,0.0528162932841654,0.8262512206991499,0.78564453125,0.8984375,0.0012793124246498527,0.03567794644492033,0.10559020995955003,-0.03405761718,0.35070800781,0.01607281935471787,0.12646127967858098,1.0479999031509,0.97142240098,1.14701363793,0.0011705927716052673,0.03412828457082543,lift up
-0.4631964111289,-0.57360839843,-0.37451171875,0.004430541290928567,0.06639569703281926,0.8052166748004501,0.77526855468,0.87292480468,0.0005802866019127291,0.02402884035702026,0.4068542480436,0.16198730468,0.51220703125,0.01047463299490979,0.10208946973089458,1.0216008850849,0.98260906552,1.05447388357,0.00019583215113760347,0.013958975262601314,lift up
-0.47905090331595007,-0.51525878906,-0.43298339843,0.0002730366988280822,0.016482460839751502,0.8456127929646,0.79907226562,0.87353515625,0.000608831080973064,0.02461273909113325,0.22838562011314997,0.21032714843,0.24853515625,0.0001206910307013053,0.010958447679657861,0.99845757208705,0.95221101212,1.02602854912,0.000626361651897779,0.02496457176957558,lift up
-0.4760046386681999,-0.51062011718,-0.43212890625,0.00035978808923236227,0.018920601174016654,0.8743872070274,0.83190917968,0.89770507812,0.0001579034807588812,0.012534510894130923,0.2239355468709,0.21350097656,0.24084472656,3.274945158271657e-05,0.005708388943020875,1.0206760750825001,0.99645951979,1.03076568703,4.881565023367011e-05,0.0069693308131055,lift up
-0.4878320312462,-0.51696777343,-0.44543457031,0.0002859668755555343,0.01686822578630475,0.8804736328085001,0.84252929687,0.92321777343,0.0003616503494813386,0.018969504414557907,0.17793945312140003,0.11010742187,0.23193359375,0.0014238659700675736,0.037639695006963535,1.023120713943,0.99208723898,1.04895520283,0.00016229973910861128,0.012707802343956576,lift up
-0.7792919921842001,-1.07104492187,0.05236816406,0.05298409237945382,0.22960655896022777,0.5274621581986999,0.27966308593,0.86694335937,0.031236194322527125,0.1762952448335306,0.04069946289149999,-0.27917480468,0.52746582031,0.05741028063557507,0.2390046636206022,1.0105451573333,0.75774639863,1.16064552624,0.0069243047093018,0.08300411547480818,Null
-0.9504833984343002,-1.11437988281,-0.81030273437,0.006340275014498279,0.07942652982112329,0.35714355468399994,0.23937988281,0.53442382812,0.005780143977353619,0.07583695179440463,-0.19441772460669998,-0.53051757812,0.08203125,0.025182664410381476,0.15829324397563393,1.046572258333,0.86368196775,1.29995193621,0.01062466036671787,0.10281798026067368,Null
-0.6292187499982,-1.64807128906,0.70690917968,0.47217073192187714,0.6854267854864352,0.40614379882440005,0.13110351562,0.81872558593,0.02425884680966763,0.15536264858587887,-0.14274536132670002,-0.69494628906,0.50622558593,0.08702190846367816,0.2942563489907393,1.0623207121509,0.8078189215,1.71094431505,0.03342129964563409,0.18235732271396704,Null
-0.6222082519516001,-1.64221191406,0.70544433593,0.616729457964441,0.7833554816777749,0.5023327636684999,-0.00366210937,0.998046875,0.059293043342074116,0.24289211211022013,-0.022287597656799996,-0.67858886718,0.51184082031,0.0732916573108888,0.2700466608279657,1.1566186213841,0.73139677408,1.69371929105,0.04801909924878208,0.21858408851638347,Null
-1.0477600097617,-1.59655761718,-0.59423828125,0.05025646805593286,0.22361839306204934,0.4743310546837,-0.04736328125,0.95251464843,0.07099639203656555,0.265784518127717,0.09167236328000002,-0.17980957031,0.4091796875,0.026944255702007033,0.16373617322845002,1.1999967195572998,0.76447097258,1.68083843898,0.03885307834358978,0.1966184450957535,stairs up
-1.1005065917935,-1.49951171875,-0.79223632812,0.028557225500337815,0.16856583097661318,0.3921508789036001,-0.10314941406,0.76904296875,0.04998936320655784,0.22302335391282468,-0.0008801269534000001,-0.20971679687,0.24572753906,0.011990686245635786,0.1092278939392663,1.1984686158178,0.93313945905,1.53446588208,0.01874915628498627,0.13658481066195222,stairs up
-1.0241992187463,-1.41174316406,-0.67041015625,0.02603562606632691,0.16095169441790685,0.37009277343409996,-0.06579589843,0.71948242187,0.028819524762546185,0.16933820342360273,-0.0866271972635,-0.26354980468,0.13208007812,0.010232472351791448,0.10090247762088149,1.1125872355593,0.83968963096,1.47816538221,0.020471156049291235,0.14271930587360904,stairs up
-1.0207873535115999,-1.31018066406,-0.67321777343,0.02364043683108658,0.15336960144347753,0.4050683593711,-0.03894042968,0.7021484375,0.024996566077252966,0.15770727074826543,-0.059406738279799996,-0.53979492187,0.59350585937,0.043761490342421425,0.20866883545635012,1.1318310964623999,0.80287561775,1.42980659489,0.02061429876716623,0.14321741260520804,stairs up
-1.0231201171837,-1.2041015625,-0.67858886718,0.01381531043258216,0.11724433410796127,0.33649291991860003,-0.09631347656,0.63098144531,0.0332877427413353,0.1819925933317854,-0.1876562499968,-0.50988769531,-0.02038574218,0.012238739447408374,0.11035191774577972,1.1165176346523,0.88313771055,1.26003587766,0.00768902781256934,0.08746760928198788,stairs up
-1.0861450195275,-1.29040527343,-0.89636230468,0.008252812540195137,0.09061759474569031,0.31011230468400003,-0.08032226562,0.63159179687,0.0376848261911254,0.19363987724683615,-0.1348437499981,-0.3857421875,0.10424804687,0.015561698225127343,0.12443427877398457,1.159822337158,0.92740129615,1.38386849853,0.010118058670018188,0.10033677479702094,stairs up
-1.0273114013637,-1.32299804687,-0.30151367187,0.046092282210018064,0.2141537316951726,0.41986511230115,-0.07006835937,1.07080078125,0.0680047933893606,0.2601245267605763,-0.09623535156055,-0.50061035156,0.39855957031,0.033868732918643764,0.1835739340267309,1.1688625215092001,0.86186452412,1.51894257917,0.022013121685775097,0.14799681103775925,stairs up
-1.032253417965,-1.29943847656,-0.75378417968,0.021379182260860698,0.1458502188875848,0.2776501464809,-0.0810546875,0.50964355468,0.018166973211608047,0.1344475300834865,-0.0726110839832,-0.37084960937,0.25512695312,0.0155091279874657,0.12422392019063144,1.0881942737852,0.82138803001,1.37526706247,0.0186153987959123,0.13609673692610247,stairs up
-0.8705114746054001,-1.3251953125,-0.48461914062,0.037794365012888284,0.19392110041927837,0.4811608886673,0.21423339843,0.79907226562,0.016594790650091534,0.12849831398442968,-0.1075012207006,-0.39086914062,0.12438964843,0.016127601752201993,0.12667661087762405,1.0213613185828,0.66774608849,1.37229756275,0.0279877097368638,0.1668765147891682,stairs up
-0.9892150878872,-1.33508300781,-0.52099609375,0.02296666355449717,0.15116821834209956,0.3434472656211999,0.08557128906,0.77172851562,0.026209780163584884,0.1614891057092303,-0.1432568359352,-0.45629882812,0.08178710937,0.019224925951313487,0.1383069098836241,1.0774560243261,0.73291626583,1.39114105636,0.024294385801642344,0.15547640937658078,Null
-1.0536853027305,-1.30102539062,-0.78076171875,0.011999367857269886,0.10926742889801853,0.2580712890587,-0.06750488281,0.58093261718,0.01446183221392647,0.11995633811040098,-0.0951220703106,-0.89782714843,0.27612304687,0.04280167492083624,0.2063677943532664,1.1122567073835,0.85410030425,1.58605379232,0.017792254458317464,0.1330537229318514,Null
-0.9839477539021,-1.076171875,-0.89489746093,0.0018558111322632602,0.04297129363426174,0.2242541503866,0.06994628906,0.38403320312,0.003953939435117343,0.06272296021347969,-0.10889770507569999,-0.28686523437,0.07348632812,0.008305589785621697,0.09090688552960985,1.0211407391037,0.94899553256,1.09949341021,0.0016263026540665876,0.04022649799319168,Null
-0.8900622558558,-1.25354003906,-0.27172851562,0.07327677643337269,0.27001924477934125,0.2620056152313,-0.22766113281,0.5888671875,0.03876803489613183,0.19640314335990441,-0.31098144530940003,-0.97143554687,0.05993652343,0.1062769884790664,0.3251854909688793,1.0774817319753998,0.93877058553,1.34695029634,0.013900029255143687,0.11760326997523482,Null
-0.7027490234335001,-1.10729980468,-0.41833496093,0.031019831027164192,0.1756836129866083,0.5472546386695,-0.22766113281,0.95031738281,0.08471507699381181,0.29032998744332755,0.0690624999988,-0.90856933593,0.5419921875,0.16241974300840484,0.4020045326776339,1.0317370405694002,0.80123856674,1.32482816238,0.010448256563437558,0.10196085170603653,Null
-0.6753576660120001,-0.80346679687,-0.60620117187,0.003192957158920528,0.05636481502786934,0.703084716793,0.62158203125,0.74182128906,0.001091461401790322,0.03295457623428604,0.29505249023040003,0.08923339843,0.41174316406,0.008303795404487476,0.09089706501018081,1.0245625448965001,0.99642696417,1.07507923688,0.00029038443563999476,0.01699801498592688,Null
-0.6427148437471,-0.68176269531,-0.599609375,0.00038435449553453257,0.019555887171306238,0.7277893066368,0.68981933593,0.7587890625,0.00029122930526682804,0.017022724774268482,0.32135009765239997,0.2490234375,0.36889648437,0.0011734607531132502,0.03417006656926035,1.0236113444438,1.00619010302,1.05252773118,8.557321319596438e-05,0.00922742364530775,Null
-0.6425946044887499,-1.02746582031,-0.30456542968,0.024967403369549866,0.15761524784329123,0.5430987548801499,-0.11767578125,0.9814453125,0.10043963431621152,0.3161288283985351,-0.14971984863274998,-0.96411132812,0.31176757812,0.21566271721712138,0.4632325589064695,1.03044773270725,0.76050311189,1.2685842004,0.007881399629847987,0.08855502601037812,Null
-0.5459594726515999,-0.71435546875,-0.29809570312,0.007900040802749347,0.08865968981862951,0.8349890136679999,0.75512695312,0.93298339843,0.002080539918728313,0.04549876063295209,0.19564575195020006,-0.03796386718,0.345703125,0.003553744193455334,0.059464068751541525,1.0217443337214,0.81511844017,1.21029484831,0.003076209831445592,0.05532475740831011,Null
-0.8566198730429,-1.63916015625,-0.27307128906,0.16975819952397836,0.41098589820863496,0.5915612792939,-0.27392578125,0.96887207031,0.1082973052665335,0.3282618143193034,0.15845825195139998,-0.20434570312,0.57202148437,0.040603174064411184,0.20099790594453745,1.1742541404137001,0.74111398055,1.68458213912,0.047280372709826456,0.21689622137390344,Null
-1.1288195800741,-1.48693847656,-0.91467285156,0.018487184279809832,0.1356272404733311,0.358153076169,-0.07971191406,0.99841308593,0.07116669820571189,0.26610310917891083,-0.055202636716799994,-0.25549316406,0.60412597656,0.018784615735295,0.13671390805846537,1.2181891461124001,0.91635634667,1.65102327398,0.029614182363869326,0.17165695864732655,Null
-0.7084191894493,-1.24108886718,0.00061035156,0.15199734716968738,0.3888924792713777,0.5242114257778,0.18640136718,0.99755859375,0.06186088312210928,0.2480959062671102,0.1983166503902,-0.24230957031,0.73852539062,0.08670533748378148,0.2937206339302068,1.0503542807762,0.84389615559,1.60039587096,0.01186079950854197,0.1086346883412442,Null
-0.9753466796839,-1.0625,-0.9150390625,0.001135661949505338,0.03361522928313611,0.227333984371,0.11254882812,0.38391113281,0.0022661472924659014,0.04748490871849257,-0.17422241210590003,-0.27136230468,0.07849121093,0.006129856341484553,0.07809742031448369,1.0204621405082,0.94608653512,1.13022456032,0.0014837808497926437,0.03842345566894889,Null
-0.02909545898620003,-1.03308105468,0.47045898437,0.392073790739505,0.6245906033441485,0.74795593261385,0.12438964843,1.00170898437,0.0906616994484352,0.3003471174344662,-0.030668334961049995,-0.3876953125,0.13525390625,0.02722077123638197,0.16457420022652414,1.0294210133994,0.73349408822,1.33989184991,0.008968871281345792,0.09446706793872171,Null
0.42307250976190003,0.15075683593,0.51794433593,0.005834507790900175,0.07619275065218262,0.9040820312462,0.83837890625,1.08923339843,0.002306427524253411,0.047905066398369014,0.026364746091800003,-0.18408203125,0.17834472656,0.009503130630611535,0.09723998651510847,1.006341774229,0.95794326767,1.2026080408,0.0018913031492617384,0.04338025626382848,lift down
0.28304443359200004,-0.70288085937,0.568359375,0.1845823719550237,0.4285550840851717,0.8558007812460999,0.74377441406,0.92956542968,0.0018448042150686864,0.042843671574613475,-0.19394897460570001,-0.60217285156,-0.06335449218,0.016369907117782096,0.1276246746604793,1.0243185250803999,0.85518594535,1.16593707281,0.002693457656743234,0.05176862339737766,lift down
-0.6521429443325001,-0.75451660156,-0.4833984375,0.004053026122909037,0.06350402343390922,0.7765197753868002,0.64074707031,0.90490722656,0.0050010465123263015,0.07054106094867492,0.08618041992015002,-0.27770996093,0.29528808593,0.027645330480472442,0.16585265698224458,1.0342978994881,0.91024146274,1.14199338116,0.0023343770817515685,0.048194451924913624,lift down
-0.66252380370715,-0.69055175781,-0.61608886718,0.0002637301703934187,0.016199120949651917,0.7711322021449,0.75012207031,0.79748535156,0.00017704678801823672,0.013272586563219151,0.11583007812175,0.09484863281,0.15686035156,0.00024771698755802574,0.015699630652350888,1.0235040018933501,0.99117474419,1.05714037318,0.00012450275950762833,0.011130150300426774,lift down
-0.6819885253867999,-0.70227050781,-0.64001464843,0.0002444859350826608,0.015596906917951632,0.75729125976125,0.73815917968,0.79345703125,0.00015887493915892403,0.012573009363836863,0.09554321288704999,0.07556152343,0.11584472656,0.00012979396473461387,0.011364197944023186,1.0238307083262,1.01383023504,1.04528386628,2.8217241453112283e-05,0.005298693730142055,lift down
-0.6564672851528001,-0.6962890625,-0.62744140625,0.0002723820185603318,0.016462688373031,0.7829150390590001,0.75219726562,0.8076171875,0.00023323223219518367,0.015233714945285269,0.05790893554329999,0.03271484375,0.08740234375,0.00018865645682043428,0.013700845759891325,1.0236784641431,1.01136558584,1.03571731908,3.206138627872933e-05,0.0056481040489119606,lift down
-0.6614990234342,-0.68322753906,-0.63684082031,0.0001172782787682983,0.010802401926167014,0.7788879394497501,0.76403808593,0.802734375,5.8086935298201985e-05,0.007602400977435416,0.04239868163675,0.02709960937,0.06567382812,6.198824799678339e-05,0.007853553766085737,1.02285380379435,1.00549513508,1.03609172369,3.6334397307691326e-05,0.0060127136403751065,lift down
-0.6866571044892501,-0.71936035156,-0.65185546875,0.0002807459036825608,0.016713532665602087,0.7898571777309,0.75646972656,0.82690429687,0.0004128535174231648,0.020267936496744035,0.059755249019699995,0.03601074218,0.07507324218,6.26494203822769e-05,0.007895326040156006,1.04838686745145,1.01345859702,1.08799415109,0.0005833908506733533,0.02409302588758802,lift down
-0.6730078124964,-0.69274902343,-0.65588378906,6.012763209782015e-05,0.0077347911372790835,0.76554565429315,0.75354003906,0.77575683593,4.027233500784885e-05,0.006330163768245621,0.05792358398035,0.04431152343,0.07250976562,4.5890483126303425e-05,0.0067572946295593695,1.0210205949609001,1.01274140417,1.02918873314,1.7396717396338736e-05,0.004160496822418813,lift down
-0.6713293456998499,-0.68579101562,-0.66088867187,3.42858361880926e-05,0.005840753975913738,0.769288330074,0.75952148437,0.78967285156,3.2437505132578325e-05,0.005681136999484824,0.05508728026985,0.046875,0.06640625,2.1780096935176714e-05,0.004655233232664163,1.0225337119077,1.01135304738,1.04313565465,3.527896384276577e-05,0.00592474210607955,lift down
-0.66749877929305,-0.7158203125,-0.56408691406,0.0007780355649337405,0.027823468279656864,0.7723236083946001,0.73168945312,0.90905761718,0.0007755615509789113,0.027779196230705034,0.07369079589444999,0.0400390625,0.28857421875,0.0016154691708391243,0.04009229134116593,1.0246954141015499,0.99027676463,1.13829868017,0.0006243609222105405,0.02492466885636573,Null
-0.5907537841759,-0.78125,-0.42944335937,0.005698434191924022,0.07529901739707101,0.8032867431606999,0.65966796875,0.98681640625,0.0054548565372997335,0.07367212671433637,0.23155944823900002,-0.03601074218,0.37768554687,0.012582148151083196,0.11188939811406522,1.03214533409705,0.85655116924,1.21130712466,0.0062031902639315085,0.07856318675188687,Null
-0.59855773925415,-0.73425292968,-0.48083496093,0.0036968959751614043,0.06064990927681258,0.78707763671445,0.69616699218,0.92858886718,0.0023027127172800944,0.04786647212500305,0.22065551757385002,0.02807617187,0.35498046875,0.008467453327348747,0.09178843097423554,1.01922743795875,0.89918859018,1.1174917407,0.0020317460274321486,0.044962065091530085,Null
-0.5563336181598,-0.79467773437,-0.23620605468,0.018109390181206973,0.13423428485413455,0.77798217773075,0.59680175781,1.20239257812,0.012510660112504747,0.11157108412103121,0.18323669433305,-0.78857421875,0.58337402343,0.13999691005380324,0.3732250333291354,1.05381377246835,0.82094256409,1.31876411159,0.0076175459470748585,0.0870600839497613,Null
-0.19979980468500003,-0.57958984375,0.12341308593,0.049990662114056575,0.22302625137746965,0.72389099120795,-0.11999511718,1.1435546875,0.12568938540126567,0.35363956010924363,-0.30813720703014996,-1.08642578125,0.45690917968,0.29226340019803115,0.5392606820425916,1.04542234444135,0.4972671239,1.48093208772,0.03174122580591222,0.17771471429480074,Null
-0.057616577146699995,-0.38745117187,0.62548828125,0.08663274916669182,0.293597659086135,0.8527508544888,0.31164550781,1.12292480468,0.04507813239196874,0.21178465886368847,-0.006064453126350014,-0.94091796875,0.4833984375,0.2086460374326225,0.4556345105953448,1.0305382835554,0.79968030658,1.25259819016,0.007222560712365493,0.0847729196666227,Null
-0.41194458007615004,-1.26611328125,0.66125488281,0.37754927384346476,0.612912332617192,0.24104492187305,-0.85546875,1.58288574218,0.5506200495385156,0.7401803491655417,-0.10257995605310001,-0.61596679687,0.59362792968,0.09605433178066548,0.3091505460479767,1.08446886701395,0.25683144104,1.86830336454,0.08176226348329221,0.285225265651337,Null
0.3165411376923,-1.20727539062,0.74450683593,0.36256703695115255,0.6006281726379448,-0.4113397216772,-0.89807128906,0.82458496093,0.2231691098065577,0.4712252797309636,-0.40650451659745,-0.70068359375,0.4287109375,0.06775729167610016,0.25965073698666763,1.03112644190205,0.35253929497,1.43319228785,0.02175760055213359,0.1471353545187999,Null
-0.8061553955042,-0.9111328125,-0.72009277343,0.0009128690122053196,0.03013809328979345,0.286433105465,0.04211425781,0.46643066406,0.010492348916533348,0.10217576606980092,0.5498382568318,0.41906738281,0.69445800781,0.0032785966074741274,0.05711570383385604,1.0234166928835,0.87881663395,1.08003864595,0.0014886658043349796,0.038486653210084466,Null
-0.7996270751916499,-0.82788085937,-0.77416992187,0.00015360877703946482,0.012362877219897782,0.35137939452704997,0.2939453125,0.39489746093,0.0005474101059003605,0.02333823162475809,0.5205218505827,0.47485351562,0.56762695312,0.00029788592016339005,0.01721616945091367,1.01719890308605,1.0003840037,1.04504593442,0.00011481110937873104,0.010688173549855812,lift up
-0.8148431396449002,-0.83898925781,-0.79431152343,0.00015452739243247603,0.012399788525225486,0.3384429931604,0.30786132812,0.35485839843,0.00012378535940271737,0.011098037331244827,0.54110107421435,0.50354003906,0.58386230468,0.0007441198106730473,0.02721027768361951,1.03527062014435,1.00451947938,1.07109055466,0.0005381284727976296,0.023139529607008897,lift up
-0.83400878905845,-0.95324707031,-0.79431152343,0.0013728018981470302,0.036958596951944686,0.31432861327739997,0.09509277343,0.365234375,0.0038587846289473947,0.06196362405317057,0.47560974120750005,0.40661621093,0.517578125,0.0016070448120436376,0.03998761793334806,1.0135584068877,0.98918456609,1.05399071317,8.196713204318946e-05,0.009030907838250455,lift up
-0.82219055175345,-0.94152832031,-0.77355957031,0.0014762582906924667,0.038325931159451355,0.12869567870715,0.05798339843,0.19018554687,0.0007586429672665374,0.02747452915757074,0.57166137694865,0.40576171875,0.63562011718,0.0028632998690759364,0.053375868796025766,1.01198432236195,0.97270904918,1.07058313526,0.0003186456513016626,0.01780596593968309,lift up
-0.7960595703082501,-0.82116699218,-0.78173828125,7.749798309964987e-05,0.008781258063862582,0.11806518554285,0.07983398437,0.14477539062,0.00027590726338362935,0.01656887826820848,0.61063171386335,0.58447265625,0.62426757812,9.705340402776289e-05,0.009826908822596457,1.01040116424515,0.98869162923,1.02703091169,5.930768283264448e-05,0.0076818711534678355,lift up
-0.77958496093365,-0.79760742187,-0.75170898437,0.00015642071489237227,0.012475520482846014,0.08583007812134999,0.05969238281,0.10070800781,8.355201788172135e-05,0.00911779895546687,0.6057238769495,0.56665039062,0.63439941406,0.0003940380982337126,0.019800704728431866,0.99105213873465,0.94499931191,1.02045647889,0.00046977670246694804,0.02162007906911104,lift up
-0.7911358642540001,-0.81127929687,-0.76513671875,8.964665533516923e-05,0.009444491625201083,0.0734588623009,0.05041503906,0.10339355468,0.00016540385332272788,0.0128287502920633,0.6075891113234,0.55932617187,0.63537597656,0.00031135703899432037,0.017601143536695243,1.00036700090625,0.95010442191,1.02212133296,0.00028756519282037337,0.01691529978617794,lift up
-0.8144982910115501,-1.01733398437,-0.65490722656,0.004584625484593099,0.06754037575532235,0.19889526366795,0.06481933593,0.74987792968,0.0316906627925061,0.1775731102350341,0.42259521484134993,-0.30224609375,0.63000488281,0.10746029258817297,0.32699081198901003,1.01113686785675,0.8851480731,1.13345898563,0.002183562813053146,0.04661164016624903,Null
-1.21318908691055,-1.62231445312,-0.71166992187,0.05036858947707046,0.22386769871887527,0.38646911620775,-0.18078613281,0.87866210937,0.09128175552922443,0.30137243860641655,-0.05837219238135001,-0.35668945312,0.14465332031,0.0160226908869674,0.1262639197575165,1.3176557564259,0.81875743607,1.67143150044,0.04548887386378727,0.21274733722062972,Null
-0.83619384765205,-1.61389160156,-0.55676269531,0.03447719479912231,0.18521557392705046,0.30798645019209997,0.03369140625,0.9599609375,0.03375521952760872,0.1832660454911675,0.47759277343400003,-0.24060058593,0.68273925781,0.06729065812342741,0.25875510590674394,1.0659603065412,0.85165867568,1.64626994608,0.02084898850112734,0.144030356378861,Null
-0.73916015624555,-0.79797363281,-0.67004394531,0.0005438534458971775,0.023262290916152083,0.23674194335555002,0.20874023437,0.32788085937,0.0005759412304973418,0.023938703480866606,0.64993774413615,0.58239746093,0.70776367187,0.0005255655412801084,0.02286783141388155,1.0131026798259,0.99396563565,1.04511067476,8.406947555040312e-05,0.009145989731715813,Null
-1.1146234130827002,-1.79553222656,-0.599609375,0.1295995046588298,0.35909818592626674,0.2927264404269,-0.33166503906,0.87158203125,0.0635657724533436,0.2514914384051212,0.08140014648395001,-0.56628417968,0.79443359375,0.14830804905912737,0.38414386473537715,1.2593286214458,0.76936242628,1.83131233132,0.08900250101846899,0.29758610268857755,Null
-1.19949401855045,-2.03393554687,-0.68676757812,0.11999060700241165,0.345529526911087,0.36975830077885,-0.48803710937,1.20690917968,0.1330367655654836,0.3638290556534156,-0.044556274413449996,-0.43811035156,0.30493164062,0.025536197737155205,0.15940049168201906,1.3070832872393001,0.74063544366,2.37028347857,0.1469310510521033,0.3823563727687075,stairs down
-0.21103881835785,-1.91333007812,0.7021484375,0.25166892722236134,0.5004104141464779,0.5840020751937,-0.74853515625,1.30688476562,0.3200868684706379,0.5643460234007898,-0.13372253417905003,-0.89624023437,0.51672363281,0.16210448409109768,0.4016141950562034,1.0246890155457,0.42078985951,2.23976116952,0.08410142978547325,0.28927655044359524,stairs down
-0.49616333007465,-0.71252441406,-0.34912109375,0.011323254538289714,0.1061444217356629,0.8943988037075,0.73950195312,1.19763183593,0.012702324099393729,0.11242247319329335,0.19540161132435,-0.02075195312,0.44616699218,0.01828084529765175,0.13486823596074612,1.05091803527925,0.85797219657,1.39495062198,0.022085663148749574,0.1482404628736899,stairs down
-0.5537438964811501,-0.85607910156,-0.27856445312,0.02250232150072634,0.14963224884102594,0.8119183349574499,0.53625488281,1.27990722656,0.02861403175595496,0.16873340391628205,0.25881225585510004,0.00866699218,0.51245117187,0.015187804481903874,0.12293032766365815,1.0340921449542,0.64759133753,1.48939513527,0.029601549754225718,0.17162034263296,stairs down
-0.59977722167575,-0.83532714843,-0.39685058593,0.012334156341561356,0.11078125094010065,0.7421783447222501,0.58154296875,0.92346191406,0.0063916684301185845,0.07974779048956775,0.36495727538734996,0.07543945312,0.59008789062,0.012395901702442595,0.11105819282669056,1.0315943952439002,0.8473530416,1.26975556372,0.010587281829754016,0.10263695933047338,stairs down
-0.77760009765215,-1.30627441406,-0.22619628906,0.08418256298995891,0.28941605030649065,0.7195538330038501,0.17993164062,1.16564941406,0.050188303484555566,0.22346669095668997,0.15652099609179998,-0.26586914062,0.48803710937,0.046856090524091065,0.2159208421423708,1.1352478167209,0.78980427048,1.47004580151,0.03557102472831921,0.18813072477582607,stairs down
-1.06249755859,-1.61535644531,-0.63073730468,0.06337045873818406,0.251104771847317,0.34694824218419995,-0.05603027343,0.65600585937,0.03291984299323918,0.18098409813647437,-0.1214477539042,-0.45837402343,0.17138671875,0.024022532616974412,0.15460407482951263,1.1505628777072,0.65623299258,1.68921987433,0.060241242523264016,0.2448265433131132,stairs down
-0.8956390380825501,-1.43334960937,0.62841796875,0.17963350387252078,0.42277102118423177,0.3609069824187,-0.54614257812,1.19873046875,0.09272311107388202,0.3037424822419686,-0.13360107421625,-0.47277832031,0.14025878906,0.021419676679451927,0.1459882813655078,1.08317081146785,0.33533130333,1.57585069392,0.06966913254108598,0.2632884100722638,stairs down
0.58890808105075,0.30358886718,1.0556640625,0.03351460543677246,0.1826116984467003,-0.011079101563099946,-0.9638671875,1.3046875,0.3918931628306635,0.6244467127117495,-0.47912109374620004,-0.83276367187,0.09033203125,0.04853596577032679,0.21975733421543672,1.0020113958633,0.64867420931,1.39720692115,0.04426097972005531,0.2098563194699055,stairs down
-0.67892883300525,-1.50769042968,0.64184570312,0.3264971018818711,0.5699689608851185,0.42822937011324996,-0.11633300781,0.89709472656,0.06375195455822256,0.2518594742816546,-0.36917236327794994,-0.95922851562,0.06201171875,0.05962029612234582,0.24356148020927712,1.08777105272735,0.66988786438,1.56887859619,0.04311157711323857,0.20711354187419126,stairs down
-1.09222412109,-1.32678222656,-0.91076660156,0.008738778494180102,0.09324743750746828,0.309248046871,-0.07385253906,0.64416503906,0.04156031725976319,0.2033531796492604,-0.19814697265339995,-0.29406738281,-0.06762695312,0.0031844019830146062,0.05628925273175629,1.1699787895256,0.9276394926,1.38358066796,0.012277206295187443,0.11052520193924781,stairs down
-1.0740234374956001,-1.25036621093,-0.89770507812,0.008073061554786667,0.0896253103035785,0.3197753906214,-0.08459472656,0.67761230468,0.04702066177024406,0.2162996959345825,-0.2083520507774,-0.30383300781,-0.00170898437,0.004951945914699798,0.07019391843405166,1.1600466300721999,0.9278431156,1.35178534374,0.013296963572100768,0.11502381820405835,stairs down
-1.0393676757776,-1.48107910156,-0.68420410156,0.03608123516319067,0.1894751408163475,0.3146630859346,-0.27917480468,0.63171386718,0.039396920419380074,0.19798973664633018,-0.16227783202840002,-0.51611328125,0.11706542968,0.018415875704062463,0.13536541776074917,1.1236613046042,0.76170667981,1.5097681418,0.03662507692040501,0.19089775152107732,stairs down
-1.047529296871,-1.38195800781,-0.66906738281,0.03563415510574994,0.18829759512596328,0.30526855468360004,-0.25842285156,0.65551757812,0.03918811278093007,0.19746435682680916,-0.19744140624579998,-0.43139648437,0.05505371093,0.011244504990832113,0.10577467781032449,1.1326627665365998,0.7586380208,1.4619811558,0.03236293818996759,0.17944671492957945,stairs down
-0.9792114257772,-1.4443359375,-0.67456054687,0.047326490058472497,0.21700197604671745,0.365026855465,0.17370605468,0.65161132812,0.013299559378602116,0.11503504501546086,-0.18064208984160005,-0.53039550781,0.16186523437,0.03398095284798777,0.18387780748026072,1.0820527758821998,0.75518052718,1.5217538284,0.04826828511169987,0.2191505046449617,stairs down
-0.9827490234332,-1.36486816406,-0.67663574218,0.028179918366055746,0.1674485556050737,0.338666992184,0.1904296875,0.59558105468,0.007691426948030289,0.08748125406788668,-0.2506689453088,-0.62365722656,0.03833007812,0.024400083407535595,0.15581425798205348,1.0852181708294,0.82981194211,1.42854464039,0.025726118669759674,0.15999215004621595,stairs down
-1.0808276367146001,-1.74841308593,-0.72338867187,0.0664529009738731,0.25713933279256157,0.2928759765588,-0.15209960937,0.74841308593,0.034996288840814044,0.18660468214010592,-0.24081787109080005,-0.71728515625,0.06188964843,0.03276609433333721,0.18056096992891493,1.1754814955953998,0.80393399449,1.80481195227,0.06406575498507573,0.2524785658430243,stairs down
-1.0753369140590001,-1.25793457031,-0.86157226562,0.008493151113633857,0.09192760933509414,0.23419433593560002,-0.09497070312,0.58532714843,0.03762674226139342,0.1934905903399089,-0.2569995117146,-0.42041015625,-0.037109375,0.012141685156518547,0.1099134965813387,1.1496280067132,0.87987503065,1.35118019341,0.013639127198111424,0.11649434133090271,stairs down
-1.0741625976526001,-1.36865234375,-0.84497070312,0.014726437641824621,0.12104877303639017,0.27168701171480003,-0.40283203125,0.63220214843,0.05222276323969161,0.22795098030825214,-0.22959716796499996,-0.38037109375,-0.00036621093,0.00920190344504647,0.09568643544317677,1.155694868212,0.87452069847,1.47776584435,0.020596681871698115,0.14315620301733217,stairs down
-0.9990747070274,-1.35095214843,-0.701171875,0.02456840982977325,0.15635078439401698,0.29316894530899995,-0.216796875,0.61267089843,0.02927893116224561,0.17068256063943493,-0.24988769530879998,-0.59899902343,0.05249023437,0.02389019927745181,0.1541776516913672,1.0950165149258,0.8004694634,1.45788661097,0.024954618685299083,0.15757488883661822,stairs down
-0.9839941406212002,-1.42077636718,-0.66748046875,0.04612036784081178,0.2142189674179383,0.28523193359,0.14501953125,0.53234863281,0.004531015636897325,0.06714432633300328,-0.19175048827799998,-0.49279785156,0.05834960937,0.01709949891754904,0.13043773005906417,1.0532436102132001,0.72113980138,1.45036187034,0.04468341708543793,0.2108554006896924,stairs down
-1.0020117187462,-1.36767578125,-0.72204589843,0.04049182671429438,0.20072211532544915,0.3037548828094,0.17578125,0.51342773437,0.0033458829285271247,0.057698817265906664,-0.1876416015598,-0.453125,0.10998535156,0.021795174200649105,0.147262345253788,1.0756905967791999,0.77900511555,1.40957841631,0.039897832558463825,0.1992444312789482,stairs down
-1.0898583984338002,-1.54370117187,-0.60437011718,0.04063309475440589,0.20107195050686175,0.3065209960906,-0.09338378906,0.67114257812,0.037156004096309425,0.19227642620931948,-0.1508764648414,-0.50732421875,0.12768554687,0.026095479270830415,0.16113659384036966,1.1691691002,0.65638278571,1.58674330981,0.04112455044381045,0.20228427445451957,Null
-0.02631103515620005,-1.16967773437,0.98681640625,0.7875598298835653,0.8852242827296072,0.37881347655899994,0.07580566406,1.03015136718,0.04070436448880429,0.20124821158549525,-0.2943896484338,-0.64770507812,-0.00805664062,0.02777876492134133,0.16625243185209237,1.030250918421,0.65336559691,1.50300472535,0.021309522904176485,0.1456124146137808,Null
-1.2315991210896,-2.23303222656,-0.66247558593,0.11208385607116572,0.33395124912299684,0.42759033202839997,-0.50720214843,1.205078125,0.14189402702943335,0.37574533515971453,0.03994140624959999,-0.46984863281,0.48913574218,0.056309141703878685,0.23670149132474702,1.3850873294709998,0.75252978519,2.25386948448,0.09199385172437098,0.30254567004957966,stairs up
-0.9289624023404001,-1.3203125,-0.52770996093,0.028186184922601932,0.16746717289662746,0.4135913085902,0.20166015625,0.70361328125,0.01911503766066847,0.13791106725845148,-0.19916259765379998,-0.4716796875,0.26049804687,0.0262627027796321,0.16165206236152369,1.0661097039248,0.88488210454,1.37007207925,0.010352623860251521,0.101493156128629,stairs up
-0.8860620117144,-1.20788574218,-0.51843261718,0.03310348334020864,0.18148819775265718,0.5309228515582,0.28234863281,0.88610839843,0.017374113241079767,0.13148095936246576,-0.107741699217,-0.54650878906,0.22326660156,0.027898989064426623,0.1666118066617864,1.0632790571646,0.64531067623,1.37496954168,0.02614631756155721,0.16129347777808445,stairs up
0.22488525390620004,-0.68823242187,1.2841796875,0.44177037615473846,0.6629943621735895,0.69814208984,0.26196289062,1.09619140625,0.05880861467468198,0.2418978536517192,0.094628906248,-0.46704101562,0.46862792968,0.03589936476738677,0.18899700511793788,1.0233828720938,0.62349951156,1.42159090767,0.033581754626632404,0.18279454546976845,Null
-0.56682006835565,-0.77185058593,-0.35473632812,0.010913382341754627,0.1042056401066941,0.7202874755826499,0.50048828125,1.09033203125,0.017669005624297844,0.13259208345967097,0.3650091552704,-0.00988769531,0.67102050781,0.03900394084717516,0.19699979985507418,1.0176797138174,0.8521162385,1.27037574849,0.004931776942337733,0.07005082481759971,Null
-0.5883007812458001,-0.69311523437,-0.46911621093,0.0041345943518289845,0.06413985796733447,0.7123266601526,0.65112304687,0.76086425781,0.0007197880206128788,0.02676170922250323,0.42816162109059996,0.24755859375,0.5126953125,0.005486548396242083,0.07388582850764329,1.0232146038444,0.99893930925,1.05071052681,0.0001513109043939873,0.012270059081847053,Null
-0.6185717773406,-0.74816894531,-0.5751953125,0.0015593980485180499,0.03939036758238567,0.7090600585903999,0.56994628906,0.73937988281,0.0011030357027484933,0.033128847312195314,0.3921582031214,0.18920898437,0.47033691406,0.0032913344349586224,0.05722654770981585,1.0222131386116,0.96216871115,1.05024900747,0.00019051787044101133,0.013768270809684355,Null
-0.7950219726526001,-1.21350097656,-0.12097167968,0.08982061602402425,0.2989506864750508,0.5925170898398,0.20178222656,1.00830078125,0.051471331161515706,0.22630504745963606,0.14005615234299998,-0.32080078125,0.53125,0.056991561937685224,0.23813148495735878,1.0885519179818,0.69689368364,1.34240110471,0.015174852259479269,0.12287789873765695,Null
-0.9136083984333999,-1.14465332031,0.22241210937,0.06317118786039705,0.2507096566171616,0.3591528320266001,0.04138183593,1.25207519531,0.05051506026305505,0.22419296367580266,-0.0991870117168,-0.36645507812,0.19921875,0.013163742233839601,0.11444615992976961,1.0285697333869999,0.16350137027,1.58002563785,0.041979065027688084,0.20437507113772377,Null
0.75250244140175,0.62622070312,0.90197753906,0.004156524661835837,0.06430973517692837,0.5717889404259,0.25952148437,0.79760742187,0.022704444578011573,0.15030276895360747,-0.32798889159765,-0.48559570312,-0.16418457031,0.00533679474808433,0.07287050688957714,1.01519736115645,0.77580516313,1.09653909517,0.0022013294397559536,0.046800884527508385,Null
-0.5169042968736,-1.11145019531,0.73608398437,0.47102596366320754,0.68459537965494,0.46932617187080006,0.28918457031,1.01892089843,0.028322032372441217,0.16787025409696327,-0.24158203124660002,-0.50634765625,0.0537109375,0.018064788214545786,0.134068878840218,1.0206114894368,0.61417321621,1.54117104311,0.01909235528799794,0.13782921864233993,Null
-0.7044335937458002,-1.03356933593,-0.31384277343,0.06802856684914971,0.26016999061172286,0.6179199218718,0.287109375,0.92016601562,0.057511474019824003,0.23921520990464817,0.0051220703136,-0.30187988281,0.56823730468,0.048188915179531076,0.21897025049908816,1.0233207825592001,0.90574661612,1.15904713927,0.0037716991963836996,0.061260433400375,Null
-0.8798754882765999,-1.39501953125,-0.11987304687,0.07071120200441051,0.26525015738805596,0.44099609374699994,-0.06225585937,0.90478515625,0.06825141796480326,0.2605957806162242,0.05355468750179997,-0.18920898437,0.681640625,0.048251159849110305,0.21911162463425976,1.0691770431482,0.80604210509,1.43061425965,0.014738387385409281,0.12109787549120023,Null
-0.9663012695279499,-1.07495117187,-0.82678222656,0.003393999242316671,0.058112212538373446,0.32507385253539994,0.14904785156,0.46472167968,0.0052524715957844815,0.07229252546291047,-0.11117431640255,-0.28796386718,0.04016113281,0.005645831511718897,0.07495066613553412,1.02946209965425,0.89925363209,1.14503819301,0.004013380810562033,0.06319267288625496,Null
-1.0250457763629,-1.30261230468,-0.85961914062,0.008986333722117282,0.09455898716413313,0.35491210937160006,0.16552734375,0.81359863281,0.025536921850958596,0.15940275167544568,-0.1113189697238,-0.36267089843,0.11560058593,0.01053241193823477,0.10237064949751758,1.1036665043714,0.88403274801,1.4257733384,0.015903515923208062,0.12579347496429225,Null
-0.6070659884134328,-1.18591308593,-0.1005859375,0.07292256366903833,0.26936919802533893,0.6914627302891542,0.26831054687,1.05798339843,0.023343264905398616,0.15240449225368358,0.35803465582,-0.27172851562,0.89965820312,0.081325137310351,0.28446534874596796,1.0643814910670149,0.87285175746,1.53503655799,0.018731297187050897,0.1365214512587014,Null
-0.9841363801393467,-1.08154296875,-0.84191894531,0.002753264569328604,0.052339555490854325,0.3172693300447235,0.14135742187,0.73010253906,0.009813687341946606,0.09881483861332785,0.04898454675688441,-0.19946289062,0.70983886718,0.03938644554181315,0.1979609145890158,1.0570801333726632,0.94617870935,1.28868811401,0.005887229121158002,0.07653525367582271,Null
-0.97051879882435,-1.03149414062,-0.88488769531,0.001028151666392892,0.03198454170471929,0.2805609130822,0.16760253906,0.369140625,0.0016323252984492727,0.04030091403376636,-0.07955322265499999,-0.26342773437,0.07751464843,0.009672338189175293,0.0981018679650363,1.0190459457745498,0.94590014328,1.06448689678,0.0007160979208238838,0.026693022144743454,Null
-0.972561035153,-0.98547363281,-0.96240234375,2.691331820135283e-05,0.0051748189930031436,0.25854980468329997,0.22570800781,0.29333496093,0.00028363901166590227,0.016799429055999873,-0.11127197265225,-0.14282226562,-0.07189941406,0.00038801528101232416,0.019648796518038008,1.0128030373426,1.00274684765,1.0250292768,2.9651074092982534e-05,0.005431649723842437,Null
-0.9350604248007501,-0.99768066406,-0.83227539062,0.0019013545437506943,0.043495376432811116,0.32651123046514996,0.236328125,0.42895507812,0.0027929357488371657,0.05271594701883842,0.002648315429499999,-0.09094238281,0.06994628906,0.001801175717108912,0.04233402695850429,0.9932049621764,0.90410063161,1.0612768959,0.0009663186050111485,0.0310078540370999,lift down
-0.95231262206655,-0.9921875,-0.90942382812,0.00031874461350779636,0.01780873073636236,0.3726824951129,0.34558105468,0.39489746093,0.00018641135166187642,0.01361907834266207,0.0038488769523,-0.01086425781,0.03833007812,0.0001358126140607816,0.011624695737544174,1.0227775007789999,0.97377624526,1.06790322254,0.0003721947744107596,0.019244058837436188,lift down
-0.9681299313939802,-0.99584960937,-0.94250488281,0.00012761315154854381,0.011268463082750339,0.3356885008515423,0.28356933593,0.400390625,0.0014173465730281277,0.037553895903626636,-0.05736575909119402,-0.09326171875,0.00341796875,0.0005695099594842663,0.02380496957782681,1.0271064517520399,0.99907737877,1.06967804892,0.0004114979379455556,0.020234887806037893,lift down
-0.9661810026662814,-0.97436523437,-0.96044921875,1.168315706793995e-05,0.003409464435353484,0.2960407506243216,0.27685546875,0.30944824218,5.7944860688540315e-05,0.007593002073230014,-0.08956219083271358,-0.10388183593,-0.07592773437,2.644341262268172e-05,0.005129379217041374,1.0145193263207537,1.00710864217,1.02167466909,1.3434660231437956e-05,0.0036561112368202905,lift down
-0.9197247314411001,-1.08544921875,-0.72424316406,0.007480801301742044,0.0862751255880473,0.41626831054284996,0.28527832031,0.62231445312,0.008387137224597184,0.09135207462599959,-0.04229614257665,-0.15637207031,0.11938476562,0.003481589068795757,0.05885729456449539,1.0170611249721,0.81591560367,1.2113476151,0.005830451953004294,0.07616626348482163,Null
-0.9725054931595999,-1.17114257812,-0.72546386718,0.007643721058397083,0.08720953189362443,0.29738708495705,0.10473632812,0.61633300781,0.01503808694532637,0.12232291899149456,-0.1537756347621,-0.265625,-0.04345703125,0.0036972010419760626,0.060652411631906135,1.03725480065605,0.85441048367,1.22868224137,0.008243769738062415,0.09056793521645562,Null
-0.98165771484005,-1.15270996093,-0.90466308593,0.0017376588876356945,0.041580892164520905,0.2468725585903,0.19213867187,0.37780761718,0.0016308998282614055,0.04028331328379157,-0.152539672848,-0.36767578125,-0.08056640625,0.004266290044351251,0.06515334676077272,1.0264642257512,0.943967043,1.20195980125,0.001843365680587934,0.04282696407854512,Null
-0.9784840446170647,-1.19616699218,-0.81042480468,0.005965493511239405,0.0770442368970203,0.2738365059429851,0.14526367187,0.52746582031,0.008340862951702738,0.09110085686258529,-0.14929077755383086,-0.3515625,0.02941894531,0.005473656503828333,0.07379989418636547,1.0332685191434827,0.87539475766,1.28290224539,0.006776680939254412,0.0821155655689642,Null
-0.8252905273404,-1.27136230468,0.01342773437,0.11594327058556765,0.3396521076522856,0.4806701660113001,0.14538574218,1.36755371093,0.11009196042269791,0.3309705434333763,-0.034478759764,-0.34765625,0.61303710937,0.06973013068206037,0.2634036446760942,1.0756448207555,0.3697987699,1.51370194436,0.05086613301622064,0.22497066997975432,Null
-0.7963112682518089,-1.08361816406,-0.1708984375,0.07206065674139711,0.26776583592464753,0.5279271111378392,0.23852539062,1.06262207031,0.04644841424402446,0.21497675485321735,0.09695572589412059,-0.27551269531,0.58581542968,0.054032994972039165,0.23186520304746028,1.0379874000163818,0.73248455542,1.31475858837,0.01655947465225381,0.1283598894195154,Null
-0.96466552734035,-1.08239746093,-0.76672363281,0.003717606816481351,0.06081955920917993,0.26867797851165,0.13293457031,0.55981445312,0.008433836786944659,0.09160604566844885,-0.016925048826999998,-0.28112792968,0.46520996093,0.034451191110916046,0.18514571330538945,1.0228396538383502,0.88422854966,1.13535109893,0.0032387508835796616,0.05676757110500469,Null
-0.26653076171889994,-1.03649902343,0.52380371093,0.3315270289005724,0.5743425752598091,0.7037896728479001,0.19348144531,1.11218261718,0.08200870966439407,0.28565480236829927,0.1254382324208,-0.38757324218,0.47644042968,0.06984329031615794,0.2636172867332056,1.02336884546085,0.74630986823,1.38040594509,0.015850895055457753,0.12558519251958197,Null
-0.8046752929653499,-0.86022949218,-0.73583984375,0.0009716376287861911,0.03109307705329693,0.3880743408165999,0.2890625,0.48681640625,0.0018430661312839002,0.04282348421867937,0.47596313476285007,0.35083007812,0.61083984375,0.00218974423619642,0.04667756972053535,1.0140516063748999,0.92203466196,1.08581317903,0.001330343847809447,0.03638258001530952,Null
-0.8073797273360697,-0.9853515625,-0.76025390625,0.00158423903570175,0.0397033657194762,0.39582543823512434,0.28076171875,0.47290039062,0.0020001076280074985,0.04461117397904426,0.5211697858334329,0.45422363281,0.677734375,0.002482459623723303,0.04970019193455539,1.0412451361501494,0.97322655622,1.20635637842,0.002012951634341906,0.04475418359878701,lift up
-0.8770251464814001,-0.98974609375,-0.814453125,0.0017669219153314737,0.041929551699902735,0.5125024414031,0.30444335937,0.58264160156,0.003320706903016538,0.05748133060830669,-0.0802746581998,-0.21691894531,0.48876953125,0.0121152586355085,0.10979381741396442,1.0267434226308,0.93918655801,1.12972542631,0.0011966812611019242,0.03450649003877987,lift up
-0.8686100178587939,-1.00964355468,-0.78430175781,0.001419851957180016,0.0375861280623826,0.5091565002711055,0.32092285156,0.59265136718,0.0038875201419830353,0.06219312554364544,-0.12490123959180903,-0.25903320312,-0.00512695312,0.002137112553052227,0.04611261534538746,1.01800396256799,0.95363343076,1.06848939456,0.00040104723662507123,0.019975783435905874,lift up
-0.91401794433245,-1.1005859375,-0.81591796875,0.0020025489584757023,0.04463783388207053,0.3856115722616,0.23168945312,0.53576660156,0.0041441988571022294,0.06421431197806855,0.19129333495769998,-0.06652832031,0.39318847656,0.012088356296334257,0.10967184923603954,1.01864933455115,0.93390130918,1.12471007876,0.0012217980236160233,0.03486673247521114,lift up
-0.8963159179647999,-0.94030761718,-0.85339355468,0.0004498790196854417,0.021157259382703953,0.41552856444915,0.37670898437,0.46362304687,0.0005022619821988234,0.02235510394267558,0.10972106933159999,0.03430175781,0.15124511718,0.0004651463776599364,0.02151326673872745,0.9944225983589,0.95098980173,1.04494408557,0.0006219322043335012,0.024876144060360997,lift up
-0.8271180717468657,-1.0419921875,-0.34106445312,0.033248961833318706,0.18188882349598873,0.5464255869056218,0.27697753906,1.28308105468,0.0599467733216604,0.24423048677083456,0.034055187926616916,-0.21716308593,0.31091308593,0.026180866055521532,0.16140202288251745,1.0457749929152238,0.82283114741,1.38057077675,0.009047346097880826,0.09488063251134062,Null
-1.0644873046832999,-1.48803710937,-0.40405273437,0.06429311081363034,0.2529261656285529,0.4131176757774,-0.01354980468,0.8466796875,0.049263442466922346,0.2213981148397333,-0.061529541013999996,-0.54919433593,0.2275390625,0.03521376739535712,0.18718359585813157,1.1864931066040998,0.7673602972,1.57015165767,0.04808632899002114,0.218737050691169,Null
-0.9919885253865002,-1.3935546875,-0.8115234375,0.010453202213769924,0.10198498027994649,0.3258837890588,0.06298828125,1.1083984375,0.031795580638553526,0.17786681178724928,-0.062105712889299995,-0.54895019531,0.12231445312,0.01884774821888593,0.13694345357771398,1.06776558873,0.8155415167,1.44922430751,0.014840496465576596,0.1215166407668049,Null
-0.9404707865468342,-1.44787597656,0.09020996093,0.145583051655963,0.38059358708741226,0.4511148270622111,-0.03527832031,1.16662597656,0.07801502653554582,0.27860902933379955,-0.08781824159728643,-0.49450683593,0.18713378906,0.021171404859418902,0.14513792023546462,1.1328859537655276,0.52994989743,1.54101454682,0.05609270540122204,0.23624316394291417,Null
-1.0919616699182,-1.59582519531,-0.64953613281,0.05942688272078491,0.24316609201774206,0.2763238525362,-0.06518554687,0.63684082031,0.03909322827496404,0.19722515593501053,-0.09629638671665001,-0.36108398437,0.10998535156,0.011122926700857487,0.10520129308783803,1.1519678560213,0.69418375142,1.65016895588,0.06037490989779752,0.24509801171839102,stairs down
-0.25516540527315,-1.744140625,0.71069335937,0.5003456921953358,0.7055805862793839,0.33045959472514996,-0.65051269531,1.16796875,0.26859092831007836,0.5169603211741961,-0.428233032224,-1.09729003906,0.17053222656,0.08678813522324583,0.2938608421466351,1.0493808380268501,0.21685793592,2.09106877867,0.10848487076970931,0.32854595784434903,stairs down
-0.4185651333145771,-0.6533203125,-0.17993164062,0.015458460924719022,0.1240223897484821,0.9326603068596517,0.66015625,1.52490234375,0.036190596664203274,0.1897644433092798,0.146601586789801,-0.21301269531,0.45178222656,0.017764106517836397,0.13295009544353165,1.0435787206726865,0.70210264902,1.64463476457,0.046788099424823565,0.21576682509313083,stairs down
-0.47936401366840004,-0.80895996093,-0.21606445312,0.023119901704695307,0.15167169213855244,0.8397802734338,0.63220214843,1.24011230468,0.021604694157912892,0.146617429683934,0.31018066405969996,0.07104492187,0.56909179687,0.01583478199166651,0.12552134512387994,1.0270259343197998,0.71761527881,1.4555772271,0.036891578699887226,0.19159102485864987,stairs down
-0.5618176269496,-1.36950683593,-0.17810058593,0.04414108503261208,0.20957189603438964,0.79128662109,0.33666992187,1.09997558593,0.024796013131233648,0.15707333658383105,0.27050292968420003,-0.12548828125,0.49914550781,0.025778385837589537,0.16015459377864122,1.0424629214478,0.74373459439,1.43726521627,0.022571217713808895,0.14986114114486068,stairs down
-1.049529875938593,-1.36791992187,-0.89074707031,0.010909064508281765,0.10418370836480222,0.3638413012289447,0.07250976562,0.69421386718,0.035366644778643076,0.18758710762092518,-0.14618625353010048,-0.28393554687,0.12841796875,0.009044120790517035,0.09486133536561989,1.1379201016274372,0.93102081442,1.4359547561,0.016531060175670895,0.12824971548320016,stairs down
-0.6737280273391,-1.40661621093,-0.16345214843,0.1395797856427899,0.37266860172890326,0.6623266601519,0.11669921875,1.35632324218,0.10293579418445904,0.32003299082053516,-0.04124267578060001,-0.32885742187,0.37451171875,0.02831392222802845,0.16784621716585785,1.0620106984531,0.71360686391,1.49501986096,0.03607602893935683,0.18946147047529227,stairs down
-0.5338377691579105,-0.84741210937,-0.2578125,0.019029857966254463,0.13760516725753646,0.7542493829644279,0.47607421875,1.06176757812,0.023003326268270115,0.15129071967234223,-0.441347340442189,-0.79663085937,0.0380859375,0.02454279573187124,0.1562712138255752,1.0413004435903483,0.74797633463,1.38121879464,0.030753515326700346,0.17493002247437664,stairs down
-0.5123718261672999,-0.89721679687,-0.24426269531,0.02701911925524846,0.1639634826995701,0.6639099121055,0.43579101562,0.93139648437,0.015652583883963466,0.12479711921572408,-0.5660717773396,-0.82641601562,-0.33508300781,0.01305374566639888,0.11396699933782098,1.0192275205431,0.70659722131,1.40113687782,0.04056341676047555,0.20089947654653847,stairs down
-0.5881231689416999,-0.97204589843,-0.32055664062,0.027724264644201337,0.16608926311167838,0.752702636715,0.44897460937,1.03564453125,0.023787725067635483,0.15384663285979744,-0.41588684081625,-0.77355957031,-0.25415039062,0.01267608359211645,0.11230629178347876,1.0495524481810998,0.6429810116,1.48677488873,0.047184997467611095,0.21667734648613604,stairs down
0.03635009765595001,-0.8115234375,0.79504394531,0.2988649746180878,0.5453170176557829,0.34039367675709997,-0.61889648437,1.29699707031,0.39164948433000674,0.6242525425726008,-0.5101849365202,-0.99523925781,-0.25134277343,0.0315687225958183,0.17723114563427952,1.0251968676885002,0.66035404289,1.48032912448,0.04514774105337808,0.21194811239572572,Null
-0.5283593749988,-1.48974609375,0.82385253906,0.6233425924719126,0.7875442079715609,0.34420410155875,-0.06115722656,0.79638671875,0.033513168617517554,0.1826077839918933,-0.3084283447231,-0.740234375,0.02099609375,0.05536486693591905,0.23470842038844592,1.07539637587805,0.46343347451,1.65695274936,0.04517617702646373,0.2120148488699115,Null
-0.388182366911206,-1.8408203125,0.77294921875,0.6484032477949878,0.8032091508549462,0.4417773682831658,-0.109375,1.96801757812,0.2088784897324355,0.45588249481693605,-0.32754409252944716,-0.79626464843,0.49658203125,0.08306516138073707,0.28748521441889335,1.0888407488149747,0.15997271372,2.7092924926,0.20421147530342046,0.4507607868762686,Null
-0.19025721004233828,-0.97229003906,0.75390625,0.38895018269632453,0.6221053826808782,0.3730486969432835,-0.66064453125,1.02258300781,0.332031930156231,0.5747869431417175,-0.16087652557452733,-0.78942871093,0.40979003906,0.15713908031381416,0.39542040140158574,1.0254850390995525,0.47333015131,1.44046322023,0.023494144631398765,0.15289623389639218,Null
-0.55337036132435,-0.70056152343,-0.47973632812,0.002037026712892803,0.045020457342505295,0.8060687255818,0.70593261718,0.84362792968,0.0007840708838072424,0.027931174865877127,0.30548583983954997,0.25207519531,0.396484375,0.0007391824854445458,0.02711985569683812,1.0258979993626,0.97672323811,1.10164721819,0.00036474279807705235,0.019050435272892508,Null
-0.5623547363245001,-0.61047363281,-0.51220703125,0.0006372515864734797,0.025180653854519192,0.8058074951136501,0.75451660156,0.88049316406,0.0007362173187076411,0.027065406557339994,0.2831762695272,0.16333007812,0.32446289062,0.0010099155159967615,0.03169962047748802,1.0236089349216002,0.95353425729,1.07225354853,0.0003553609269826295,0.018803832650492194,Null
-0.6038977050745999,-0.708984375,-0.36975097656,0.003257249514329857,0.05692945869019139,0.7518353271454,0.66174316406,0.81799316406,0.0017313087672091313,0.04150484578182511,0.35068603515215,0.25891113281,0.46301269531,0.0025585747183935054,0.05045574144536514,1.029179847762,0.9543859786,1.11794395445,0.0012339003870070844,0.03503899092542548,Null
-0.6377758789022,-0.77893066406,-0.49475097656,0.0032232961522612666,0.05663196686942773,0.75755798339395,0.64196777343,0.87036132812,0.002726470222649974,0.052084910209548446,0.2600885009724,0.14660644531,0.41149902343,0.003958344444144622,0.06275788971853578,1.02849896879835,0.98285303835,1.07548454614,0.00034838160856674364,0.01861826255384508,Null
-0.5092994268184924,-0.84558105468,0.20056152343,0.07374402214443974,0.27087533879783066,0.7503882940058291,0.5927734375,0.97534179687,0.006257191562832473,0.07890341177129097,0.3249431974290452,-0.01953125,0.80615234375,0.03645481667046504,0.19045111350933372,1.0177248721296484,0.81746234757,1.22555096944,0.008204718076532592,0.09035202453434311,Null
-0.8456247813616916,-1.2861328125,-0.21716308593,0.07589337156798011,0.2748013693651386,0.5068165034161691,0.17272949218,0.92297363281,0.04977330333796008,0.22254364732147344,0.061331525963034816,-0.37915039062,0.79638671875,0.07591271036717707,0.2748363789443111,1.077307214722388,0.82167818737,1.47021583701,0.015769920249301093,0.12526556962959914,Null
-0.9661035156209,-1.181640625,-0.83813476562,0.004112247510254781,0.06396629012771889,0.2586517333944,0.13220214843,0.35949707031,0.002587514147977629,0.05074028554548881,-0.21746032714439997,-0.35412597656,0.248046875,0.010080426718222282,0.100150010407544,1.0299666814808,0.90740004277,1.20552440522,0.0034277773276880446,0.05840067158046733,Null
-0.9710205078088501,-0.99194335937,-0.95263671875,6.596856380735832e-05,0.008101772706532907,0.21653747558245,0.15405273437,0.38977050781,0.0018628259007113675,0.04305243049129527,-0.20723083495719996,-0.26232910156,-0.18054199218,0.00018545388838362055,0.013584057528651093,1.0172242089863,0.9958806427,1.04567163966,7.287400681758782e-05,0.008515259055571937,Null
-0.97332275390305,-0.99963378906,-0.96337890625,4.9206305990722536e-05,0.006997161886134186,0.19990722655885002,0.14953613281,0.22326660156,0.00018260542471338896,0.013479332238275826,-0.20329284667635,-0.22192382812,-0.17724609375,6.23228618048458e-05,0.007874722058321905,1.01434789410235,1.00382004453,1.04016323154,3.9274024445132554e-05,0.006251212228272761,Null
-0.9870996093709501,-1.02856445312,-0.94494628906,0.0006386280898424178,0.025207835079459038,0.19428466796520003,0.12390136718,0.25891113281,0.0006557206352634809,0.025542944859337648,-0.22434265136305,-0.25024414062,-0.19946289062,0.00011943379200665944,0.010901221172264424,1.0311497655008,0.9891910135,1.07138865728,0.0005815788551710509,0.024055580660112857,lift up
-0.96653381347255,-1.00012207031,-0.94897460937,0.00011312663519180814,0.010609476990683805,0.2177191162069,0.18029785156,0.24133300781,0.0002577238492373901,0.01601359516133723,-0.2336285400349,-0.25134277343,-0.21423339843,0.0001171983332778544,0.010798719443131446,1.0181295466592502,1.00076337079,1.04591556966,6.97041805605921e-05,0.008328004542373228,lift up
-0.9602349853476,-0.96765136718,-0.95495605468,1.1082794420993674e-05,0.0033207499828937295,0.24125305175370002,0.23132324218,0.24938964843,2.0698476304935296e-05,0.004538169666661949,-0.23346252441094997,-0.2529296875,-0.21911621093,6.04113947751542e-05,0.007753021204748406,1.0172686484412,1.00907825117,1.02728881979,1.5317560450113208e-05,0.0039039688328498016,lift up
-0.9585736083948501,-0.96533203125,-0.95129394531,7.851366049201797e-06,0.0027950150659622193,0.24310363769075,0.22448730468,0.25646972656,7.046392178909996e-05,0.008373267115060552,-0.2352832031208,-0.24609375,-0.21643066406,4.5654258534284706e-05,0.006739880358108242,1.0165799834131999,1.01034435606,1.02374316157,9.461370647213738e-06,0.0030682346380252064,lift up
-0.9605389404255501,-0.9677734375,-0.94567871093,1.7206794284585072e-05,0.00413772404990499,0.2397515869106,0.224609375,0.25219726562,3.775494444912752e-05,0.006129124711317423,-0.24215515136255,-0.26086425781,-0.21923828125,9.253703132026211e-05,0.009595537825659426,1.01925993525595,1.01138981512,1.02510099407,1.0997479271534345e-05,0.0033079437533272346,lift up
-0.93600830077755,-0.97021484375,-0.90234375,0.000452754958793718,0.021224777596002022,0.23459289550355003,0.20007324218,0.251953125,0.00017372460784890448,0.013147470662057396,-0.23933593749655002,-0.26013183593,-0.22106933593,8.646762550969764e-05,0.009275520868509171,0.9943382703366501,0.96049408645,1.03245042522,0.0004299932900651253,0.02068437389951167,lift up
-0.9563592529259001,-0.96630859375,-0.95092773437,1.0659346855225444e-05,0.0032566931266162177,0.2469952392545,0.21765136718,0.26501464843,0.00010112372438206262,0.010030857678192444,-0.23569335937115,-0.24597167968,-0.2216796875,2.634675059026946e-05,0.005120060237664994,1.0155328435121,1.00747516072,1.02382231168,1.1569291367270128e-05,0.0033928520319096997,lift up
-0.9544177246062,-0.96545410156,-0.93762207031,2.4063681535358093e-05,0.0048931955946683045,0.25401733398105,0.24353027343,0.26416015625,2.8744892563687607e-05,0.005348005992972443,-0.2388647460901,-0.25756835937,-0.2216796875,5.659583225845034e-05,0.007504189036608691,1.016154410608,0.99506917131,1.02698979245,3.360514130651754e-05,0.005782483514890894,lift up
-0.9440930175744,-1.01574707031,-0.81530761718,0.0018772857258134842,0.04321920056160707,0.25319091796525,0.1337890625,0.61962890625,0.011526926085034105,0.10709477790540925,-0.25968017577785,-0.37854003906,-0.02502441406,0.0029179994484682713,0.053883294732467224,1.0189087917183501,0.95175730178,1.10717814486,0.0009211405288621428,0.030274326189328012,Null
-0.9739019775352,-1.19909667968,-0.76208496093,0.010442807641059591,0.10193426118265778,0.30891784667579997,0.06665039062,0.60864257812,0.02179992462497351,0.14727839285465008,-0.1436907958955,-0.29870605468,0.00708007812,0.006566012351536384,0.08082810334146596,1.04636144569745,0.85690533626,1.23633955698,0.008346501023780139,0.09113050267973527,Null
-1.0023870849575502,-1.25122070312,-0.81652832031,0.006514492151311236,0.08051037008084537,0.22759826659805,0.07153320312,0.38891601562,0.003601700513385085,0.05986394583401732,-0.18337890624615,-0.3857421875,-0.0166015625,0.009661637394877081,0.09804758644608595,1.0504531376145498,0.87897585275,1.29436461942,0.006468149637873278,0.08022349337746339,Null
-0.98757263183215,-1.2685546875,-0.85803222656,0.006327276508021602,0.0793450699507001,0.27831726073839996,0.04956054687,0.65148925781,0.017386930437823227,0.13152944835904282,-0.23465515136325002,-0.35900878906,-0.05920410156,0.004577398419625023,0.06748712045662415,1.06248094905265,0.90405464635,1.30225035613,0.007143337759176324,0.08430670833557934,Null
-0.8063922119103001,-1.07592773437,-0.44860839843,0.0341381140657184,0.1843025325257084,0.5516699218713,0.18981933593,0.93798828125,0.061724046390868245,0.24782135936781943,-0.12016845702809999,-0.26098632812,0.10681152343,0.009305722503521848,0.09622470520092144,1.03335785222255,0.88503860742,1.17748512806,0.005891611044564827,0.07656469806210955,Null
-0.9402020263631499,-1.05017089843,-0.755859375,0.003351690433277503,0.05774886995527372,0.3407818603487,0.13977050781,0.76977539062,0.01752450681470046,0.1320487950744987,-0.1317028808564,-0.32446289062,0.0380859375,0.01118658433428142,0.10550190241227887,1.0236359804796,0.91376358426,1.12430574267,0.0015373092340310846,0.03911039104714921,Null
-0.9728094482381501,-1.00598144531,-0.94934082031,0.00011575356761543022,0.010731952281731086,0.22674621581754997,0.18127441406,0.29064941406,0.00045818180256709974,0.021351601662504483,-0.19395324706635,-0.22827148437,-0.16772460937,0.0002016421654634344,0.014164531571362226,1.0178438518313002,1.00257822804,1.04638579311,8.647242630934015e-05,0.009275778359673836,Null
-0.9632696533165,-0.97875976562,-0.93481445312,5.158024179576996e-05,0.007163961235712482,0.23374267577755004,0.20227050781,0.25927734375,0.00011244861924926671,0.010577635659873163,-0.21649597167585,-0.2548828125,-0.19152832031,0.0001518907375756895,0.012293546432490953,1.014719678232,0.98556426279,1.0341703002,5.314959012344485e-05,0.0072721277610358044,Null
-0.9400695800741502,-0.97692871093,-0.90905761718,0.000346810636517109,0.018576237060678447,0.23798828124605,0.16430664062,0.30053710937,0.0007258848329254904,0.026874809929762534,-0.25392395019225,-0.2978515625,-0.22338867187,0.00025779059747792064,0.0160156687181813,1.00283166880365,0.95866004758,1.0474103299,0.0005015955332074531,0.022340267579897422,lift down
-0.94649658202675,-0.96691894531,-0.90905761718,0.000237830769489559,0.015383160131849087,0.24850646972299997,0.2099609375,0.28869628906,0.00048373781518140993,0.021938986442073913,-0.2338287353478,-0.24780273437,-0.22229003906,3.999291016649474e-05,0.006308164995913017,1.0063805653809499,0.96270658889,1.02732245709,0.00032801215239631803,0.018065771271505028,lift down
-0.9628833007774,-1.00146484375,-0.94421386718,0.0002758475464359963,0.016567085099793998,0.2609619140586,0.23962402343,0.29541015625,0.00019670850669527322,0.01399017384315852,-0.2360864257776,-0.26123046875,-0.21618652343,9.719000989083247e-05,0.009833822239667458,1.0252697628457998,1.00489889415,1.07279047254,0.00037284690375750484,0.01926091039485718,lift down
-0.9647399902307501,-0.99731445312,-0.90588378906,0.0003985672365383934,0.019914175864335974,0.27568359374585,0.16088867187,0.38208007812,0.0028855480141728508,0.053582835629537064,-0.19386474608985002,-0.27307128906,-0.07751464843,0.0033595235563359726,0.05781631204560087,1.0248987192590997,0.97369037178,1.06426261806,0.0005037871976508601,0.02238902100723937,lift down
-0.9790588378870502,-0.99182128906,-0.97082519531,2.9531817634165244e-05,0.005420715685773827,0.18584777831665,0.14672851562,0.22497558593,0.00028606094267286726,0.016870999909889838,-0.17383300780935002,-0.22241210937,-0.138671875,0.00029194262759402504,0.017043559324743614,1.01187432188635,1.00180139563,1.0277402062,2.8516351739079733e-05,0.005326703481552576,lift down
-0.9160766601532001,-1.0458984375,-0.7197265625,0.005426430372626141,0.07347991712545007,0.39555664062139995,0.16662597656,0.78466796875,0.03448263304918788,0.18523018081279827,-0.11908691406060001,-0.25524902343,0.16479492187,0.014293551540056683,0.11925637837179359,1.0290445524204,0.90902135763,1.23828888538,0.004866439535332412,0.06958525230000787,Null
-0.9517675781216001,-1.15270996093,-0.61926269531,0.009761151740226326,0.09855123531202029,0.3362402343708,0.15734863281,0.6982421875,0.02457414813990772,0.1563690423300219,-0.1294091796848,-0.29016113281,0.11120605468,0.012325266880741186,0.11074132266835844,1.037382212544,0.921991648,1.27341981302,0.00596096762387694,0.07701404278284289,Null
-0.976101074215,-1.13403320312,-0.80346679687,0.005120655573776828,0.07137963502223826,0.24241210937200003,-0.0458984375,0.65014648437,0.019076288261436043,0.13777121187000158,-0.09895751952899999,-0.35766601562,0.4541015625,0.039369678741898236,0.19792127310672983,1.0397111378783999,0.87653844837,1.16510301847,0.0035970530271133045,0.0598253103792846,Null
-0.9693432617150001,-1.24877929687,-0.81787109375,0.0060730968945788,0.0777350076227301,0.3270147705043,0.20471191406,0.43896484375,0.003106683731927846,0.05559811429597416,-0.032522583006499996,-0.23046875,0.22375488281,0.008416912878337663,0.09151408806269107,1.0293865845906,0.90717276094,1.31722304362,0.0055223186607400295,0.07412629133739479,Null
-0.987558593746,-1.14367675781,-0.83471679687,0.005872033253376935,0.0764373801690642,0.3133349609344,0.04541015625,0.63720703125,0.01646819148235717,0.12800722840896675,-0.0536889648424,-0.27221679687,0.27429199218,0.021084761313230106,0.1448424575415094,1.0552269947992,0.88068273088,1.25854354251,0.006067466672006337,0.0776989661362769,Null
-0.9924316406210001,-1.146484375,-0.89196777343,0.0019409476812665381,0.043945909284712786,0.244165039059,0.0478515625,0.47668457031,0.006967361248868537,0.0832617826053718,-0.08147949218400001,-0.21081542968,0.00927734375,0.004081762160398521,0.06372874821928114,1.0303804081238,0.9214368765,1.17150111909,0.0024295181307691094,0.049166762554750984,Null
-0.9854125976526,-1.00268554687,-0.9501953125,0.0001228342403662815,0.011055318591720915,0.1650781249966,0.09936523437,0.29052734375,0.0025477855290239864,0.05034924628411896,-0.1290844726524,-0.16882324218,-0.0302734375,0.0008648653185990459,0.029334978984244232,1.0091613207777999,0.9824814674,1.02589597329,6.312799399002484e-05,0.007925424532482454,Null
-1.004086914059,-1.05236816406,-0.97412109375,0.00048521789473777093,0.021972523871055007,0.1753979492154,0.14514160156,0.19409179687,0.00014477100204630169,0.01200196429906664,-0.1940844726526,-0.21203613281,-0.173828125,7.727602018815845e-05,0.008768673792952823,1.0377280347056,1.00971861532,1.08412603191,0.00045025997574777576,0.021166215435666266,lift up
-0.9603808593706,-0.99291992187,-0.92810058593,0.00043527634299055974,0.020811053824244627,0.176499023434,0.1513671875,0.2001953125,0.00014014378265114148,0.011808601260855825,-0.1693432617146,-0.18627929687,-0.13842773437,0.0001113389664645227,0.010525315749762574,0.9912012524889999,0.96285350642,1.0177323779,0.00036567132567010647,0.019074668255090466,lift up
-0.9802587890578,-1.01110839843,-0.95239257812,0.0001220907038621491,0.011021807943474536,0.1826611328088,0.1298828125,0.23059082031,0.00046260677990167683,0.021454457485617494,-0.1795556640588,-0.20776367187,-0.14416503906,0.00025953829586504397,0.016069866346230723,1.0135210162626,0.99595348642,1.0483146206,0.00012842578521261448,0.011304143323868086,lift up
-0.9724951171842001,-1.01281738281,-0.94641113281,0.00017773232865256312,0.013298258044168804,0.1849755859328,0.095703125,0.24633789062,0.001263092774190448,0.035451055136899605,-0.20013427733939998,-0.22058105468,-0.17028808593,0.00011850616439620896,0.010858804426557647,1.0106998359674,0.99806898656,1.03588624801,5.4095969361818526e-05,0.007336585685113303,lift up
-0.13335205078179999,-1.04614257812,0.82531738281,0.31392026731320877,0.5588834100030549,0.7592211914029999,0.15649414062,1.3896484375,0.11489160408964731,0.3381081869301586,-0.2853393554652,-0.51525878906,0.04211425781,0.021474307655337952,0.1461743346728873,1.046571118483,0.75477957667,1.49256865142,0.028484197811231425,0.16835016133694458,Null
-0.5383227539032,-1.064453125,0.228515625,0.0841337768334167,0.2893321757932388,0.791621093746,0.35375976562,1.28588867187,0.05121807714177459,0.22574761738735077,0.09658447265600001,-0.32922363281,0.59008789062,0.046316116471881434,0.2146730907438611,1.046961279609,0.77646796574,1.29252045688,0.010467953152879857,0.10205691249060721,Null
-0.8820312499963999,-1.01232910156,-0.25073242187,0.01984678021640775,0.14052596313608995,0.4948486328084,0.28833007812,1.34851074218,0.062009580171013795,0.24839390546098092,0.0006250000014000179,-0.34741210937,1.01782226562,0.10039837853834672,0.3160638964602806,1.0833051255626,0.92807298604,1.81569044714,0.03080216698545092,0.17506614792850064,Null
-0.8950390624958001,-1.49890136718,-0.07592773437,0.1548353543595979,0.3925062771317166,0.4573364257782,0.00439453125,1.04309082031,0.06369165035334776,0.25174032672891533,-0.22130371093419998,-0.96801757812,0.20361328125,0.07364343868332966,0.2706939627880774,1.1360768307622,0.43949084649,1.78320642577,0.05956370652801659,0.2434458625554694,Null
-0.27777587890460004,-0.80041503906,0.6953125,0.2015102845380383,0.44777531543771826,0.5711889648408,-0.61169433593,1.16052246093,0.23940351481712693,0.48806402985985486,-0.088403320312,-0.73986816406,0.4892578125,0.1272942073360244,0.3558900620969126,0.9653143712769999,0.40020786859,1.4730360012,0.04499150830569708,0.21158107373810306,stairs down
-0.5890844726524,-0.83483886718,-0.36389160156,0.015849046545365134,0.12557786951783467,0.8014941406214,0.57873535156,1.14758300781,0.02247787322213014,0.14955094067246616,0.1649291992156,-0.06457519531,0.50317382812,0.020823581883478687,0.14394257179188266,1.0197805349864,0.70307025696,1.41531920045,0.03569590324902627,0.18846066892797855,stairs down
-0.5810717773398,-0.86401367187,-0.34814453125,0.01916863271949175,0.13810427059252836,0.8323632812468,0.59411621093,1.21228027343,0.03163006140373989,0.17740324432411372,0.1294140624968,-0.05236816406,0.44323730468,0.013420430475373673,0.11555660224754276,1.0298308583822,0.7420694458,1.43722047368,0.05082158197058505,0.22487212824343555,stairs down
-0.6098828124966,-0.88671875,-0.38500976562,0.015869533812073917,0.12565900740899374,0.8132934570270001,0.60375976562,1.22692871093,0.016719182082609592,0.12897901446435595,0.12972412109120002,-0.10437011718,0.30017089843,0.010790947243960671,0.10361946008226866,1.032380206007,0.75205174579,1.43928327554,0.02772413556066993,0.16608887645735515,stairs down
-0.5433349609342,-0.77526855468,-0.29650878906,0.0135865205495981,0.11626946265830125,0.8377026367156,0.59399414062,1.21203613281,0.015523089362210779,0.12427982103060708,0.2551855468718,-0.04516601562,0.54309082031,0.016757686078215477,0.12912744730623463,1.0443558629238,0.80990476797,1.38175465914,0.01712265502843579,0.1305260194493558,stairs down
-0.4754565429646,-0.7763671875,-0.28784179687,0.010366459234264368,0.10156095183727379,0.7962255859338001,0.63159179687,1.11450195312,0.008774004054521133,0.09343518627502449,0.41416259765220004,0.14196777343,0.60498046875,0.012488172096123054,0.11147076403991514,1.025863197775,0.82776085026,1.27520894367,0.010693424018952843,0.10315016674178515,stairs down
-0.44502685546500004,-0.693359375,-0.22802734375,0.013599933457754454,0.11632684036999236,0.8446093749962,0.61047363281,1.26171875,0.013554002148532321,0.11613023782714672,0.2988085937462,0.09289550781,0.47106933593,0.008525785705052849,0.09210405407216116,1.0099258783681997,0.71067229763,1.38633787807,0.01633318293624561,0.12748143794907704,stairs down
-0.468659667965,-0.73559570312,-0.23315429687,0.018485542403946193,0.13562121770551414,0.8703637695276,0.56005859375,1.21044921875,0.02394274400690611,0.15434710974576615,0.3135693359334,0.09631347656,0.56384277343,0.013640100967907607,0.11649849983183504,1.048633912848,0.7190465419,1.42841779891,0.031814740091032086,0.17792039340833563,stairs down
0.12153564453119997,-0.9677734375,0.98779296875,0.2925187228823437,0.5394961809576895,0.4452392578115999,-0.50207519531,1.40795898437,0.28243855435348525,0.5301191956359605,-0.41643554687160006,-0.92553710937,0.32531738281,0.0667942901109707,0.2577989888661626,0.9848745476842001,0.45331492225,1.436873849,0.05526875288559311,0.2345046036246733,stairs down
-1.000102539059,-1.36291503906,-0.71362304687,0.028889265108516568,0.16954297031423624,0.3575537109336,0.19091796875,0.72766113281,0.011832713386020278,0.10850598978439013,-0.2046948242162,-0.54541015625,0.16369628906,0.025507633416239475,0.1593113155088435,1.0971076057366,0.7877757373,1.45209561568,0.032364905710316326,0.17945216962122454,stairs down
-0.9913894423246231,-1.42224121093,-0.7197265625,0.028403843101406145,0.16811041080640896,0.29974947981708533,0.03405761718,0.5341796875,0.013259250956557913,0.11485913788099825,-0.1810891616260804,-0.57873535156,0.10424804687,0.029320416252042125,0.17080128066529898,1.0716670559845227,0.77548909943,1.45631398195,0.02779225138893468,0.16629068474877484,Null
-0.976100940605224,-1.22583007812,-0.82751464843,0.009072247323987943,0.09501111390338571,0.33769264031024876,0.15869140625,0.59216308593,0.008801350985685453,0.09358185278052722,-0.20635470109935322,-0.40759277343,0.00793457031,0.010630526087365554,0.1028476441046472,1.0607897621889553,0.87286085668,1.28179232238,0.012677116495739223,0.11231227121030514,Null
-0.9807934570275999,-1.10095214843,-0.85400390625,0.004181889199754466,0.06450565675780454,0.28919677734,0.01538085937,0.47424316406,0.009275957717315125,0.09607069235062558,-0.1531005859342,-0.40551757812,0.11242675781,0.013399444632545,0.11546621761096305,1.0442947310294,0.88081175343,1.17042193926,0.005228030774789214,0.07212413341535043,Null
-0.9794042968716,-1.1767578125,-0.92016601562,0.002346843355293006,0.04832296698792967,0.2964892578086,0.19116210937,0.52746582031,0.00610493616841119,0.07793851094015804,-0.1330639648412,-0.24572753906,0.13110351562,0.006395534300642851,0.0797719037577745,1.0375791107666001,0.9541820621,1.20407671875,0.0030626548966918216,0.05520273201761271,Null
-0.7989929199193501,-1.38415527343,0.34619140625,0.19959627649545905,0.445643686270749,0.38198486327805,0.11193847656,1.22985839843,0.05140693091253898,0.22616342820618962,-0.17751831054544998,-0.82275390625,0.22375488281,0.09100950343904346,0.30092267432323583,1.0509398429848,0.43814701533,1.73215023177,0.052141245168681995,0.22777299871327722,Null
-0.7504449462860501,-1.05859375,-0.50988769531,0.04095038515498754,0.20185547609419124,0.5735260009722001,0.06640625,0.87902832031,0.059507362647702136,0.24333069233958882,0.09764709472585001,-0.21435546875,0.38415527343,0.04236643457040756,0.20531586007309693,1.01955865478785,0.79233748579,1.11575685945,0.004266188155230485,0.06515256874793451,Null
-0.5859387206993,-0.71691894531,-0.42419433593,0.0061679898779512,0.07833996380240064,0.7505804443327,0.64660644531,0.8427734375,0.0023013286700531276,0.04785208487310518,0.36209655761310006,0.22644042968,0.47741699218,0.0026770681588938134,0.05161087887354123,1.02395265573085,0.96952534227,1.06090815592,0.0004228326241155892,0.02051142269553751,Null
-0.5926385498011,-0.71887207031,-0.41027832031,0.00889212513060853,0.09406202477597157,0.72854370116835,0.61999511718,0.87707519531,0.005227611099384506,0.07212123850772104,0.3911523437466499,0.17895507812,0.51623535156,0.00842730839653454,0.09157058400246156,1.0280723514824999,0.97905268749,1.09133725395,0.0005005836818870466,0.022317723080045853,Null
-0.5937756347618,-0.71752929687,-0.55725097656,0.001267640373531859,0.035514816227374735,0.7479711914023,0.67565917968,0.76843261718,0.0005805060432037662,0.024033383302975622,0.35332397460579995,0.29528808593,0.41174316406,0.00042374881520050735,0.020533632682126775,1.01934089481635,1.00069657294,1.04163030401,4.0418652823788786e-05,0.006341652746695442,Null
-0.59603210448825,-0.62854003906,-0.57214355468,0.0001505293135620995,0.01223832778586556,0.7434454345667502,0.71838378906,0.76318359375,7.87690652642289e-05,0.008852978026512194,0.37238708495705,0.34375,0.40405273437,0.00035455599763093484,0.018782524261738095,1.02332223828085,1.00907596227,1.03459685703,3.0207585480529578e-05,0.005482385206561732,Null
-0.6002429199177,-0.69116210937,-0.33215332031,0.0017218635294638605,0.041391475110420274,0.7433569335901501,0.66857910156,0.99719238281,0.0013547138891868585,0.03671430674465915,0.37352783202715,0.24780273437,0.41223144531,0.0007650396392693918,0.027590114915908646,1.02746281026325,0.9974103641,1.16097676838,0.0005394145022266345,0.023167162746342104,Null
-0.36811706542585,-0.65344238281,-0.00439453125,0.035517381465133405,0.1879888149805933,0.8900183105434,0.69519042968,1.04528808593,0.00658690209205328,0.08095657837132826,0.2471044921842,-0.04455566406,0.57482910156,0.03243324717081363,0.1796415345485547,1.02883820516555,0.89481211088,1.16648375476,0.004382098175208161,0.06603171726020853,Null
-0.8464080810511,-1.22485351562,-0.400390625,0.05960599612853637,0.24353226921271376,0.41915466308165,-0.05847167968,1.01525878906,0.0944340036404121,0.3065319455166297,-0.08641052246025,-0.52758789062,0.10961914062,0.025711973248317713,0.15994815842039609,1.0341709394062,0.84346354884,1.29702818207,0.008952493351179647,0.09438077603211233,Null
-0.97895751952775,-1.08093261718,-0.92077636718,0.0005030844019652971,0.022373398936135533,0.125135498044,-0.15563964843,0.20727539062,0.004210799601396779,0.06472824424769913,-0.24219909667655004,-0.42443847656,-0.03576660156,0.001651835890519018,0.04054104970355877,1.01896150762145,0.94449534446,1.17165995214,0.0007321182113191161,0.026989954061882367,Null
-0.9702978515589501,-0.98059082031,-0.96057128906,2.4177285304584203e-05,0.004904732294229858,0.17687255859025,0.14929199218,0.19909667968,0.0001777721469594254,0.013299747600034682,-0.237161254879,-0.26452636718,-0.21154785156,0.00016130730697047038,0.012668889865951872,1.0145692361547,1.00582945695,1.02221444992,1.8079439064653186e-05,0.004241349062424587,Null
-0.98662536620675,-1.01452636718,-0.958984375,0.00035302986115897457,0.018742057300445425,0.18534362792555,0.16345214843,0.19873046875,6.23948726132235e-05,0.00787927015973925,-0.25723144530889996,-0.27136230468,-0.24340820312,5.5409292476754876e-05,0.007425109158414514,1.0363432565347501,1.00947486926,1.06722958539,0.0004130900525909377,0.020273741695305852,lift up
-0.9443554687469999,-0.97509765625,-0.91235351562,0.00043625230167260376,0.020834371604736262,0.17917663573780002,0.15954589843,0.21374511718,0.00022129827968706372,0.01483886074766619,-0.23961242675345,-0.25122070312,-0.22106933593,5.0698182911363256e-05,0.007102442678178151,0.9907238947192499,0.95669323148,1.0227496114,0.0004990001559505075,0.022282395633565863,lift up
-0.96273132323835,-0.97412109375,-0.94714355468,2.8761966371297567e-05,0.0053495940537054846,0.1612915039021,0.1103515625,0.20764160156,0.0006558621049661165,0.025545700116483126,-0.27393676757425,-0.30798339843,-0.23132324218,0.0003299142831875646,0.018118076933593883,1.0143452666140498,1.00288750579,1.02476206087,2.1154134824663672e-05,0.004587849621613633,lift up
-0.9628124999965,-1.04150390625,-0.90869140625,0.0003720478556410617,0.019240260298729234,0.1466577148403,0.11145019531,0.24304199218,0.0007540323566330583,0.027390914458080676,-0.26900695800465,-0.30249023437,-0.19165039062,0.0005580524999211237,0.023564003000795898,1.0109916725794499,0.9589185595,1.09297321528,0.0004549637674570681,0.021276488164633345,Null
-0.7710083007783,-1.17468261718,0.29309082031,0.13995716694419996,0.3731720529587913,0.54292114257425,0.24304199218,1.06787109375,0.041623357071925174,0.2035073470088133,-0.0727386474599,-0.29382324218,0.24645996093,0.018013503673122447,0.13387843797548893,1.0408628523165,0.77556065345,1.28396951094,0.009757445204205866,0.09853252243896345,Null
-0.68862731933315,-0.88891601562,-0.10107421875,0.026015220272150058,0.16088860795839247,0.5425213623003999,0.25122070312,1.09692382812,0.07824364623193635,0.27902047953649683,0.34511962890410003,-0.27294921875,0.76171875,0.09103833687793003,0.30097033939167556,1.0367282663708999,0.77556065345,1.24517972302,0.0071957696609266444,0.08461554710939362,Null
-0.7648083496052999,-0.89465332031,-0.53210449218,0.005001177199279687,0.07054198262937673,0.23007263183309998,-0.02844238281,0.56616210937,0.015459348732737946,0.1240244007809522,0.6111273193327,0.3466796875,0.88073730468,0.01568421734884984,0.12492316143176009,1.0216790376011,0.86524317545,1.14687497375,0.003495268012443709,0.05897280451514486,Null
-0.5136932373013501,-1.28442382812,0.04016113281,0.13596587241452013,0.3678125107339982,0.7013635253871499,-0.041015625,1.21447753906,0.11446823089991473,0.33748465112566994,0.284441528317,-0.28466796875,0.76110839843,0.08388400338302705,0.28890237687861264,1.0713255111789,0.75019099863,1.34022084037,0.02171526139174358,0.14699212592783623,Null
-0.92217224120775,-1.44140625,-0.54479980468,0.030719299648418373,0.1748304983410397,0.42832702636325004,0.17163085937,0.81787109375,0.04589290541018163,0.2136900579885052,-0.09305053710799999,-0.41076660156,0.27783203125,0.01753410153461115,0.13208493868317497,1.05895161671,0.89862888619,1.47899127701,0.014895613014346625,0.1217420837232339,Null
-0.9814654540986001,-1.01306152343,-0.94995117187,0.00013730226112180558,0.011688274030676923,0.1772747802695,0.11987304687,0.26110839843,0.0009717592308487481,0.031095022667534822,-0.16928222655820002,-0.21240234375,-0.13098144531,0.0002622248299756762,0.016152823462967637,1.0122060929950998,0.9820350659,1.0509966874,0.00016131932690407168,0.01266936187302073,Null
-0.9696026611299001,-1.0,-0.89270019531,0.0002649114176343055,0.016235358343631778,0.2039697265588,0.16369628906,0.28649902343,0.000600557135594232,0.02444492482942545,-0.1856237792927,-0.28540039062,-0.07861328125,0.0011621914781436945,0.03400559543300155,1.00896000214645,0.94621299382,1.05540168741,0.000207430210761374,0.014366386452673725,Null
-0.95855224608975,-1.01184082031,-0.91162109375,0.000681430077455534,0.026038873383237154,0.30192993163725,0.15100097656,0.45825195312,0.006767963223329016,0.08206170487634516,-0.06480224609234998,-0.19714355468,0.11474609375,0.011355609455872096,0.10629596139361426,1.01605337885825,0.95226190135,1.06069570097,0.0005325952297369124,0.023020257461380138,lift up
-0.9950518798788,-1.02661132812,-0.96960449218,0.0004350325686121309,0.020805225443841512,0.22419555663655,0.17883300781,0.25366210937,0.0003530890483181215,0.018743628332756997,-0.1737463378866,-0.19079589843,-0.16247558593,3.2884557947706705e-05,0.005720151672636677,1.0348172653156498,1.00161275603,1.07173641882,0.0005525726085357791,0.023448022208559516,lift up
-0.9761145019491001,-0.98449707031,-0.97033691406,1.1725058810489246e-05,0.0034156161254504,0.21078308105045004,0.19274902343,0.23803710937,0.0001903154558745413,0.013760954857682245,-0.1640960693314,-0.17504882812,-0.15173339843,3.610797526340814e-05,0.005993949898613693,1.0121143046458498,1.00425454417,1.02143654793,1.82313795642558e-05,0.004259134027761339,lift up
-0.9723864746062502,-1.02233886718,-0.9462890625,0.00012537785959117564,0.011169197388049858,0.23450317382395,0.17712402343,0.31323242187,0.0007582015952241537,0.027466535770789023,-0.17602966308180001,-0.24853515625,-0.11791992187,0.0006994312099576856,0.026380562046853687,1.01630396743035,0.98346225868,1.07388839497,0.00021605850359105187,0.01466213528354914,lift up
-0.9502447509729499,-0.97778320312,-0.91735839843,0.00043907074133762454,0.020901564238853906,0.22885192870709997,0.21203613281,0.25476074218,0.00011578584098615321,0.010733448270766596,-0.1735742187452,-0.18725585937,-0.158203125,4.978026575882734e-05,0.007037852259747515,0.9927797834864499,0.95879663622,1.02364128209,0.0004585091481314267,0.021359227570087114,lift up
-0.97145935058195,-0.97827148437,-0.96423339843,1.3141281268281078e-05,0.003616016435518466,0.22491577148025002,0.21569824218,0.24267578125,2.7855135992367385e-05,0.005264585483436046,-0.17338745116774998,-0.18908691406,-0.15991210937,5.453088026038226e-05,0.007366018317862123,1.01215889977195,1.00524230102,1.02288181565,1.305888465695652e-05,0.003604662291210057,lift up
-0.9609008789028001,-1.05517578125,-0.89794921875,0.0003555824409187698,0.018809692414129903,0.28096252441044994,0.2392578125,0.43896484375,0.0015674046083453237,0.03949136089455005,-0.14961486816065,-0.20446777343,0.02270507812,0.0033615411071180107,0.05783367013758007,1.01474497107645,0.98363583681,1.0959809099,0.0002068313216048451,0.014345632262009956,Null
-0.9634857177698999,-1.12487792968,-0.79370117187,0.008079897509407508,0.08966324788819816,0.33694091796625003,0.18664550781,0.6015625,0.013626376462332597,0.11643987538648834,-0.10585327148125,-0.29016113281,0.10375976562,0.007556846355553514,0.0867125257605598,1.0363515458186998,0.87720487587,1.22358656641,0.0072630056978549495,0.08500994453218796,Null
-0.988104248043,-1.07531738281,-0.91455078125,0.0007736095456927558,0.02774421557666196,0.21707763671450003,0.10778808593,0.34985351562,0.002859854967723085,0.0533437502701532,-0.15321411132405,-0.29016113281,-0.06298828125,0.001900526493351404,0.04348590416312678,1.0253706558048001,0.98195468722,1.1421899772,0.001073978428763598,0.032689578409942514,Null
-1.04371215819875,-1.25378417968,-0.82678222656,0.01062282593252074,0.1028091036964049,0.23918579101235,-0.17883300781,0.46142578125,0.02045933073896574,0.14267807850286923,-0.01705078124925,-0.29345703125,0.55993652343,0.041465638233734683,0.20312141699625377,1.0988733427647,0.90549393882,1.33048873814,0.011555852692731228,0.10722906988903509,Null
-0.18914550781250006,-1.51721191406,0.78833007812,0.5019889214721215,0.7067382661670166,0.36014160156100006,-0.51782226562,1.50134277343,0.31114570791132207,0.5564081050557814,-0.14033935546839998,-0.76171875,0.37634277343,0.1292154298397371,0.3585656881110328,1.0254422072381002,0.5036513105,1.52706138752,0.0716379090816237,0.2669826202886914,stairs down
-0.49649780273009997,-0.82153320312,0.33239746093,0.032877884226747034,0.18086872257417339,0.8324804687459,0.26391601562,1.17663574218,0.03998097803730138,0.19945193192123978,0.1367846679661,-0.59020996093,0.57055664062,0.04396194097331424,0.20914619592153158,1.00659978124555,0.46296771731,1.45222251308,0.061545149718445866,0.24746196469327086,stairs down
-0.54804443358995,-0.91430664062,-0.3203125,0.02360574719285966,0.1532570339556895,0.8532470703085999,0.60961914062,1.17419433593,0.021332966622427535,0.14569249050419653,0.1649066162082,-0.0302734375,0.37902832031,0.011853591697474552,0.10860167466014131,1.0358352449350499,0.73299136591,1.41051713124,0.03932778450620386,0.1978159386492222,stairs down
-0.53578430175405,-0.80895996093,-0.31774902343,0.016275568133770225,0.12725639588288432,0.8026696777308499,0.6328125,1.11633300781,0.016025835681382713,0.12627631014159307,0.22808471679360004,-0.07067871093,0.46398925781,0.01670418326404298,0.12892114779089878,1.0053829002504,0.75109007216,1.32322345452,0.02410403286536504,0.1548661121777073,stairs down
-0.5563513183553,-0.75671386718,-0.39099121093,0.010265099539597958,0.10106321804642858,0.8182482910118,0.69885253906,0.93432617187,0.0038925146023956673,0.06223384954655858,0.1779431152323,-0.07946777343,0.45458984375,0.018498507364660587,0.135668768800477,1.018832688543,0.87971970107,1.14720467161,0.005219699592818553,0.07206664342713945,stairs down
-0.568195800778,-0.88073730468,-0.38525390625,0.015054907097687161,0.12239130917756672,0.8430041503868999,0.69482421875,1.05065917968,0.007224883833943188,0.08478655208683433,0.1532385253879,-0.07995605468,0.2998046875,0.01248741121546989,0.11146736813701372,1.0394677595233,0.83606391913,1.26372841615,0.01114035608457875,0.10528368489066033,stairs down
-0.5377819824177,-0.77026367187,-0.32922363281,0.013216687055959178,0.11467608129282837,0.8335534667925001,0.65112304687,1.12353515625,0.012511255889373183,0.11157374068268176,0.1610461425757,-0.07678222656,0.37561035156,0.012824717266955074,0.11296279777263088,1.0134622125695,0.75725876348,1.39853667861,0.021317530915559275,0.145639772249827,stairs down
-0.535107421871,-0.80688476562,-0.33349609375,0.01805731998603756,0.13404116302877775,0.8606970214804,0.62890625,1.17895507812,0.01867850673098253,0.13632723204601352,0.10274291991989999,-0.10278320312,0.34423828125,0.010955124660118425,0.10440473665891713,1.0264272776827,0.72548343144,1.41800150032,0.031753732231596825,0.1777497217169097,stairs down
-0.5439172363242001,-0.81115722656,-0.32751464843,0.021765318005045404,0.14716144676857515,0.859976806637,0.57482910156,1.24060058593,0.031923561615653774,0.178224419784651,0.094638671872,-0.06176757812,0.38647460937,0.00989585757805002,0.09922891861831293,1.027575006832,0.69778172175,1.45260476469,0.05197885928330782,0.22741804015269165,stairs down
-0.546253662106,-0.86840820312,-0.35412597656,0.012778436147615443,0.11275878665043076,0.8692895507774,0.61413574218,1.22631835937,0.016270434610891886,0.1272363251506323,0.11343139648160001,-0.07189941406,0.34265136718,0.009444487410418733,0.09693949129929783,1.0383978559157,0.71750237153,1.44483616686,0.027090303891044883,0.16417932991576514,stairs down
-0.5762329101521,-0.81640625,-0.32641601562,0.015111092796299987,0.12261948186286911,0.8044128417928,0.61413574218,1.18200683593,0.015395089122874637,0.12376636731059154,0.1781176757779,-0.04064941406,0.37341308593,0.01336599205570233,0.11532199311243202,1.0149929976894,0.71750237153,1.45419694986,0.02441439292023111,0.15585994018871543,stairs down
-0.5854394531206999,-0.80944824218,-0.41198730468,0.013135085357416153,0.11432151998040033,0.8178979492153999,0.64013671875,1.15209960937,0.010317889464091736,0.10132275172324959,0.1453356933573,-0.0927734375,0.35559082031,0.015625064424966292,0.12468736544991822,1.0277353583986,0.79105315884,1.35007649244,0.015539250766660217,0.12434449932677728,stairs down
-0.5977880859332,-0.78076171875,-0.41088867187,0.011992635343593565,0.10923677112985168,0.8094042968712,0.60791015625,1.15942382812,0.012341758569761671,0.11081538601165843,0.1770922851534,-0.0546875,0.39099121093,0.013805913751235768,0.1172044546187541,1.0316334287184,0.78847259717,1.39826651545,0.017617752581280677,0.13239963677583966,stairs down
-0.5325012206994999,-0.75,-0.28515625,0.01740133893396902,0.13158393609897515,0.8530993652307001,0.55859375,1.20324707031,0.020657494767618568,0.14336738573950658,0.1103808593722,-0.10083007812,0.31335449218,0.009810037384833627,0.09879770846487007,1.0196056423009,0.6482222441,1.40636827183,0.031712434210528564,0.17763409593733948,stairs down
-0.5235510253869999,-0.78381347656,-0.27197265625,0.01923372046284614,0.13833854076334587,0.8812854003867,0.63928222656,1.19018554687,0.025547578854382132,0.15943600898200574,0.0592114257805,-0.14245605468,0.30737304687,0.013434516670025404,0.11561723092461294,1.0351922456429,0.75672138946,1.40807117579,0.04078128394915846,0.20143827225582697,stairs down
-0.5385546874965,-0.80847167968,-0.31677246093,0.01810388460830726,0.13421387851211858,0.8440332031215,0.59777832031,1.13464355468,0.023265089185978242,0.1521471778905161,0.0799890136709,-0.09020996093,0.30578613281,0.010315254361564287,0.10130981240608664,1.0111334923992998,0.74053975954,1.3683762641,0.03805659222965769,0.1945926752694186,stairs down
-0.532631835934,-0.80847167968,-0.27893066406,0.016325901165720524,0.1274530174609135,0.8759155273395,0.6484375,1.24450683593,0.015809310291102004,0.12542034818818873,0.0756994628889,-0.10864257812,0.22717285156,0.010130909715224396,0.1004004739363728,1.0363635110392,0.76587775009,1.46533505148,0.024784478313990627,0.15703679798830805,stairs down
-0.5726965332004,-0.83679199218,-0.34301757812,0.016376476028752057,0.12765027868597975,0.8561157226524,0.62573242187,1.05249023437,0.008507270459501112,0.09200398962655698,0.1481823730439,-0.06945800781,0.37390136718,0.012716054644979238,0.11248321817833246,1.0517782480209998,0.77172500141,1.33323964209,0.01411837639310258,0.11852335006713684,stairs down
-0.5584265136679,-0.74450683593,-0.384765625,0.01103187196061585,0.10476980767765479,0.8656567382773,0.6689453125,1.11340332031,0.008718946896621059,0.0931415705372094,0.1245959472636,-0.10363769531,0.30688476562,0.012230125412213893,0.11031307622015091,1.0472606174088999,0.79552675707,1.29085447428,0.01185140556839334,0.10859165962702372,stairs down
-0.546730957027,-0.74450683593,-0.39794921875,0.008313826394499586,0.09095195029534599,0.8422753906211,0.71337890625,1.03918457031,0.005345875198578681,0.07293247440328476,0.1611584472624,-0.03332519531,0.38464355468,0.011587611782540646,0.107376318262585,1.0258196539373001,0.84805262215,1.18931692812,0.00716556035005229,0.08443774362393885,stairs down
-0.5421667480426,-0.78527832031,-0.31127929687,0.011735585543104606,0.10805974095558939,0.8706982421838001,0.65563964843,1.20678710937,0.01645951897654651,0.12797351828274386,0.0984387207,-0.07800292968,0.2744140625,0.01033554846726376,0.10140942128287411,1.0371871505385,0.77935632082,1.38464371073,0.024453475215840573,0.15598463975584703,stairs down
-0.522459716793,-0.7998046875,-0.32177734375,0.017785237510911177,0.1330274833384313,0.8647009277305001,0.60290527343,1.20288085937,0.027254946763373724,0.16467747881710132,0.1297436523413,-0.03149414062,0.3818359375,0.011870744545716239,0.1086802227775949,1.0246600889102,0.68918910388,1.44291260945,0.044425469130289774,0.21024590789035189,stairs down
-0.5547644042930999,-0.82080078125,-0.35876464843,0.01645363355264527,0.12795063651612698,0.8498571777313999,0.6005859375,1.12707519531,0.020435285764382978,0.14259421213906637,0.12132446288619998,-0.00939941406,0.31823730468,0.008172488061195679,0.09017552672920576,1.0270170424739,0.74152527427,1.3813167284,0.03498742403610362,0.1865810465077391,stairs down
-0.531020507809,-0.71948242187,-0.30603027343,0.009715449953819538,0.0983202558176617,0.8592236328090999,0.63452148437,1.1181640625,0.01122458829359773,0.1056809602157822,0.1260095214819,-0.05432128906,0.3125,0.010567978355023159,0.10254334919071077,1.0257183616873,0.78980271396,1.31492735992,0.015456029560622194,0.12401108584646407,stairs down
-0.5508593749960999,-0.7939453125,-0.34228515625,0.014490334089100861,0.12007448695978408,0.8617724609338001,0.66650390625,1.13952636718,0.014998224368539797,0.12216068617479642,0.15319091796550002,-0.0595703125,0.38012695312,0.014093529584665195,0.11841901003108356,1.0440811128544,0.77475446264,1.37272817784,0.022938784096827865,0.15107643819055216,stairs down
-0.5957336425743001,-0.822265625,-0.41101074218,0.01051105367918902,0.1022668001396009,0.8245593261681,0.65222167968,1.09020996093,0.009859739324850346,0.09904766846436161,0.1732641601532,-0.06079101562,0.37097167968,0.015061423640314658,0.12241779495691418,1.0436095580566,0.8235889035,1.27834121302,0.01100630186562093,0.10464831750340196,stairs down
-0.3206420898422,-0.80712890625,0.6357421875,0.21924378838695363,0.46706270397562133,0.57733276367,-0.60522460937,1.5751953125,0.2691922186265135,0.5175386531780799,0.05805908203009999,-0.7158203125,0.53125,0.15090573935472265,0.38749349756860313,1.0160562981057,0.44254582919,1.60399359434,0.04348740051020254,0.20801433486096946,stairs down
-0.3946862792945,-0.84716796875,0.44421386718,0.07304273563774351,0.26958768881303685,0.7666540527311,-0.26049804687,1.34680175781,0.0805052247039576,0.2830242014041163,-0.378094482419,-0.85693359375,0.29174804687,0.07178829883564125,0.2672627122167682,1.0322553292258,0.68304809591,1.48676615913,0.04537652908134249,0.21248446163410578,stairs down
-0.5522180175734,-0.87719726562,-0.30432128906,0.01661159131240199,0.12856334374867504,0.7535571289030999,0.57006835937,1.11486816406,0.01886399278091113,0.13700245551451468,-0.41373291015229996,-0.67309570312,-0.28991699218,0.007968104814129228,0.08904080126581622,1.0281071091307,0.78332253209,1.45890012239,0.030341958811226775,0.17375341440435246,stairs down
-0.5207653808556999,-0.90100097656,-0.24487304687,0.022906671485257678,0.1509706532006515,0.7542114257767,0.41284179687,1.09851074218,0.03033171631592184,0.1737240850726871,-0.46673583983969996,-0.80200195312,-0.27893066406,0.01485451067515396,0.1215740026559058,1.0368911195896002,0.68661619946,1.45905990098,0.050736724586793396,0.2246843140138168,stairs down
-0.5721734619107001,-0.84912109375,-0.33239746093,0.019358291173502896,0.1387858051734232,0.7531390380821,0.52136230468,1.06958007812,0.02155852293498869,0.1464606784099874,-0.42004699706649995,-0.64172363281,-0.24975585937,0.007301655761775721,0.08523583450032529,1.0421226479874,0.78167141039,1.39811814247,0.03316394474255983,0.18165386045676826,stairs down
-0.5355517578088,-0.8828125,-0.30102539062,0.024171607015098063,0.15508303898241926,0.7312145996051999,0.47216796875,0.99499511718,0.021256905373246895,0.1454325302206513,-0.4958300781212,-0.73083496093,-0.30261230468,0.011964960230111179,0.10911065680748432,1.0412874761251998,0.74041417738,1.40147843932,0.04036667302572826,0.20041167545978855,stairs down
-0.5736676025354499,-0.91223144531,-0.35205078125,0.020786408500221586,0.14381403428636746,0.7450152587853001,0.53393554687,1.01525878906,0.014001410627057972,0.11803136690694843,-0.35552795409735,-0.57934570312,-0.20190429687,0.0092264773224967,0.09581411657936537,1.01961107264255,0.79565435305,1.33285428235,0.014803885106402343,0.12136665802793752,stairs down
-0.5750671386674,-0.86584472656,-0.36743164062,0.017993115413035502,0.13380265257449242,0.7669775390590999,0.56494140625,1.01525878906,0.01470717224032199,0.12096956798765705,-0.34641967773009996,-0.56176757812,-0.20568847656,0.007852277760104666,0.08839126863725932,1.0310028477582,0.80870131915,1.25493977339,0.0164284251458262,0.12785258315770184,stairs down
-0.49267578124485,-0.75915527343,-0.26501464843,0.013935159947949067,0.11775179042464418,0.74921264648065,0.45446777343,1.03735351562,0.021475383047766486,0.14617799469320836,-0.44018920898099995,-0.72534179687,-0.24829101562,0.016058080596204675,0.12640328394952266,1.01036957424895,0.65764101516,1.36673127327,0.028868274124024994,0.16948136402980968,stairs down
-0.6074761962856999,-0.85656738281,-0.30419921875,0.02130622400976731,0.14560114316075431,0.6535827636683001,0.38171386718,1.01574707031,0.020280259301179174,0.1420523072838779,-0.48641540526970006,-0.78173828125,-0.3427734375,0.00992266262853394,0.09936321912755881,1.0258426919229,0.73400062798,1.44992045356,0.031855352904412736,0.17803391850962186,stairs down
-0.4847857665982,-0.74877929687,-0.27600097656,0.014491181004723906,0.1200779959014152,0.8549133300745001,0.521484375,1.26953125,0.03120098996843352,0.1761958711735078,0.06946166991985002,-0.88610839843,0.46826171875,0.09342631786024791,0.3048920895512815,1.0338549724495498,0.69731370776,1.44314104837,0.040488198347270556,0.20071312203125682,stairs down
-0.4875207519492,-0.73657226562,-0.25610351562,0.014827614110507812,0.1214638878019112,0.8829968261679,0.65002441406,1.26000976562,0.0261292905349709,0.161240950388839,0.1502941894501,-0.03198242187,0.59130859375,0.018437937064958197,0.1354464742237073,1.0300733221954999,0.77263731938,1.42982272253,0.038185970240754166,0.19492316534868398,stairs down
-0.5406292724576,-0.89636230468,-0.302734375,0.013066545020549892,0.11402285865319788,0.85604492187175,0.70983886718,1.20471191406,0.015424308189676338,0.12388376265164033,0.20993530273199998,-0.08288574218,0.40515136718,0.01630581227799023,0.12737457837653587,1.0470454678395498,0.81244628068,1.51764192287,0.01752182941879605,0.13203870747512667,Null
-0.5658728027308,-0.73364257812,-0.45812988281,0.005768226964654727,0.0757587343468161,0.7975585937463999,0.69189453125,0.96728515625,0.0037799834006797682,0.06132767306588739,0.27154052733969997,0.06274414062,0.42810058593,0.011719757114686168,0.10798684331488136,1.02445426106815,0.88820594897,1.13340959269,0.0017096401410792417,0.041244295852564214,Null
-0.5555194091759,-0.61584472656,-0.46215820312,0.0019170098385005124,0.04367407456727629,0.78890502929305,0.70959472656,0.84460449218,0.0006670079623553312,0.0257618501382093,0.3249890136679,0.23840332031,0.52282714843,0.004462019640813937,0.0666311454397256,1.0214927889424001,0.98837276834,1.05104268023,0.0001548820258730703,0.01241400885063745,Null
-0.9789813232381,-1.21643066406,-0.59643554687,0.024209064915901916,0.15520315586779287,0.39863281249669996,0.041015625,0.66479492187,0.02281907934621721,0.15068173064272297,-0.0124584960936,-0.27563476562,0.29272460937,0.01746568991839854,0.1318270134259536,1.0800125941601,0.84960808589,1.31937445662,0.015288367877664487,0.12333663704786248,stairs up
-0.87563598632495,-1.28491210937,-0.03967285156,0.07547223292291873,0.2740344353512969,0.51849609374615,0.20727539062,1.06970214843,0.05161272325700475,0.22661566503823102,0.1099938964841,-0.47290039062,0.84130859375,0.08403123046572497,0.28915579591873364,1.10625745795035,0.82339990989,1.58806002981,0.03410078340047031,0.18420173583185356,stairs up
-0.9666223144496499,-1.2578125,-0.70275878906,0.0275490058593148,0.16556346465938138,0.3085394287071,0.10131835937,0.47985839843,0.007807671678948343,0.08813985092200691,-0.09491149901970002,-0.25756835937,0.01867675781,0.005322857714417256,0.0727752940622377,1.02589766961615,0.73520400553,1.3380436051,0.02670711513315812,0.16301404711708845,stairs up
-0.9361090087849501,-1.27954101562,-0.69665527343,0.02040879164775352,0.14250174626829928,0.34357788085535,0.14294433593,0.65930175781,0.016375872536297537,0.12764792663265648,-0.06835266113119999,-0.29626464843,0.12341308593,0.00878405034757579,0.0934886629267844,1.0123557159461,0.73866803769,1.32819822894,0.019592661483967683,0.1396234155739926,stairs up
-0.9287908935505002,-1.19946289062,-0.61120605468,0.020895824899455337,0.14419204477001518,0.3834008789033,0.19543457031,0.72387695312,0.017141686426329204,0.13059853748873898,-0.08660400390425,-0.31323242187,0.07397460937,0.013266066036717424,0.11489010273532632,1.0256966014705997,0.79995828534,1.27284996544,0.016223670941524413,0.1270533454373272,stairs up
-0.9887390136677,-1.20935058593,-0.74169921875,0.011471431720895134,0.10683667236623696,0.27895996093505,-0.06530761718,0.470703125,0.016296550891694538,0.1273384000890386,-0.11552490234099999,-0.31750488281,0.08435058593,0.013309224100634755,0.11507683511520284,1.04787637101275,0.82824869851,1.27219024378,0.011654705294130839,0.10768672976583597,stairs up
-1.0358819580042498,-1.17651367187,-0.94299316406,0.0026740544401701715,0.05158182013044248,0.2699572753871,0.01245117187,0.46179199218,0.013467865372109311,0.11576064117500716,-0.15735046386415003,-0.30712890625,0.02722167968,0.008466646970373479,0.09178406035647808,1.0915857813403502,0.99889368461,1.25994354884,0.0036316943277817375,0.06011269297031059,stairs up
-1.0609692382764502,-1.20678710937,-0.96154785156,0.0036146830733976387,0.059971740495258684,0.23539367675464998,-0.02819824218,0.45581054687,0.02069030703536411,0.14348120260224784,-0.16836303710564998,-0.29772949218,0.01623535156,0.010155165720939227,0.1005205943691865,1.11302467357295,1.00353318641,1.27956097621,0.004900453226448811,0.06982800985504718,stairs up
-0.9746563720666,-1.23803710937,-0.74926757812,0.017761555100829576,0.13293888567806422,0.32394287108979997,0.10473632812,0.54907226562,0.008362380589731381,0.09121715127530965,-0.10564880370725,-0.26782226562,0.07275390625,0.007168108035673598,0.08445275303680295,1.0416931536271499,0.85031992697,1.29232570411,0.0141272907121408,0.11856076188427644,stairs up
-0.9710211181595,-1.29016113281,-0.67517089843,0.02346894682623425,0.15281231001494308,0.30898986815999996,0.09106445312,0.45495605468,0.007360071167992777,0.0855761112235933,-0.10434997558445,-0.30786132812,0.08569335937,0.011851766267218043,0.1085933121139693,1.0339556990882501,0.70862444103,1.34003056816,0.022762472972023995,0.1504947195324935,stairs up
-0.96575012206715,-1.28051757812,-0.68408203125,0.024985508319222964,0.15767238432150016,0.25407836913640003,0.02355957031,0.37805175781,0.007798711137855081,0.0880892591759393,-0.10310607909809999,-0.25061035156,0.00378417968,0.004760918739614422,0.06882669646232013,1.0100164007893,0.73598603819,1.34056694598,0.025210313693141834,0.15838011909540958,stairs up
-0.9776385498011001,-1.24194335937,-0.73852539062,0.01776308346588315,0.1329446051878516,0.24428771972315,0.04248046875,0.494140625,0.010640532721408741,0.10289475233364284,-0.06541564941229999,-0.25561523437,0.08093261718,0.007684044828284694,0.08743926237190745,1.0181937452785,0.75297447298,1.26267359833,0.019016634208246872,0.13755562888230216,stairs up
-0.9682952880817501,-1.29663085937,-0.75,0.01777664245335349,0.13299533541100875,0.3051092529257,0.12268066406,0.51440429687,0.009916699681087186,0.09933335886137018,-0.0846771240224,-0.29602050781,0.24267578125,0.016863431453366936,0.12953422056005162,1.0308763240026,0.78265005546,1.3734760075,0.019583548549175312,0.13959094098984157,stairs up
-0.9652807617158501,-1.25317382812,-0.70654296875,0.014876909345876972,0.12166562702401852,0.29799499511375,0.07202148437,0.53210449218,0.011739666503535369,0.10807852779816023,-0.09190490722425,-0.28881835937,0.04296875,0.0085545348724692,0.0922592119959132,1.02369882278895,0.75942296045,1.28706610437,0.016131108956510733,0.12669038405391383,stairs up
-1.0281500244114001,-1.16552734375,-0.85180664062,0.005057315265902848,0.07093679362343165,0.2560961914032,0.00244140625,0.38391113281,0.008161580987790965,0.09011533211863566,-0.18905273437165004,-0.34680175781,0.02648925781,0.011691840773047791,0.10785815485712034,1.08491741740535,0.88093865961,1.21531796782,0.006189999066330884,0.07847960926890009,stairs up
-1.04992309569905,-1.17150878906,-0.94311523437,0.0024692883308752474,0.04956754875138442,0.23112915038680001,0.03051757812,0.42565917968,0.013209779836087813,0.11464611173915744,-0.15354736327795,-0.29858398437,0.02697753906,0.009609669602396672,0.09778354286067102,1.0960710143410501,0.99834330984,1.2157866998,0.0031423210177107955,0.055916092608677886,stairs up
-0.9791491699178999,-1.22729492187,-0.72143554687,0.011948892277835393,0.10903736889913575,0.32672363280855005,0.15283203125,0.61279296875,0.01049723501789392,0.10219955402448902,-0.10469055175634999,-0.26342773437,0.02966308593,0.008901936689738767,0.094113904425914,1.04770678942275,0.81770394054,1.27336428145,0.00999331444855165,0.09971633705822176,stairs up
-0.9643499755823999,-1.28112792968,-0.68811035156,0.021366225459562897,0.14580601610449784,0.34508911132445,0.15930175781,0.541015625,0.007913710769980249,0.08873636355029627,-0.0780529785135,-0.22534179687,0.14721679687,0.011820490214389898,0.10844993205769171,1.0382494828832,0.75849215517,1.34355504817,0.018173440420593778,0.13447145875051258,stairs up
-0.96280456542565,-1.2890625,-0.67822265625,0.023676022482553256,0.15348499069987426,0.27320068359075,0.048828125,0.388671875,0.0076017684733288675,0.08696987772189992,-0.07194091796725,-0.27233886718,0.04675292968,0.006798807166509071,0.08224848406309095,1.01133030725495,0.72244847377,1.32454070394,0.022014035334460128,0.14799988228977692,stairs up
-0.9916162109334,-1.32250976562,-0.68115234375,0.025170316312644186,0.15825443036793935,0.2284820556607,-0.04675292968,0.39624023437,0.011876068513031357,0.10870459130352407,-0.08638671874730001,-0.28259277343,0.10632324218,0.008486746507379331,0.09189294192070702,1.0316447598701999,0.7011310066,1.34912240259,0.02410450234213433,0.15486762034209622,stairs up
-0.9714190673789501,-1.29626464843,-0.69018554687,0.022662752938230918,0.15016470681734695,0.3205822753867,0.01306152343,0.65747070312,0.021656724614318588,0.14679387245810702,-0.0979119873024,-0.34484863281,0.24206542968,0.017044504173118424,0.13022780675513518,1.04541222119525,0.75457521515,1.35380510919,0.024306740311336002,0.15551593683535886,stairs up
-0.9887396240197001,-1.18908691406,-0.7021484375,0.013613066406356816,0.11638299306309763,0.27697448730089996,0.09631347656,0.39660644531,0.0049475628283087,0.07016284639442129,-0.15417114257505,-0.46032714843,0.06091308593,0.017356255382171185,0.13141337110530393,1.04843578954255,0.74878073966,1.2840618239,0.014682761131477507,0.12086913305645954,stairs up
-1.0543054988690546,-1.28637695312,-0.91711425781,0.004913373934988588,0.06992087877412481,0.26256170319915423,0.03881835937,0.48193359375,0.01505177909180667,0.12238012346256685,-0.15649778451124377,-0.31762695312,0.08923339843,0.010684011863104415,0.10310605013881714,1.1086038604366668,0.93415919143,1.32132936854,0.006516873857469854,0.08052609266239416,stairs up
-1.0667252276972865,-1.17553710937,-0.94189453125,0.0037761999806184303,0.06129619972982697,0.22775989321331663,-0.05200195312,0.43249511718,0.017220303923510243,0.13089602642150694,-0.15171990322396983,-0.33642578125,0.05773925781,0.01094674293203698,0.1043634714523455,1.1134831600803015,0.95856395137,1.23173332627,0.00475809967147513,0.06880544762498644,stairs up
-0.9996087646453501,-1.31481933593,-0.56323242187,0.022369560329329616,0.14919018911336954,0.34048645019259993,-0.07556152343,0.65051269531,0.02350353917208749,0.15292488834793064,-0.0821582031236,-0.32751464843,0.20495605468,0.01493276091611654,0.12189379439305331,1.0816867761172,0.72829932103,1.33015731822,0.01241630648212749,0.11114956117644753,stairs up
-0.9937542724571,-1.36108398437,-0.70947265625,0.026962980369973705,0.16379305683735143,0.29261230468395,-0.09350585937,0.43383789062,0.012691772367467992,0.11237576921040697,-0.070425415038,-0.39868164062,0.15051269531,0.011650110449419616,0.10766550003214827,1.05175990439365,0.78039131658,1.3933319042,0.023094167180084658,0.15158725653624133,stairs up
-0.9625048828093,-1.26647949218,-0.71801757812,0.025399619826150036,0.15897365104638972,0.28263061523110006,0.10266113281,0.49560546875,0.007741328817872266,0.08776458382390305,-0.1068786621058,-0.23913574218,0.0126953125,0.00417136812764324,0.06442446186818344,1.015830478964,0.76182085966,1.29798752393,0.022129919369974552,0.1483889139158471,stairs up
-1.003757324215,-1.37646484375,-0.74401855468,0.025673163769830875,0.15982740050123356,0.311062011715,0.08874511718,0.61315917968,0.015361019289213568,0.12362934195718871,-0.07374755859080001,-0.27087402343,0.39855957031,0.023509534165479393,0.15294439020327616,1.0748885295474,0.84778082499,1.39005917921,0.01865597098662107,0.13624496736279093,stairs up
-0.9441197333609951,-1.29321289062,-0.24780273437,0.04903984527834879,0.2208978631598906,0.3652034019318408,0.02978515625,1.17150878906,0.05284785539374885,0.2293140439224092,-0.1305083469352239,-0.62719726562,0.14733886718,0.025774390837484465,0.1601441851498142,1.0637685760783084,0.56701244931,1.48815475386,0.0373773545859444,0.19285071324201689,Null
-1.0538103113182915,-1.21887207031,-0.93798828125,0.004839038918134184,0.0693881988500285,0.2605434398527638,-0.04089355468,0.46923828125,0.012698361705320408,0.11240351792750795,-0.19173688265286432,-0.50451660156,0.14233398437,0.02567312295157023,0.1598252554619322,1.1198050328371356,0.98864241171,1.25507087931,0.004213334694333528,0.06474690848358011,Null
-1.0099932861283,-1.234375,-0.89685058593,0.004541114598272852,0.06721911205365248,0.19254089355045,0.12878417968,0.3955078125,0.0025380924415399097,0.050253377790276055,-0.1410534667939,-0.34619140625,0.23486328125,0.01363725054033807,0.1164863266123384,1.04666929416475,0.96518924257,1.24951873693,0.004096388422815882,0.06384282638403317,Null
-0.9940844726525999,-1.10595703125,-0.86791992187,0.0018598974709458627,0.043018577191617266,0.1890039062468,0.06823730468,0.32775878906,0.004189391495648611,0.06456349230153499,-0.1392285156212,-0.24780273437,0.01013183593,0.0034131208017257136,0.058275682730596,1.0249394967324,0.90254271984,1.17981904288,0.0022363021754612717,0.04717118468497442,Null
-0.9880053710902001,-1.36926269531,-0.74462890625,0.027976775774502464,0.16684391476955326,0.2694311523396,0.00244140625,0.51611328125,0.012755829299622002,0.11265899943246385,-0.1900195312464,-0.37377929687,-0.01489257812,0.0060781586470682655,0.07776739582776913,1.0503019458228,0.75326773925,1.41160321694,0.028439913479766658,0.16821924358517318,stairs down
-0.9698583984342001,-1.38818359375,-0.56408691406,0.057736340383997276,0.23968241212503952,0.271069946286,0.07702636718,0.64904785156,0.013144749926788267,0.11436357014868993,-0.14822631835545,-0.37731933593,0.02880859375,0.009877600967780372,0.09913734393729474,1.0285765707023,0.61007264134,1.52871019551,0.05875417715558148,0.2417858686313234,stairs down
-0.7977050781220001,-1.48779296875,0.12744140625,0.16168039707639636,0.40108851278865415,0.45800048827719997,0.14672851562,1.10327148437,0.08898522590828738,0.29755722101596854,-0.1064526367174,-0.39770507812,0.18640136718,0.02657175328158066,0.16260041363776648,1.042181515949,0.70135337371,1.56008081554,0.04737575878028034,0.2171149004245884,stairs down
-0.7384033203088,-1.09558105468,-0.49377441406,0.01960472605338681,0.13966639690032773,0.3882250976522,0.06762695312,0.81091308593,0.02856227657285616,0.16858073789728137,0.574062499996,0.30847167968,0.88256835937,0.016045753704176675,0.12635475826282044,1.0314640351132,0.73630831259,1.3781135431,0.02560761870549049,0.1596232458383272,stairs down
-0.7126293945282,-1.41870117187,0.49072265625,0.22874144693524173,0.4770720487521414,0.3990991210906,-0.029296875,0.88818359375,0.031646251132948736,0.17744864011111494,0.04858642578199998,-0.6103515625,0.96423339843,0.24849392570172787,0.49724385976422,1.052061210496,0.3845028246,1.57081441307,0.06933249064666223,0.2626515337732276,stairs down
-1.0730664062466,-1.52172851562,-0.81958007812,0.01798045165574171,0.13375555837969128,0.3025390624966,-0.18139648437,0.67687988281,0.038829290087830516,0.19655824489802345,-0.1849584960904,-0.42810058593,0.05102539062,0.011322471178651634,0.10614075005745144,1.1498715803804,0.83338556523,1.59018876458,0.022912504843242577,0.15098987488910098,stairs down
-1.2160449218715998,-1.71057128906,-0.66540527343,0.06700327489879912,0.2582019723478214,0.3861523437478,-0.18737792968,1.05004882812,0.08772262302377773,0.2954386736848425,-0.1049999999978,-0.37817382812,0.11694335937,0.012944755457789718,0.11349022724666988,1.3182048368201997,0.71515522617,1.75885217649,0.06841426420672707,0.26090648302733577,stairs down
-1.017910156246,-1.69799804687,-0.5595703125,0.069891343787263,0.26370795791618934,0.35306884765280006,-0.10375976562,0.99401855468,0.04732670053733058,0.21700245859124254,-0.14525146484100002,-0.46862792968,0.13916015625,0.022293944004753583,0.14893782019597915,1.1223459013882,0.65187533344,1.74085718948,0.06135757933231988,0.24708458356534163,stairs down
-0.5215942382777999,-0.82006835937,-0.26818847656,0.02055283721929407,0.14300375181511008,0.8106323242149999,0.60766601562,1.08911132812,0.021107489289960285,0.1449205018053363,-0.33600830077780003,-0.68225097656,-0.03540039062,0.019603046993551317,0.13966041586141564,1.032351417326,0.71912909959,1.46261298647,0.037481909991095706,0.1931178408152396,stairs down
-0.5987084960897999,-0.97644042968,-0.29870605468,0.027966846706857437,0.16681430536174993,0.6851733398396,0.3681640625,1.00183105468,0.02361810112109607,0.15329713179146762,-0.4701269531212,-0.80419921875,-0.2080078125,0.017225622555864923,0.13091789198992473,1.0340526390904001,0.69232437898,1.49387317831,0.04837726441506154,0.21939776227889432,stairs down
-1.2169604492150001,-2.24377441406,-0.09362792968,0.20022824458154595,0.4463486343192261,0.4118066406214,-0.23034667968,0.96984863281,0.09268073295154634,0.3036730631563962,-0.1317163085914,-0.40856933593,0.17419433593,0.019081332269572288,0.13778942487805232,1.3359820127038,0.33818945046,2.34024056586,0.1944814574362111,0.4398966357555261,Null
