avg_accX,min_accX,max_accX,var_accX,std_accX,avg_accY,min_accY,max_accY,var_accY,std_accY,avg_accZ,min_accZ,max_accZ,var_accZ,std_accZ,avg_magnitude,min_magnitude,max_magnitude,var_magnitude,std_magnitude,Label
-0.6360660475085714,-1.33996582031,-0.07727050781,0.18906681510214285,0.433707491858832,0.11862992266816327,-0.04089355468,0.25671386718,0.0049840448289526365,0.07041744122591305,-0.7034339126234693,-1.09558105468,-0.23828125,0.07419745255868865,0.27169632704044194,1.0684904716220407,0.68670304663,1.58124472764,0.038878515250025926,0.19667271157520078,Null
-0.9401342773403999,-1.25341796875,-0.51306152343,0.03376175655811148,0.183283790268864,0.2068579101528,-0.04736328125,0.53137207031,0.01117802150879942,0.10546151620973132,-0.4540698242152,-0.85070800781,-0.185546875,0.024540573993606863,0.15626218712036136,1.0761631604414001,0.5832514677,1.60534014964,0.0440481026095394,0.20935104990539624,stairs up
-0.901730957028,-1.30322265625,-0.59228515625,0.035975412801360795,0.18919708173582908,0.1826733398396,0.08361816406,0.28747558593,0.0017726075170106566,0.041996957978234606,-0.44047851562139995,-0.68469238281,-0.19921875,0.01590229398630929,0.12578864223918526,1.0264648030422001,0.71454589141,1.38859777883,0.040463981432012,0.20065308750391045,stairs up
-0.9058837890590001,-1.09045410156,-0.65771484375,0.014851359266665849,0.12156110591111172,0.176020507809,0.05480957031,0.28759765625,0.003471169615418722,0.05876915659886254,-0.4856469726518,-0.67395019531,-0.27355957031,0.015654471705375553,0.12480464473267282,1.0528304999187998,0.86216593022,1.30130036909,0.012881100021159528,0.11321084100497501,stairs up
-0.906315917965,-1.11828613281,-0.63757324218,0.01820855476748124,0.1346013075480466,0.1781372070274,0.02722167968,0.33581542968,0.004013848813931552,0.06319635725152119,-0.4883129882774,-0.697265625,-0.28161621093,0.011249604422851873,0.10579865973034636,1.0519126228424,0.82574060244,1.31845569965,0.018467803090314854,0.13555612887237256,stairs up
-0.9133056640578,-1.32604980468,-0.58374023437,0.02509265568985284,0.15801010224477288,0.16124999999620002,-0.05773925781,0.25354003906,0.0037773643665412384,0.06130642335602798,-0.4514111328087999,-0.70495605468,-0.24768066406,0.012655472012549698,0.11221494843596796,1.0377750959277998,0.74133748015,1.39924241987,0.028383441411618988,0.16805214727744747,stairs up
-0.9275463867151,-1.35864257812,-0.53820800781,0.04737333209670995,0.21710933981804284,0.16410705566025002,0.02990722656,0.25524902343,0.002618575092724037,0.051043924391257545,-0.42524963378505004,-0.6943359375,-0.22265625,0.014684798264910039,0.12087751765148674,1.0410596492432,0.64044952315,1.49886092507,0.05507513350465917,0.23409348097957763,stairs up
-0.8911938476518501,-1.11535644531,-0.62292480468,0.015796832768814998,0.12537084431785137,0.19388305663695,0.10473632812,0.28552246093,0.002677363305462622,0.05161372384294035,-0.47028381347254994,-0.64404296875,-0.24548339843,0.01194000582271823,0.10899681552047583,1.03321654222255,0.76279395096,1.3089383369,0.0182310089671249,0.13468427496292681,stairs up
-0.8972552490194999,-1.12927246093,-0.64819335937,0.016940708821947304,0.12983067926279046,0.1669970703087,0.01867675781,0.26171875,0.003008179904274915,0.05470958786861349,-0.4958618164018,-0.65966796875,-0.26635742187,0.012527616928596809,0.11164666965007879,1.0469382041213,0.83460746555,1.29873522662,0.015144185156117177,0.12275367298104196,stairs up
-0.9135473632775001,-1.33654785156,-0.63830566406,0.02632627073215765,0.16184758070016636,0.15051879882425,0.05798339843,0.24291992187,0.0016117233352818602,0.04004578278177929,-0.4633801269494,-0.64538574218,-0.20593261718,0.013721581977553991,0.11684594159690023,1.0405316646812,0.71470871155,1.47182881511,0.03084519473840648,0.17518838079254698,stairs up
-0.9127337646440501,-1.36267089843,-0.57849121093,0.04102287687508285,0.20203406269910884,0.11942749023080002,0.02990722656,0.16955566406,0.0012960253872907532,0.03591023893479824,-0.4814062499958,-0.73706054687,-0.24963378906,0.014374848849650757,0.11959504423429301,1.04354775806315,0.71504672352,1.46573428232,0.04674993676347723,0.2156761161548952,stairs up
-0.9113964843710001,-1.37097167968,-0.61560058593,0.031781754517577546,0.17782813541447726,0.156534423825,-0.02954101562,0.27905273437,0.0042873718494699006,0.06531412550300701,-0.39782287597255,-0.68054199218,-0.17822265625,0.017017523004854193,0.13012469169926943,1.0139187734379,0.69704372818,1.53466013785,0.03839151277493919,0.19544706498452336,stairs up
-0.8947204589810002,-1.12255859375,-0.63513183593,0.01426739784800645,0.11914722346226293,0.16273376464415001,0.05529785156,0.24853515625,0.0022036641652792665,0.046825696411830015,-0.49254394530780005,-0.63854980468,-0.29663085937,0.00951839741741733,0.09731806322738983,1.0400282171505,0.83194390138,1.24912599764,0.01387671919680299,0.11750461948714601,stairs up
-0.9029992675740499,-1.10046386718,-0.64404296875,0.015556361553902005,0.12441294042876928,0.14837463378515,0.02880859375,0.27087402343,0.004363101327954743,0.06588843465521828,-0.5055297851527499,-0.66418457031,-0.28308105468,0.013265171691994357,0.11488622995613697,1.05443802197835,0.86003476739,1.28584895843,0.014233409120584592,0.11900521868801245,stairs up
-0.9132818603470001,-1.28686523437,-0.65612792968,0.02445305665181214,0.15598330477507225,0.1405578613248,-0.06726074218,0.21325683593,0.003029722626633002,0.0549051364946836,-0.4864501953091,-0.72229003906,-0.25842285156,0.013396087004283576,0.11545174996188737,1.0492888068535497,0.72751298896,1.47617198684,0.03029299809188938,0.173613170875455,stairs up
-0.89911560058235,-1.42907714843,-0.57946777343,0.040320381701516514,0.20029672936173704,0.11538024902010001,-0.02453613281,0.1943359375,0.002751092020693615,0.05231956193041133,-0.42938476562145,-0.7236328125,-0.25805664062,0.013064577795194226,0.11401427501071194,1.00835954485165,0.67927124168,1.56611328524,0.04538607194792357,0.2125068036279873,stairs up
-0.8776477050746,-1.126953125,-0.61511230468,0.016240309289781308,0.12711847915756544,0.15406005859004998,0.02526855468,0.2998046875,0.005820062837462043,0.07609837398574777,-0.55151062011255,-0.7265625,-0.27917480468,0.01635064348479087,0.1275495600437999,1.057992444456,0.83127683366,1.28878481214,0.017120510535011,0.1305178454554623,Null
-0.8670562744102,-1.1123046875,-0.75170898437,0.005567886862009505,0.07443149486406582,0.1429791259728,0.060546875,0.23364257812,0.0025349327333486276,0.05022208746838272,-0.557389526364,-0.814453125,-0.20715332031,0.014063793462419791,0.11829401715686086,1.0499730028930498,0.9668931547,1.19611303786,0.002537860046284046,0.05025107706360756,Null
-0.86401855468365,-1.189453125,-0.69262695312,0.011010920857638431,0.10467027397188869,0.1818829345673,-0.11108398437,0.37683105468,0.011865518721432221,0.10865629815075176,-0.53429199218365,-0.73071289062,-0.20910644531,0.01114878363342067,0.10532350029909548,1.0461568280519,0.95535495857,1.23572688978,0.004510940556863881,0.06699541666472089,Null
-0.8201300048798,-0.89929199218,-0.77209472656,0.0004788915711858866,0.021828813832408697,0.15270263671555,0.11181640625,0.28344726562,0.0012803903836012206,0.03569297454238319,-0.59953063964445,-0.67614746093,-0.54724121093,0.0011386315573108934,0.033659150309007194,1.02809573080235,0.95368145505,1.12983866401,0.0012772867207937707,0.03564968845852375,Null
-0.81206298827855,-0.8369140625,-0.78369140625,0.00025299062079113137,0.015865864857837902,0.1549456787079,0.10363769531,0.19580078125,0.0004974273547467677,0.02224725191957501,-0.59729553222325,-0.64794921875,-0.56262207031,0.0004408599589777781,0.02094410798250642,1.02038022511305,0.98605361744,1.06004500061,0.0002270661703140277,0.01503099595710336,Null
-0.8210528564417501,-0.8330078125,-0.78759765625,7.607470767490777e-05,0.008700249084740807,0.15764343261315,0.13635253906,0.1748046875,8.696935847419389e-05,0.009302392793352843,-0.5860308837851999,-0.61303710937,-0.55895996093,0.00014176170692682335,0.011876569302293876,1.02110785659475,1.00706337284,1.03868455394,5.3737299154200026e-05,0.007312223509879128,Null
-0.8187084960895501,-0.84753417968,-0.69152832031,0.0004186956786454611,0.020410835363900072,0.1069689941371,-0.01708984375,0.17236328125,0.00242160935937705,0.04908667143512753,-0.6003369140582,-0.73889160156,-0.55895996093,0.0011468388686776603,0.0337802408862677,1.0226676699217,0.90182901538,1.06380781158,0.00024967110068312165,0.015761432205853184,Null
-0.8522863769491,-1.07067871093,-0.58483886718,0.018674075829527115,0.13631106136473106,0.1484832763638,0.00073242187,0.30078125,0.006176256120810012,0.07839244121856367,-0.57841430663645,-0.7685546875,-0.43676757812,0.005778136311791183,0.07582378011041277,1.0457373393529,0.80542963489,1.31296224628,0.02001126112636652,0.1411070686419879,Null
-0.9064562988246001,-1.59106445312,-0.52502441406,0.06724015258496739,0.25865798232809784,0.15511962890305,-0.07861328125,0.35546875,0.00993260445279567,0.09941298421499925,-0.5487524414028,-0.85217285156,-0.24169921875,0.01772641829487753,0.13280732737090656,1.0820526702905,0.63229104916,1.73625980238,0.07079503625121916,0.26540734931414967,stairs down
-0.8742346191369,-1.47302246093,-0.44763183593,0.04768373210060051,0.21781945147322704,0.13175109862865,0.02124023437,0.30480957031,0.007301540859593875,0.08523516384272342,-0.5601275634725499,-0.85229492187,-0.3017578125,0.015760351452027276,0.1252259944850395,1.0527639710418,0.54743069617,1.7069502665,0.057756106750281415,0.2397234369362537,stairs down
-0.7891791044739304,-1.31494140625,0.13745117187,0.10599803899129581,0.3247625064004132,0.13922635358109453,-0.14147949218,0.41906738281,0.02068311839429795,0.1434580681166422,-0.6081136067664179,-0.83911132812,-0.34143066406,0.017316043873731538,0.13126269234524685,1.0574324853404478,0.66194268888,1.42296716643,0.037292667082507565,0.19263211421095047,stairs down
-0.8364963243903518,-1.70690917968,-0.40954589843,0.041445909917867736,0.20307052719131313,0.16693207246874373,-0.01281738281,0.32214355468,0.006635406382933549,0.08125307767872883,-0.5137706354003516,-0.84191894531,-0.24169921875,0.016861037529527428,0.12952339054286974,1.0050232129001506,0.49757042328,1.81870168215,0.046329848524730655,0.21470220123594716,stairs down
-0.9150622558549499,-1.70690917968,-0.49743652343,0.0751565686410814,0.2734607573270359,0.1591931152314,-0.04956054687,0.56628417968,0.024892549536354357,0.1573788003152667,-0.56189453124635,-0.92443847656,-0.24694824218,0.021130432112224286,0.14499924121064622,1.1062365247867498,0.56144193638,1.81870168215,0.07559924426185724,0.2742649230954406,stairs down
-0.9298449706994001,-1.2587890625,-0.64916992187,0.023214992804620964,0.15198328145094728,0.1931500244107,0.00329589843,0.708984375,0.024619850138679955,0.1565143791732458,-0.5559814453089,-0.75659179687,-0.30590820312,0.011432624941490329,0.1066558100470053,1.1138081111386,0.82988094905,1.51526141967,0.02958451366933248,0.17157095063263425,Null
-0.85855651855115,-1.177734375,-0.65295410156,0.009698746761105945,0.09823570138855027,0.15693847655835,0.02905273437,0.326171875,0.004769678247661349,0.06888998371623442,-0.5486145019491001,-0.70642089843,-0.31420898437,0.009542520883519272,0.09744130684212766,1.0390042688831,0.86804461864,1.24806433652,0.0071234905786387364,0.08418950721880693,Null
-0.860026041662587,-0.86853027343,-0.84289550781,3.2287289698428343e-05,0.005668038145279777,0.17116019025557214,0.12438964843,0.19067382812,0.00015569767473736198,0.01244680920718885,-0.5116646989622886,-0.53442382812,-0.49340820312,8.150783121313865e-05,0.009005682629043915,1.0153721797287563,1.00351849351,1.03028151522,2.9000179649106873e-05,0.005371768810025711,Null
-0.8603828468476382,-0.87231445312,-0.84606933593,3.0378043784658773e-05,0.005497762299181705,0.18035244581959797,0.14660644531,0.2138671875,0.00019328064360206462,0.013867565903448101,-0.5161844378098994,-0.54455566406,-0.48962402343,0.0001454016462337027,0.012027925203244317,1.0195766812987437,1.00514311241,1.0385125935,6.293466806356145e-05,0.007913179730688336,Null
-0.8592095947224498,-0.87133789062,-0.84497070312,5.3214951600944144e-05,0.007276597889325713,0.17486755370645,0.13684082031,0.18957519531,0.0001610643266682383,0.012659344573669568,-0.5093646240201499,-0.53173828125,-0.48181152343,0.00011281742186732993,0.010594967425999633,1.0141516988854,0.98767614875,1.03176961436,9.437394157662082e-05,0.00969030814106227,Null
-0.8626898193317,-0.87878417968,-0.85131835937,2.985280624872327e-05,0.005450095615443793,0.18557617187115003,0.17602539062,0.20153808593,4.7769264964056476e-05,0.00689423082288635,-0.5020202636679001,-0.52575683593,-0.48095703125,0.00010167889707405328,0.010058354864921152,1.0153234993857,1.00377149456,1.03007430913,2.5149625585938713e-05,0.005002387175940005,Null
-0.8630187988243,-0.87048339843,-0.85424804687,1.3105945676324278e-05,0.003611151609658982,0.1726428222617,0.154296875,0.18493652343,4.993230701606423e-05,0.0070485917374312375,-0.5036181640587,-0.52685546875,-0.48864746093,0.00010808404366431942,0.01037032417265718,1.0140784476561,0.99965632016,1.02994462682,5.3683476015771573e-05,0.00730856064048816,Null
-0.8634804493120896,-0.87341308593,-0.85607910156,1.7219689201718833e-05,0.004139325924131597,0.17295541335950249,0.15075683593,0.18969726562,4.654582757401669e-05,0.00680545783122296,-0.5065911895556219,-0.52416992187,-0.49084472656,6.081499121959457e-05,0.0077789735231728,1.0159936253973134,1.00651883479,1.02744439215,2.774659067879163e-05,0.00525438368784543,Null
-0.8629724121054,-0.87487792968,-0.85180664062,3.786316319665715e-05,0.006137902522904209,0.17468383788689998,0.12512207031,0.23168945312,0.0004174225578822418,0.020379780300406346,-0.5081018066365999,-0.52453613281,-0.48803710937,0.00010003715754926025,0.009976821726457478,1.0168140776896,0.99848878188,1.02735742044,4.517674443702444e-05,0.00670454030600453,Null
-0.862612623660603,-0.966796875,-0.78552246093,0.0009789182116545616,0.031208957442717025,0.15923673543065328,0.06262207031,0.21862792968,0.0009591716059313469,0.03089258241249178,-0.5079468386816582,-0.59704589843,-0.43627929687,0.0009814314160129806,0.03124899358142773,1.014795079436231,0.95186059758,1.10501178152,0.0006009977338127834,0.02445358142886531,Null
-0.8584191894494001,-1.00549316406,-0.78454589843,0.0019618605414290216,0.044182023931932726,0.1447521972616,0.06262207031,0.20092773437,0.0010616011640718133,0.03250066396631697,-0.5253222656213,-0.6181640625,-0.40246582031,0.0034343589250896826,0.05845671159468547,1.0193975501224,0.92349613022,1.10265984899,0.0010596507720237356,0.03247079484958163,Null
-0.9185469138645274,-1.36669921875,-0.68090820312,0.02473207138668554,0.15687264342583285,0.16951133006502486,-0.1455078125,0.35913085937,0.013258011526131258,0.1148566553134051,-0.49931555600492533,-0.71313476562,-0.07971191406,0.01953733250128938,0.13942787326097672,1.07952267318801,0.91521180271,1.41283229404,0.01371880867921079,0.11683559346240438,Null
-0.81296569823815,-1.0400390625,-0.56896972656,0.01688101933803919,0.12960175246249178,0.072354125975,-0.18371582031,0.26879882812,0.014692357576875033,0.1209086257840633,-0.6246606445276,-0.78295898437,-0.40161132812,0.012231758215993593,0.11032043974220564,1.04557803277635,0.86416047835,1.23160878608,0.007128193378260134,0.08421729282854462,Null
-0.84179809569985,-0.99560546875,-0.654296875,0.011437936642260622,0.1066805837959716,0.11676147460725002,-0.19030761718,0.25915527343,0.01259002823108901,0.11192443026405613,-0.5655133056603,-0.78295898437,-0.33154296875,0.013673671013361024,0.11664177064111389,1.0375931929508002,0.90981358311,1.17657837192,0.0029910235236756343,0.05455335375627475,Null
-0.8258191592693969,-0.94409179687,-0.77746582031,0.0008702059562308238,0.02942504140996929,0.12213962880412059,0.05676269531,0.16918945312,0.0005631066658490034,0.023670170766411227,-0.5927703704022613,-0.65661621093,-0.40441894531,0.0014034517842316425,0.03736842601318445,1.024970710459849,0.97365756754,1.10575893893,0.0005323117111719981,0.023013838835579524,Null
-0.8195727539023,-0.8310546875,-0.80810546875,2.4189248156652526e-05,0.004905945567968448,0.1304028320283,0.11206054687,0.15002441406,8.240166021958657e-05,0.00905481374289326,-0.5890771484335,-0.60974121093,-0.57263183593,7.753937688458896e-05,0.008783602905423606,1.0177722088222,1.00496657664,1.02962691283,3.942204203975225e-05,0.006262981065718903,Null
-0.8539407454877114,-1.08154296875,-0.74682617187,0.006115799560320225,0.07800879884241294,0.14118433709960201,0.03454589843,0.33715820312,0.004737531311464713,0.06865829523040161,-0.5696092292405472,-0.80126953125,-0.41723632812,0.005751722346065683,0.07565121817925773,1.04313212600801,1.00497055041,1.19615261623,0.00201029807090301,0.044724675381305944,Null
-0.8260247802698502,-0.86535644531,-0.74328613281,0.0004698637588285739,0.02162208223170079,0.11309204101105,0.05505371093,0.15490722656,0.0003856593864838028,0.019589055351174642,-0.58414428710595,-0.80126953125,-0.49658203125,0.0015826483452337239,0.039682932143524315,1.01904058823375,0.97269629583,1.09751492741,0.00031513134155750435,0.017707503631221335,Null
-0.8277484130822,-0.84045410156,-0.81616210937,3.1102958266600864e-05,0.005563042645465506,0.126231079098,0.09252929687,0.16650390625,0.0002564152547167031,0.01597288885715792,-0.5812310790979,-0.59948730468,-0.54992675781,0.00010457810107103991,0.010200745588714814,1.01944630958745,1.00534706772,1.03972760762,5.090020192711771e-05,0.007116579298896495,Null
-0.830122291140402,-0.83740234375,-0.82238769531,1.4395571545350766e-05,0.0037846046015200174,0.13104585426768844,0.11779785156,0.14758300781,6.1548237704038e-05,0.007825531935746255,-0.5766742648751758,-0.59228515625,-0.56433105468,3.4717624066786834e-05,0.005877343247109247,1.0192714456438694,1.00591552725,1.03081927552,2.5193981368327657e-05,0.0050067333109402555,Null
-0.8288818359342001,-0.83911132812,-0.81640625,4.1079281558723796e-05,0.006393268737580971,0.1282739257774,0.11840820312,0.13842773437,2.4121724186360142e-05,0.004899093341163071,-0.5758801269493999,-0.58703613281,-0.56555175781,2.8933680533108445e-05,0.005365539314033856,1.0174472661167,1.00508515273,1.02857005246,3.2103795167000246e-05,0.0056518383019302,Null
-0.8296839775691045,-0.84204101562,-0.80749511718,4.9579998300876644e-05,0.00702376904821502,0.13181650341711443,0.07397460937,0.17846679687,0.0004064840753127122,0.020111234832309793,-0.5766704806010448,-0.60546875,-0.55639648437,0.00012958031611760767,0.011354982955864259,1.0192236505232837,0.99244203081,1.03617124639,6.614644218087706e-05,0.008112789619104995,Null
-0.8507232665974999,-0.9580078125,-0.77404785156,0.0027255005478738505,0.05207564733284149,0.12527404784735002,0.00341796875,0.27941894531,0.00517396134612373,0.07175020236482342,-0.58065795898105,-0.76550292968,-0.41552734375,0.00810646527842576,0.0898105392035569,1.0447583057696501,0.97729424336,1.11747341232,0.0009983002878754471,0.031516801653024215,Null
-0.8353332519502998,-1.08178710937,-0.7861328125,0.004818856678726506,0.06924422283001574,0.10862670898040001,0.01794433593,0.22497558593,0.0014571865465200496,0.03807756050205224,-0.5908685302701501,-0.63073730468,-0.41479492187,0.0015281173597912507,0.03899329138444579,1.03170746027045,0.9941001689,1.20098896029,0.0020621909394103414,0.045297681891166244,Null
-0.8805731201143498,-1.08178710937,-0.71337890625,0.006745708287831265,0.08192667298500599,0.15220092773095,0.04943847656,0.365234375,0.005246846985830569,0.07225380786437084,-0.5237982177695499,-0.71520996093,-0.26391601562,0.014051460785123945,0.11824213919410595,1.0468185897337,0.93449151993,1.20452116796,0.0030385440955450096,0.05498501045800832,Null
-0.6876588754282413,-0.90515136718,0.25512695312,0.10214378405499801,0.3187953868988508,0.3251321303746733,0.0966796875,1.04846191406,0.10632819657416719,0.3252597178080439,-0.5176695243757788,-0.67565917968,-0.00805664062,0.026114604346486738,0.16119359534087097,1.0382526584602012,0.98012072249,1.19075430871,0.0020166767976865646,0.04479444991767209,Null
-0.09029619966616916,-0.96508789062,0.32421875,0.23303320539250383,0.481532798687116,0.8351540636624876,0.34643554687,1.00244140625,0.037787223823046466,0.19390520283020604,-0.2154990428679602,-0.59619140625,0.01623535156,0.036041469034227155,0.18937306630831138,1.0228111509294529,0.82772069634,1.36272423412,0.011324463491864783,0.1061514148632857,Null
0.2811218261679,0.26062011718,0.29711914062,9.27307123440593e-05,0.009605574359836012,0.9655895996059001,0.94018554687,0.98779296875,9.409848021819097e-05,0.009676155632124775,-0.14764465331615,-0.2216796875,-0.05456542968,0.0030623952943767178,0.055200392370931876,1.0180067612197,0.99850630963,1.04449720933,8.734888696072228e-05,0.00932266820850762,Null
0.2706134033168,0.25415039062,0.28466796875,5.636557824378163e-05,0.007488908488729364,0.9666448974577,0.92272949218,0.99597167968,0.00016213638961736396,0.01270140573595211,-0.21319763183245002,-0.25500488281,-0.18005371093,0.00022855550463673002,0.015080209783472721,1.026360950174,0.98731933492,1.05346374864,0.00011580321219693391,0.010734253403751434,Null
0.2692687988248,0.25207519531,0.29418945312,9.548061306659288e-05,0.009746959013008104,0.9700885009735499,0.95617675781,0.97998046875,3.3723855369682123e-05,0.005792688157741078,-0.20359985351204998,-0.21850585937,-0.18420410156,7.247277689717904e-05,0.008491785030998674,1.0272280136329501,1.0127407862,1.03937396063,3.373161572292816e-05,0.0057933546106132255,Null
0.22393216079969844,0.14318847656,0.30395507812,0.0012059665762549298,0.03463966574183287,0.9698958660451757,0.90197753906,1.01794433593,0.00033821069274587025,0.018344240009497307,-0.2320887886653769,-0.31091308593,-0.16967773437,0.000578241768710404,0.02398616332761861,1.0230242454107035,0.97541817567,1.05520005663,0.00024317835693156325,0.015554946323852657,Null
0.2055172137328358,0.19213867187,0.23522949218,5.1843103628439514e-05,0.007182282209697751,0.9776040452003484,0.96008300781,1.00268554687,7.155582604866368e-05,0.008437998987561755,-0.2257171175331343,-0.25500488281,-0.16967773437,0.00022378697102407266,0.014922251941614829,1.0242887248581094,1.00437652022,1.05714975384,7.364460774393717e-05,0.008560269660509183,Null
0.19908691405845003,0.17492675781,0.22106933593,0.0001348169245256804,0.01158200500358431,0.9779724121055,0.95910644531,0.99487304687,5.456876364713967e-05,0.007368576513065734,-0.2292828369106,-0.25231933593,-0.20068359375,0.00011060381316187609,0.010490509715741496,1.0241588705641,1.00670881236,1.03568097616,3.3522503440498655e-05,0.005775369332198259,Null
0.20715698241725,0.18420410156,0.2197265625,7.977286624842918e-05,0.00890920882666845,0.9766857910120001,0.96264648437,0.99255371093,5.098982521882991e-05,0.0071228418550979885,-0.2322589111293,-0.25573730468,-0.21484375,0.00011565746335557656,0.010727496261420867,1.0251715539133999,1.01289906378,1.04183431786,4.203480110473251e-05,0.006467196231691818,Null
-0.17418823242275,-1.11608886718,0.22180175781,0.23944508336405781,0.4881064002317912,0.7976269531215999,0.1533203125,1.19274902343,0.09003719334594688,0.2993108875053114,-0.30935302734005,-0.65087890625,-0.11401367187,0.022904881155211495,0.15096475333479478,1.04989279546965,0.81367761295,1.37004110352,0.010653198274274966,0.10295597254605288,Null
-0.7876802510841792,-1.48132324218,-0.29907226562,0.06467585816828594,0.25368107483538804,0.12163365302149254,-0.3984375,0.39929199218,0.041187847631836444,0.20244241889238884,-0.6151797166468657,-1.23791503906,-0.22546386718,0.03832023454495956,0.19526798665398293,1.0452098598257213,0.58862381899,1.71630601516,0.06500738332234146,0.2543304219019372,stairs down
-0.80204162597285,-1.46459960937,-0.02966308593,0.07923313809637467,0.28077922360084406,0.05557556152134999,-0.43322753906,0.49084472656,0.0340754031730782,0.1841331750587406,-0.6969158935505502,-1.0654296875,-0.34448242187,0.03374020278729789,0.18322527602206362,1.1060084465559499,0.6693380609,1.75951488711,0.055386926634141374,0.23475517459892267,stairs down
-0.7906701660122999,-1.31701660156,-0.42431640625,0.047693607961573736,0.21784200678878687,0.0956555175771,-0.15954589843,0.42578125,0.020448245113439203,0.1426394191234387,-0.6286065673791,-1.02551269531,-0.17102050781,0.03211449315751057,0.17875659621877737,1.04010505137405,0.59151457042,1.53263875207,0.047630203642140025,0.21769715805202722,stairs down
-0.6676177978474,-1.150390625,-0.31457519531,0.03754012023634542,0.19326774080317619,-0.082923583983,-0.55700683593,0.39379882812,0.048132909060314144,0.21884296770746958,-0.7222998046838499,-1.314453125,-0.38793945312,0.028731020455620003,0.16907798601042626,1.02477072814445,0.59846059739,1.49769689657,0.03817471042779868,0.19489442494761028,stairs down
-0.8541418456993,-2.0400390625,-0.20483398437,0.13889747653049533,0.3717566262325971,0.12201660155964998,-0.57873535156,0.45178222656,0.050362868020519286,0.22385498359522107,-0.58624999999695,-1.1025390625,-0.2421875,0.03451690461772889,0.18532220615630562,1.0988769876970998,0.57176986415,2.14239354412,0.10041782260264455,0.31609450088483243,stairs down
-0.6784271240196,-1.30725097656,-0.02282714843,0.08865402211186156,0.2970029494824963,0.32545104980109996,0.01232910156,0.69116210937,0.03851009966701789,0.19574868880450466,-0.62304382323795,-0.7861328125,-0.41674804687,0.00817069298032096,0.09016562269190712,1.03182641041715,0.74562100717,1.50889956862,0.02448015432137503,0.1560697073418418,stairs down
-0.80622253417655,-0.84057617187,-0.66564941406,0.0007836861282870469,0.027924320898557436,0.1878564453085,0.12280273437,0.23010253906,0.0005991044595555734,0.024415342251498245,-0.5964465331987501,-0.72399902343,-0.54418945312,0.0011538445634774893,0.03388326047859181,1.02123304216445,0.92853787611,1.12374886507,0.0006435288356536685,0.025304370995450572,stairs down
-0.8146105956982501,-0.82702636718,-0.79772949218,5.9747604573725706e-05,0.0077103091086451955,0.2043450927696,0.17602539062,0.23962402343,0.00019128380969032986,0.013795919347469317,-0.582736206051,-0.60510253906,-0.552734375,0.00012143883835248726,0.01099234479811859,1.02232507415845,0.99778879341,1.0359912959,6.555246735928674e-05,0.00807618133912868,Null
-0.7992968749971999,-0.81799316406,-0.76416015625,0.00019512365810649978,0.013933701583425967,0.2062329101524,0.14379882812,0.2568359375,0.0005813389028511658,0.02405061762901132,-0.603686523433,-0.65417480468,-0.56042480468,0.0005516514706318458,0.023428470143794847,1.0230901647472002,0.97416402392,1.0669695376,0.0004551903963575129,0.021281786681942975,Null
-0.7866210937458,-0.89233398437,-0.69348144531,0.0017189188817951573,0.04135606711700451,0.19272949218420002,0.1181640625,0.24731445312,0.0012894415735433692,0.03581891072709571,-0.6293212890588,-0.73315429687,-0.54956054687,0.0016686772581176834,0.04074719464978043,1.0275566757536,0.94290791641,1.09824880034,0.0007473545603012133,0.027269356198849053,Null
-0.7790563964808999,-0.787109375,-0.77075195312,1.668808897885757e-05,0.004074880186454969,0.18578674316015004,0.14001464843,0.2177734375,0.00028285899019173084,0.016776313517598916,-0.6328259277307999,-0.64978027343,-0.62133789062,4.14460133706196e-05,0.006421743011345635,1.02089169769845,1.01048331516,1.03685074075,3.383652258423873e-05,0.005802356415398622,Null
-0.78549743651965,-0.93505859375,-0.5546875,0.008474740295767868,0.0918279183815523,0.14256469726235,0.0341796875,0.25915527343,0.0031887647478799452,0.05632779885758492,-0.63884948730125,-0.76123046875,-0.52160644531,0.0028871766283279704,0.05359795467353517,1.02729009192055,0.80520866701,1.16805526004,0.004619566378495724,0.0677972606128245,Null
-0.8362109374958,-1.00244140625,-0.61999511718,0.008542937585455688,0.09219665339657622,0.18027832030840002,0.00756835937,0.33569335937,0.006413830800336532,0.07988592896333402,-0.5667187499956,-0.79382324218,-0.3720703125,0.008445109051034988,0.09166724336304552,1.0365078281924,0.93605626519,1.14373737442,0.00186486080788629,0.04307593880401051,Null
-0.7730273437468,-0.87817382812,-0.55798339843,0.005822292979755822,0.076112952346214,0.134301757809,-0.15759277343,0.24206542968,0.006842836662451601,0.08251437740866341,-0.6805859374965999,-1.34985351562,-0.54272460937,0.028277589903317572,0.16773849276120548,1.0525676631114,0.93476121122,1.50411532546,0.011703291625956453,0.1079109594426195,Null
-0.7703637695271999,-1.17065429687,-0.02758789062,0.05455967870181956,0.23299545126098592,0.09540283202840001,-0.26818847656,0.28735351562,0.015941793720375616,0.1259447686558427,-0.6297290039023999,-1.09899902343,-0.30126953125,0.03116826724130912,0.17610345228047797,1.0239807281064,0.36610555531,1.582283598,0.05200554326452773,0.22747640657484697,Null
-0.808655395504,-0.83190917968,-0.76623535156,0.0002220078325384758,0.01486263076900531,0.14297790527045,0.10168457031,0.17199707031,0.00036037611263269753,0.018936056402259,-0.6131732177697,-0.75219726562,-0.56652832031,0.0013042564334672677,0.036024091262652706,1.0256081565172002,0.98275302288,1.08882780132,0.00035451409711768613,0.018781414393812243,Null
-0.7821582031213999,-0.85241699218,-0.72473144531,0.0019515394325818876,0.044065652558642296,0.12394775390180002,0.05480957031,0.23498535156,0.002217674908309836,0.04697431781056843,-0.6427319335906,-0.70947265625,-0.57360839843,0.0021500831932645117,0.04625292182444466,1.0228491816194,0.9863396219,1.06293487064,0.0003076297205688781,0.017495472899182626,Null
-0.797666015621,-0.82250976562,-0.78430175781,5.684320650781251e-05,0.007520571153527732,0.1532324218714,0.0986328125,0.18249511718,0.0001830917147443536,0.013497268470717763,-0.6144995117148,-0.64819335937,-0.59594726562,0.00011102607501160183,0.010510515907249454,1.0186254574642,1.00403620847,1.05582291275,0.00011284531388640646,0.010596277049840402,Null
-0.7952880859336,-0.80810546875,-0.77819824218,3.2711268685787336e-05,0.005705060240028881,0.1547949218708,0.11962890625,0.1669921875,0.00011534717214198092,0.010713096484269663,-0.6153466796838,-0.63781738281,-0.58801269531,0.00010394441422768237,0.010169793122603034,1.0174896483994,0.99738070806,1.0336190524,6.201196647065561e-05,0.007855056119360467,Null
-0.7907617187458,-0.84301757812,-0.7333984375,0.0005075169807324499,0.02247174661277551,0.1325097656208,0.03955078125,0.20581054687,0.001251341254229898,0.03528575559568972,-0.6230444335898,-0.69909667968,-0.51953125,0.0009467838337511492,0.03069283164816165,1.0164626516184,0.95132965878,1.05355458341,0.0005458208757189694,0.023304329454853976,Null
-0.806699218746,-0.83569335937,-0.78649902343,0.000239395160780298,0.015433670495912388,0.1489013671848,0.11437988281,0.18774414062,0.00018216557239101027,0.013463088224068623,-0.606691894528,-0.63354492187,-0.55334472656,0.0005010495173807704,0.022328104930644396,1.020726119609,1.00822846012,1.0342781373,4.672111466505599e-05,0.0068181749091476606,Null
-0.8588598632777998,-1.04052734375,-0.72973632812,0.005162682539200913,0.07167195495104699,0.17192626952639997,0.02795410156,0.28308105468,0.00429102649037859,0.06534195710205425,-0.5473193359344,-0.71850585937,-0.38598632812,0.007435158125786632,0.0860115244322393,1.0397679098330002,0.92525277968,1.15120716616,0.0024567627042722967,0.04944167160150368,Null
-0.7967285156214001,-0.99560546875,-0.71057128906,0.004807720232256836,0.06916416435622968,0.1344628906214,0.0712890625,0.21313476562,0.0012394335042382866,0.035117464838981406,-0.6311938476532,-0.70324707031,-0.48046875,0.0030792728800063357,0.05535229458302794,1.0289019440018001,0.95476467551,1.15101519147,0.0017124160688707971,0.04127776627346062,Null
-0.8743823242158001,-1.037109375,-0.65368652343,0.008043153447849928,0.08945913972652922,0.2555078124966,-0.04614257812,0.65710449218,0.019827826322380903,0.1404588451852321,-0.4669433593708,-0.78088378906,-0.20910644531,0.017202404875239906,0.13082963292336988,1.0431801509326,0.899122052,1.18573444648,0.0045105351059687646,0.06699240576691451,Null
-0.9184228515584,-1.07116699218,-0.79479980468,0.004405361947029754,0.06620676051049927,0.2488842773402,0.17687988281,0.33996582031,0.0014048203810839634,0.037387113811827515,-0.3624755859348,-0.60913085937,0.02502441406,0.027039644705911078,0.16402574944922985,1.0334249753156002,0.94854400734,1.13819022485,0.0015586597637684647,0.03938104194850134,Null
-0.8673120117154,-0.88110351562,-0.85461425781,4.170257842397523e-05,0.006441588742837853,0.23546386718340004,0.20703125,0.25854492187,0.0001575340817339191,0.012519840706864026,-0.4727050781208,-0.50109863281,-0.45007324218,0.0001296967118168798,0.011359939623862243,1.0155640338177998,0.99877408254,1.04423249936,8.083539325374185e-05,0.008968345236857975,Null
-0.8676440429646002,-0.88000488281,-0.86010742187,2.0429003774741262e-05,0.004508531773855825,0.24161621093340002,0.22607421875,0.25769042968,4.472411457458484e-05,0.006670869058954157,-0.46987548827779996,-0.48962402343,-0.45739746093,5.322143060553537e-05,0.007277040844499067,1.0159088565112,1.00838047848,1.02227359574,1.460412412715981e-05,0.003811968455604533,Null
-0.8473120117148,-0.88037109375,-0.71862792968,0.001596506929892032,0.03985629680793954,0.23596923827760002,0.19018554687,0.25732421875,0.00028108916092465044,0.016723747041857192,-0.48802490233959994,-0.57348632812,-0.46057128906,0.0007368723052253325,0.02707744344836133,1.0067153988668,0.89431475222,1.03340298426,0.000917521261284907,0.030214791989661,lift down
-0.85966186523105,-0.9248046875,-0.81921386718,0.0003569856585860388,0.018846769757523665,0.2291033935499,0.17419433593,0.29284667968,0.0005984829115288536,0.024402673971743533,-0.4688433837858,-0.53125,-0.35205078125,0.002225641176518066,0.047058612077232755,1.0070135259820998,0.92372883269,1.03317853469,0.00041202881941665285,0.020247683208692534,lift down
-0.8878833007774,-0.91259765625,-0.86254882812,0.00014203589766597675,0.011888049384892664,0.23677001952799998,0.21350097656,0.25439453125,9.14909671862431e-05,0.009541148376915217,-0.4844506835902,-0.53234863281,-0.42443847656,0.0011178422153613314,0.03335045733246435,1.0391682308819998,1.0048794167,1.0846619971,0.0005660934051912159,0.023733161149860755,lift down
-0.8728027343718,-0.96203613281,-0.71472167968,0.003134243452368679,0.05584417816663466,0.22505615234079998,0.1240234375,0.31518554687,0.00204360461708289,0.04509308809559926,-0.4751660156209999,-0.61145019531,-0.37121582031,0.004294138553687698,0.06536564740687008,1.0231532682594,0.95207398734,1.08450512448,0.0008036618842833277,0.028277969779705033,lift down
-0.8441748046838,-0.87890625,-0.7705078125,0.0008722850665057652,0.029460543803080694,0.2075854492148,0.13256835937,0.27429199218,0.0017071154907990873,0.041213831578064804,-0.5248315429653999,-0.60327148437,-0.4599609375,0.0018119165585701383,0.04246006330397174,1.0174769857812,0.96570293303,1.05329167578,0.00028232363616431845,0.016760430125253255,Null
-0.8743896484331999,-1.02075195312,-0.69677734375,0.007084269619501695,0.08395741939462043,0.18574951171479995,0.1015625,0.28723144531,0.0018477677160729108,0.04287806989000958,-0.4945312499974,-0.62646484375,-0.34765625,0.0049919974263640515,0.07047721219821504,1.0255113200164,0.87865333308,1.18034186119,0.005831399718607871,0.07617245381379566,Null
-0.9061761474572501,-1.06469726562,-0.70922851562,0.00504245618741574,0.07083250600168443,0.21425476073855002,0.107421875,0.36608886718,0.00359553973841663,0.059812724730817494,-0.4176849365201001,-0.53552246093,-0.10021972656,0.010986699072182415,0.10455508393579675,1.0287907613862002,0.87207985559,1.14579942898,0.0026504117840249956,0.05135328348903184,Null
-0.8949951171842001,-1.19470214843,-0.49572753906,0.02166589001328851,0.14682493168131244,0.23025634765280004,0.11218261718,0.42956542968,0.006754248471725512,0.08197851687708728,-0.4426342773408,-0.67565917968,0.24938964843,0.04985625025544344,0.22272621983988825,1.0579960450424,0.8070562091,1.23197649662,0.008531381272200695,0.09213427356765609,Null
-0.8875512695276001,-1.1025390625,-0.62133789062,0.0063873287961253924,0.07972071344478024,0.2677294921842,0.11474609375,0.33740234375,0.00184430642341739,0.042837890836271375,-0.4187207031212,-0.50170898437,0.05200195312,0.010792133412526439,0.10362515498402793,1.0250997909686002,0.821652807,1.14198598271,0.002866766425109029,0.053408169721340236,Null
-0.8776464843718,-0.888671875,-0.86596679687,2.723689055729723e-05,0.005205833852949087,0.26161621093399995,0.24792480468,0.27905273437,4.431492120806915e-05,0.006640282117653497,-0.44357177733979997,-0.45947265625,-0.4296875,5.16043296419317e-05,0.007165633816608412,1.0176244633986,1.00591713452,1.029891492,2.5434030408269138e-05,0.0050305924359092926,Null
-0.881050148198593,-0.8896484375,-0.873046875,1.314289678682779e-05,0.0036161930367938455,0.2580725895067337,0.24572753906,0.27905273437,4.907212798444106e-05,0.006987527057298529,-0.4359873095914069,-0.44836425781,-0.42224121093,3.8175377221076274e-05,0.006163078869740246,1.0163940143801005,1.00802105956,1.0253321095,1.6594749598975865e-05,0.00406341714539296,Null
-0.897995605465,-0.93420410156,-0.87365722656,0.0004887741954114413,0.022052898322768917,0.2553076171834,0.24267578125,0.26794433593,4.310238899597302e-05,0.006548807299882412,-0.4498120117148,-0.48510742187,-0.42687988281,0.00027599646817243184,0.01657155653013831,1.0363293615702,1.00444498709,1.0808756817,0.000737910298335156,0.027096508019364418,lift up
-0.8730371093716001,-0.9091796875,-0.83020019531,0.0002752331872435733,0.016548625964331765,0.25122070312120004,0.23828125,0.26843261718,4.400679812944116e-05,0.006617156801738489,-0.44328613280900003,-0.466796875,-0.419921875,0.00010816835277205118,0.010374367981144245,1.0109035320711999,0.96361609592,1.05066777435,0.0003090971862196582,0.017537152000497686,lift up
-0.86973022460595,-0.90808105468,-0.82971191406,0.0005635884403890306,0.023680593281991173,0.25281372069964997,0.20056152343,0.2998046875,0.0006869018601923947,0.02614320850414946,-0.4347515869107,-0.47314453125,-0.40380859375,0.00030809655524119205,0.017508742743697677,1.0051831610984001,0.96377666631,1.04997260591,0.0005683278532607359,0.0237799540368444,lift up
-0.8789526367158002,-0.92236328125,-0.85815429687,0.00014833103470570223,0.012148636941326944,0.24398681640205003,0.20202636718,0.28930664062,0.0003322131130506771,0.018181090382191706,-0.44607116698825,-0.46875,-0.42150878906,0.00012859236017540528,0.011311471980893037,1.01567191331315,0.99691233938,1.04030186731,8.386484335736082e-05,0.009134851894835188,lift up
-0.8889477539028,-1.04248046875,-0.71484375,0.0075727184872738705,0.08680354194868722,0.2012274169884,0.11669921875,0.29516601562,0.0019024683598394701,0.043508114393067794,-0.4428594970664,-0.60266113281,-0.30688476562,0.005116141111628884,0.07134816329850924,1.0182768611247,0.86018535381,1.14077555956,0.0044982131431407675,0.06690083764367277,Null
-0.92680786132465,-1.06750488281,-0.67529296875,0.008422507291716745,0.09154449604022168,0.2182977294889,0.09802246093,0.36328125,0.0040279990460530745,0.06330765396713742,-0.4480822753868,-0.58215332031,-0.29833984375,0.005682897685971967,0.07519629776486411,1.05704212745965,0.8610956912,1.21638311512,0.008167957477342563,0.09015052795162017,Null
-0.8820715331993,-1.0966796875,-0.70568847656,0.006333819212884354,0.07938608263933881,0.2292590331996,0.02612304687,0.53479003906,0.011742118793349654,0.10808981542857267,-0.4946350097624,-0.67919921875,-0.21691894531,0.010459662644544445,0.10201649048718409,1.0494998425381,0.97979090538,1.17252084101,0.002227829175181346,0.04708173774729899,Null
-0.9863562011676001,-1.47546386718,-0.55798339843,0.044190829230063816,0.20968994988771755,0.29992858886359997,0.01428222656,0.83911132812,0.03455643430392203,0.1854282937752554,-0.43991394042500004,-0.6494140625,-0.01391601562,0.03385808800921698,0.18354508320620005,1.15208334003515,0.73679931701,1.69598183844,0.041332956163246976,0.20279618187340398,Null
-0.8870113506951256,-1.53491210937,-0.546875,0.03872831178118925,0.1963000182096858,0.19734598284,0.06018066406,0.3798828125,0.0076240915815008236,0.08709638088636824,-0.5550438962354773,-0.74963378906,-0.32800292968,0.012552469872130472,0.11175594898742333,1.0724373827663318,0.74574280518,1.73655984488,0.04250884111347583,0.20565803861403995,Null
-0.8399986153185074,-1.1689453125,-0.55480957031,0.02255017679139508,0.14979314689634346,0.16477852436616913,0.0341796875,0.30895996093,0.005831456286589768,0.07617377544968135,-0.5564863669891542,-0.77062988281,-0.26879882812,0.01784463010910954,0.13325108200249394,1.0274701178757213,0.64455683108,1.36794979642,0.03289179188126135,0.1809092344951832,stairs down
-0.8214379882777,-1.146484375,-0.52172851562,0.026464554706495638,0.16227209228010575,0.13083984374775,-0.06628417968,0.37268066406,0.01243520134034871,0.11123410148712023,-0.5916442871062499,-0.78991699218,-0.33715820312,0.010188582816691522,0.10068584757853541,1.0340098724935,0.74677287644,1.35823433252,0.02169736333595113,0.1469315368437674,stairs down
-0.6089764404275999,-1.34228515625,0.74060058593,0.32111119646772607,0.5652482998518328,0.23421325683355002,-0.2080078125,0.98620605468,0.06539342674961124,0.255081280410506,-0.5803076171845,-0.84680175781,-0.37768554687,0.010514129729713507,0.10228176318906973,1.04596407829455,0.57355253016,1.55426526685,0.06377677520996018,0.251908497939054,Null
-0.8632812499968845,-1.03454589843,-0.67761230468,0.004460053612483613,0.06661562341352545,0.17183880829552767,-0.00012207031,0.32360839843,0.005837437292677537,0.07621091415890141,-0.5495028855176883,-0.8359375,-0.421875,0.008230039838415063,0.09049134132226368,1.044544917775226,0.92523113436,1.23972982521,0.004117547342373344,0.06400668832003498,Null
-0.8301844051193036,-0.83679199218,-0.82019042968,1.506690955957359e-05,0.003871943931737776,0.16581399642009947,0.13879394531,0.19409179687,0.00011664089722560125,0.010773142264647284,-0.571052209651194,-0.58679199218,-0.55871582031,2.9509908219176974e-05,0.005418772255354525,1.0212396639999004,1.01224852282,1.03778946124,3.1173463181615486e-05,0.005569413912162619,Null
-0.8337347412072,-0.84423828125,-0.82458496093,1.9670925179270783e-05,0.004424089799424784,0.1659820556609,0.14916992187,0.17797851562,6.229298459989957e-05,0.007872834284862096,-0.5643902587852,-0.60192871093,-0.54968261718,3.872534400536942e-05,0.006207392148506696,1.02043719481775,1.0123158832,1.03635453737,2.818386990552166e-05,0.0052955595130254225,Null
0.06666748046659995,-1.0693359375,0.46569824218,0.2055376914905541,0.45222782204669953,0.901372070309,0.16955566406,1.3388671875,0.051601037284132234,0.22659000882146496,-0.20532592773105002,-0.76391601562,0.3916015625,0.04640952455117548,0.21488945280869323,1.0619159213484501,0.69376808263,1.49437812463,0.03360802686431502,0.1828660349271932,Null
-0.9370947265591499,-1.3759765625,-0.51501464843,0.039833682829394985,0.19908418926486354,0.19355529784870001,-0.13989257812,0.37817382812,0.010691457342080164,0.10314068089444516,-0.42256286620835,-0.751953125,-0.18225097656,0.019509453147080007,0.13932661583970454,1.0581100551420501,0.6782314775,1.44900036012,0.044479484751816956,0.21037368497047787,stairs up
-0.91408325194935,-1.24194335937,-0.57922363281,0.023207166552819444,0.15195766094559152,0.2195043945279,0.08422851562,0.33264160156,0.0043370811724057455,0.06569167197250894,-0.47143127441095006,-0.76806640625,-0.18225097656,0.017725188435256244,0.13280272020211017,1.0618692620294,0.79301402709,1.45114038158,0.023572438735905987,0.15314887052220286,stairs up
-0.8825421142541501,-1.12182617187,-0.60083007812,0.020635364175225938,0.1432905696630096,0.21728332519174998,0.09826660156,0.34985351562,0.004985986114954265,0.07043476545271869,-0.5386163330045999,-0.77819824218,-0.29345703125,0.01448526493224042,0.12005348228010389,1.06598980028945,0.86881815896,1.40222675929,0.01987136567297185,0.14061297537783274,stairs up
-0.9280706787075499,-1.30822753906,-0.60583496093,0.01995215516268026,0.14089852514085044,0.16545410155975,-0.24182128906,0.48876953125,0.022843914714424166,0.1507637063117382,-0.47465820312175,-0.79748535156,-0.15551757812,0.02343923991642299,0.15271556474976897,1.0791166051122,0.84977564445,1.39412076769,0.015479537694568868,0.12410535849066318,stairs up
-0.89430236816025,-1.51416015625,-0.23291015625,0.06569887135171301,0.25567631293288484,0.22827758788695,-0.01342773437,0.57824707031,0.01077122960092664,0.10352474802153351,-0.4452185058554,-0.66333007812,-0.20190429687,0.015089676714202875,0.12253256028758992,1.0440395911814,0.64133225919,1.56339872262,0.05144744885521021,0.2262525394574261,stairs up
-0.8891369628861,-1.37780761718,-0.5576171875,0.028622381559530587,0.16875802099969334,0.22257446288684998,-0.00305175781,0.83142089843,0.019238104339337467,0.1383543053816569,-0.44558898925389995,-0.68627929687,-0.15234375,0.014438962438792984,0.1198614517958089,1.0352804951194001,0.68293378307,1.50707503552,0.028980628309542497,0.16981085114913824,stairs up
-0.8859741210904499,-1.13037109375,-0.611328125,0.020816731542706777,0.1439188934261004,0.19365417480115,0.05261230468,0.36535644531,0.0054885899717690865,0.07389957389532256,-0.5159912109338499,-0.73364257812,-0.29638671875,0.015241411762669728,0.12314708564905781,1.051526960831,0.72468195343,1.39335053411,0.024451319273132124,0.15597776340480865,stairs up
-0.9046002197228,-1.19287109375,-0.5419921875,0.024329228313901736,0.15558785997735244,0.16939758300404997,0.03210449218,0.33325195312,0.0060813760634035405,0.07778797582587249,-0.55386413573875,-0.82849121093,-0.30712890625,0.017442434576317643,0.13173922120399853,1.0839326378426999,0.74177268633,1.41363495216,0.02659938682152855,0.16268494056740748,stairs up
-0.90693847655905,-1.32568359375,-0.57299804687,0.03535659604346725,0.18756282431028254,0.1638458251916,0.01721191406,0.26489257812,0.0033146369753462366,0.05742877145185595,-0.4778735351519,-0.71875,-0.23522949218,0.016352854667784134,0.12755818434912444,1.0467837731093501,0.77308185184,1.44222170808,0.03692328633027644,0.19167334164829772,stairs up
-0.88057373046515,-1.32287597656,-0.64624023437,0.027979650754954306,0.16685248724900548,0.17639282226165,-0.04968261718,0.25988769531,0.0036757564408671103,0.06047625698290838,-0.48962341308190005,-0.76586914062,-0.20080566406,0.016992840859463093,0.13003029129847313,1.02969961561425,0.71907025955,1.53418838042,0.03455207797926087,0.18541660548441868,stairs up
-0.8859399414021999,-1.09338378906,-0.55603027343,0.020780055450944804,0.1437920553218782,0.1727105712859,-0.03015136718,0.38635253906,0.008975542085308062,0.09450219243425795,-0.5167846679646,-0.70300292968,-0.26330566406,0.01401917314406631,0.11810621185333979,1.0518964006231502,0.74480788784,1.30263168296,0.018949521038219525,0.13731268489483564,stairs up
-0.9079711914025501,-1.23864746093,-0.62060546875,0.020948461401928898,0.14437354014818385,0.1584014892547,0.01416015625,0.310546875,0.0074071216878530055,0.08584920546757402,-0.5329449462854501,-0.712890625,-0.28210449218,0.013842448843481629,0.11735943336291386,1.07620785775895,0.87339189611,1.35520502102,0.01738363885253086,0.1315169976020902,stairs up
-0.9354138183556501,-1.27697753906,-0.6025390625,0.027263180273461706,0.16470235083961127,0.1408514404265,-0.04846191406,0.27307128906,0.005282624492145268,0.07249973358354181,-0.4535644531209999,-0.74279785156,-0.20849609375,0.01564759645050579,0.12477723537670347,1.05845096050615,0.77079163365,1.44321370712,0.028334524009856334,0.1679072702112897,stairs up
-0.92081726073845,-1.35888671875,-0.62854003906,0.028260857507506645,0.16768885836563235,0.0967114257778,-0.083984375,0.22277832031,0.004365230810588529,0.06590451165539114,-0.39121826171585,-0.65844726562,-0.16760253906,0.016602835768934916,0.12852945806347368,1.0125554933418,0.72615078571,1.42845965122,0.03419438011945016,0.1844543526698487,stairs up
-0.89123718261395,-1.08190917968,-0.63818359375,0.013455767499256976,0.11570863693675028,0.18386901855135002,0.08996582031,0.29211425781,0.003878396958806014,0.06212088999694051,-0.5071643066359001,-0.66833496093,-0.27124023437,0.013898982532847715,0.1175988419168466,1.05088063091385,0.84587668032,1.24565553284,0.009669486618465705,0.09808740584485542,Null
-0.8608886718713,-0.96850585937,-0.71630859375,0.001792955638116481,0.042237315964984076,0.17210571288725,0.04187011718,0.26635742187,0.0017509036313105727,0.04173905980198907,-0.5195709228482499,-0.6767578125,-0.39050292968,0.0035273094180038227,0.05924249210586776,1.0229584639873,0.93678869442,1.14973574198,0.001301929081141749,0.03599193570421075,Null
-0.8600994873014,-0.88745117187,-0.83837890625,0.00012349724131408875,0.01108511412243998,0.17747863769139996,0.14489746093,0.20837402343,0.00029478100038527583,0.01712621077131043,-0.5070648193322499,-0.53637695312,-0.47119140625,0.00018267085464839555,0.013481746933359696,1.0143253841461501,0.99555177342,1.04417662381,0.00012712092839402617,0.011246569421474978,Null
-0.8557922363240499,-0.99279785156,-0.7392578125,0.0029216333474793785,0.053916835781989116,0.1560540771446,0.01721191406,0.2451171875,0.003096884054365695,0.05551035609770367,-0.5331567382776,-0.66296386718,-0.44470214843,0.003194361859303558,0.05637721215178204,1.02387587575265,0.93518710934,1.12595447475,0.0015455012555925518,0.039214458421793726,Null
-0.7119689941375,-1.22058105468,-0.23095703125,0.06434572293372404,0.2530296313064053,0.1456835937476,-0.169921875,0.73449707031,0.03615558666151266,0.18967026316269267,-0.6627624511678002,-1.05627441406,-0.37915039062,0.029908409482446458,0.17250758660138465,1.0310083774641,0.696747959,1.59224821841,0.0343286641816456,0.18481618127409022,Null
-0.70933959960595,-0.94921875,-0.38977050781,0.023818644175829712,0.15394658474597792,0.07415832519349999,-0.18090820312,0.39758300781,0.02033217902663832,0.14223402592736076,-0.727285766597,-0.89074707031,-0.51049804687,0.009581771019355315,0.09764149816680681,1.0396787819033502,0.85018852926,1.23706375702,0.010189620874435174,0.10069097660695817,Null
-0.8555187988248,-1.548828125,-0.53112792968,0.0395616293237947,0.19840317834444016,0.1462365722622,-0.00317382812,0.44299316406,0.011515151752025268,0.10704006723309334,-0.5932470703084,-0.74975585937,-0.40759277343,0.00710622817423413,0.08408743683430336,1.0619122305133,0.71120339965,1.72208449115,0.03565240756744855,0.1883458136768941,stairs down
-0.8843334960897999,-1.27563476562,-0.44921875,0.039503128211303196,0.19825643134649296,0.2008398437475,-0.04064941406,0.57360839843,0.027104956444516513,0.1642237244197498,-0.5059301757778,-0.74462890625,-0.23681640625,0.018390311122688113,0.13527142923424249,1.0570282802820001,0.61249064856,1.46579759187,0.04584154411026129,0.21357044830619704,stairs down
-0.9283654785115002,-1.16442871093,-0.69689941406,0.014671911562697981,0.12082446774095258,0.17844604491809998,0.001953125,0.40942382812,0.01437744365101586,0.11960583778712801,-0.5446606445275001,-0.71508789062,-0.38354492187,0.008299193496026548,0.0908718742436097,1.0985383055248,0.83706412644,1.32899082235,0.02084026894471112,0.14400023472198775,stairs down
-0.8425378417931,-1.32055664062,-0.51635742187,0.029466931321160086,0.17122966058645997,0.1392749023409,-0.05224609375,0.271484375,0.006256281676529851,0.07889867088961133,-0.5571350097615,-0.88415527343,-0.25769042968,0.01959367474567277,0.13962702593675913,1.026927238152,0.577248876,1.57090751799,0.04032932987504108,0.20031895373545128,stairs down
-0.8845434570270999,-1.29089355468,-0.52514648437,0.03070068071218224,0.17477750801696806,0.17007446288749997,0.02880859375,0.35559082031,0.004408113433798878,0.06622743288569989,-0.5180224609341,-0.69030761718,-0.28784179687,0.011930102834705596,0.1089516054059419,1.0453918902011,0.59955121979,1.45832060967,0.03381831027906994,0.1834372337549675,stairs down
-0.8633679199178,-1.35522460937,-0.5361328125,0.022620757409114203,0.15002550990437805,0.1801867675741,0.04370117187,0.35559082031,0.007468312857424177,0.08620308169164868,-0.565594482418,-0.81188964843,-0.40197753906,0.009296121422104868,0.0961750529763012,1.0549469216546001,0.74766058447,1.47781946782,0.02416463629940973,0.15506067560123904,stairs down
-0.8858215331992001,-1.14086914062,-0.53662109375,0.018163512212896672,0.13443472264200268,0.1489819335895,0.02111816406,0.33239746093,0.007092614695009089,0.0840068546104069,-0.5561474609342,-0.71496582031,-0.32397460937,0.00839787419715808,0.09141052907719267,1.062141081969,0.76018271483,1.341012395,0.021625584534389546,0.14668829746001416,stairs down
-0.8551208496057001,-1.42102050781,-0.47985839843,0.032701233635947895,0.18038217059279488,0.1316125488255,-0.00476074218,0.275390625,0.004099843806001115,0.06386974704013716,-0.5661596679647,-0.82104492187,-0.27270507812,0.015845479671648514,0.12556373789151973,1.0426987764822002,0.67848015024,1.53499535452,0.03442501097598469,0.18507535200859343,stairs down
-0.8381384277306,-1.38830566406,-0.54187011718,0.028471174687875613,0.16831167165243244,0.11442504882489998,0.00659179687,0.21447753906,0.0015004000636856132,0.03863803907248898,-0.5774304199181999,-0.80749511718,-0.21203613281,0.017049738119258202,0.13024780009144843,1.0304658773247999,0.66584925657,1.56718488732,0.03409174639293281,0.18417732667450723,stairs down
-0.5544812011706,-1.31652832031,0.3037109375,0.2314396883035266,0.4798775779946475,0.4273754882777,0.04467773437,1.00183105468,0.1013357198480255,0.3175358897019129,-0.5520983886682999,-0.94445800781,-0.19360351562,0.021427234601598993,0.14601403503975569,1.0393367190151002,0.49672091632,1.68197411432,0.06745995502451754,0.25908040305934943,stairs down
-0.936287841793,-1.23779296875,-0.55114746093,0.025972016868555586,0.16075495881686763,0.28077758788720003,-0.17761230468,0.84985351562,0.03568855561594357,0.18844127158842844,-0.53013793945,-1.11791992187,-0.26306152343,0.033156249060465,0.18163278287567658,1.1390604623469,0.81840174526,1.68197411432,0.033569057236859975,0.18275998454441736,Null
-0.8820776367152001,-1.02941894531,-0.708984375,0.005719201942151098,0.07543610496599319,0.1995153808561,0.11950683593,0.27404785156,0.0020044171196504264,0.04465865015931599,-0.4954760742156,-0.65942382812,-0.19836425781,0.013235203830406347,0.11475638462087552,1.0403320413123,0.93382826058,1.13111583325,0.0019368413158613635,0.043899397595890274,Null
-0.8335327148398,-0.84826660156,-0.81994628906,3.956175928542186e-05,0.006274069691117142,0.18643432616809996,0.12780761718,0.2431640625,0.0005463867496087103,0.023316406581218016,-0.5585461425743,-0.58447265625,-0.52453613281,0.00012440774159309858,0.011125902340265848,1.0208407394477002,0.99490271775,1.04354084054,9.982635338211903e-05,0.009966304310786845,Null
-0.8829412841757001,-1.22265625,-0.71740722656,0.014789248261376304,0.12130664458334268,0.2427526855434,-0.06787109375,0.57238769531,0.020722886022638307,0.14359412102354718,-0.5274499511676499,-0.69555664062,-0.16430664062,0.01683870846158123,0.12943923253509088,1.07735205835355,0.95100970129,1.33930956921,0.0081600598230006,0.09010693382801124,Null
-0.8366418456996999,-1.04638671875,-0.60534667968,0.007818642829377933,0.08820175517092074,0.26573242187119994,0.09191894531,0.43762207031,0.00906115539088315,0.09495182785986131,-0.5392626953091001,-0.69995117187,-0.35131835937,0.006799101386247386,0.0822502637036268,1.0406983632544,0.9769366425,1.15255188436,0.0019044968754956724,0.04353130357706043,Null
-0.8513757324180999,-1.02368164062,-0.65002441406,0.006658099540881807,0.08139292993360908,0.19034790038780003,0.0595703125,0.33227539062,0.004707520348025921,0.06843962847857805,-0.5505676269494999,-0.73071289062,-0.41101074218,0.003660965916778817,0.060354462032188826,1.0369523859347,0.89165127334,1.17757776588,0.0038983667933213955,0.062280614635332465,Null
-0.8393872070268,-0.89013671875,-0.75036621093,0.0014818555206240662,0.038398518760766616,0.21272216796530002,0.12683105468,0.28662109375,0.0014892875789008155,0.0384946897767252,-0.538400878902,-0.69128417968,-0.47839355468,0.0035609265008300483,0.05952412845498788,1.0225346020047001,0.96501685531,1.07267956829,0.0006226205283498997,0.024889906100830316,Null
-0.8244067382774,-0.85034179687,-0.79663085937,0.00013621291322323692,0.011641814663407107,0.1791516113247,0.13879394531,0.20483398437,0.00020901788269674448,0.014421261847815564,-0.5717651367148,-0.61401367187,-0.54248046875,0.0004229307474302954,0.020513802516675058,1.0195009137439002,1.00163526493,1.0298760104,3.9546867429159e-05,0.006272888735822851,Null
-0.8324548339802,-0.84204101562,-0.81909179687,2.0580212371951093e-05,0.004525186328770489,0.19836303710560002,0.17370605468,0.228515625,8.352242971222916e-05,0.00911618437525635,-0.559219970699,-0.57983398437,-0.52770996093,8.145997721557205e-05,0.00900292604265381,1.0223555182133,1.00005765093,1.03303077861,2.9899420348643567e-05,0.00545434902136821,Null
-0.8389916992152001,-0.85034179687,-0.83068847656,2.095806538892178e-05,0.00456653863029507,0.20537231444930001,0.17370605468,0.21984863281,0.00010887225519104069,0.010408068692850056,-0.5431311035118,-0.56103515625,-0.52429199218,6.045619897862338e-05,0.007755895691906271,1.0204085092807,1.00005765093,1.03006692416,3.2224897895761406e-05,0.005662488269858278,Null
-0.8371569824185001,-0.84362792968,-0.82971191406,1.2132838441220537e-05,0.0034745034535908054,0.19280517577730003,0.16662597656,0.21203613281,9.570332028573152e-05,0.009758319716237158,-0.5468664550744999,-0.57238769531,-0.53356933593,7.496744396183632e-05,0.00863670114928305,1.0184323273925,1.00521275003,1.03583846733,4.628423281264437e-05,0.006786222192691685,Null
-0.8417810058553999,-0.84912109375,-0.83337402343,1.731399765596295e-05,0.004150593652440953,0.1985888671843,0.13696289062,0.24377441406,0.00045918900762601786,0.02137505701952366,-0.5413696289025001,-0.57751464843,-0.515625,0.00014712717663102807,0.012099237196942331,1.0206142571698,1.0049105493,1.04588505213,8.133183958821771e-05,0.00899584239469971,Null
-0.8877673339806,-1.02392578125,-0.73608398437,0.004617918404871421,0.06778516661369996,0.24060424804330002,0.15637207031,0.43444824218,0.0059286177622071366,0.07680478288099056,-0.44925537109009994,-0.63391113281,-0.27087402343,0.009816838718512627,0.09883195093146782,1.0319252794646,0.86021715861,1.14438703754,0.003259706058122898,0.056950922098174,Null
-0.9227441406214,-1.10095214843,-0.6953125,0.007407805212673373,0.08585316643321902,0.28790771484,0.05432128906,0.42846679687,0.008124763468490306,0.08991184377571097,-0.38430297851219997,-0.57629394531,-0.14953613281,0.010981969286758434,0.1045325759767004,1.0508236229152,0.88099064662,1.16292363338,0.0042091049358368195,0.06471521777107479,Null
-0.9085021972621,-0.986328125,-0.82275390625,0.001215024022866998,0.03476994251868506,0.24979248046430003,0.18981933593,0.31384277343,0.0008142771732983209,0.028464114028576917,-0.3892871093715,-0.5146484375,-0.28979492187,0.0022900634435177505,0.04773482089942479,1.0212359756831,0.94793333136,1.08808547214,0.0006953055656489418,0.026302643171755517,Null
-0.8484777831992001,-0.95458984375,-0.70581054687,0.0014005332901033762,0.037330023086690686,0.4368481445276,0.22473144531,0.53942871093,0.003318141818660691,0.05745912555519261,-0.3501562499965,-0.46997070312,-0.2900390625,0.001647901139615829,0.04049273556970127,1.0193300216169,0.94942448588,1.13081033629,0.000664622885705515,0.02571574947920024,Null
-0.8698901367155999,-0.88269042968,-0.84423828125,8.672536318044776e-05,0.00928933454907,0.3915490722611,0.3701171875,0.46691894531,0.0003911224606382256,0.019727312243056187,-0.37439941405870003,-0.43811035156,-0.3291015625,0.00027667687765710975,0.016591970746985547,1.0251159127938,1.00880812472,1.06985027885,8.297950675194879e-05,0.00908650698663623,Null
-0.827935791012,-0.92272949218,-0.234375,0.029443122446667285,0.1711604710043588,0.44860717773090003,0.37133789062,0.89880371093,0.017573894416415152,0.13223473425818602,-0.38329956054340003,-0.46423339843,-0.35607910156,0.0004537493424883848,0.02124807275439217,1.0381949631278002,0.85494523599,1.17108942403,0.0030444803762125026,0.055038695245540115,lift up
0.28103759765550007,-0.234375,0.7890625,0.1845367810265043,0.42850215532873553,0.7492443847621,0.42626953125,1.20324707031,0.04402591855536485,0.20929832527420764,-0.4049963378872,-0.5556640625,-0.19189453125,0.0049631966582822295,0.07027361293537439,1.0156247406844001,0.84484751281,1.31734152037,0.005262277351170879,0.0723599748784853,lift up
0.48700683593440003,-0.22497558593,1.15673828125,0.09242419945486408,0.30325249950757166,0.7554602050743501,0.39978027343,1.08959960937,0.0373672881481339,0.19282233197270807,-0.3192846679646,-0.83264160156,-0.02819824218,0.025138724593132777,0.15815508518592475,1.02238252372745,0.62959666295,1.58936021748,0.018841220291117265,0.13691973630438264,lift up
0.19064331054310002,0.16418457031,0.20239257812,7.135960175516636e-05,0.008426316143273436,0.9966162109337501,0.97204589843,1.02160644531,0.00010490090405328033,0.010216476864996755,-0.1168792724577,-0.17358398437,-0.01965332031,0.0020012141078805472,0.04462295415300453,1.02241078141745,1.00127952642,1.05280822466,9.27531267101304e-05,0.009606735193424441,lift up
0.20475585937119997,0.19323730468,0.21569824218,3.549981356593895e-05,0.005943257902708687,0.97327331542675,0.93371582031,1.01062011718,0.0005610946431186469,0.023628143598324724,-0.1211285400352,-0.14855957031,-0.07995605468,0.00026387401225586634,0.016203537953008502,1.0021020181525,0.96512944705,1.03515522794,0.0005082844416168304,0.022488730942602037,lift up
0.209367675778,0.19897460937,0.21911621093,1.8679622427418466e-05,0.004311174354544406,0.9930200195281,0.98120117187,1.00524902343,2.837312281160944e-05,0.005313309439280889,-0.13298828124589998,-0.21374511718,-0.10876464843,0.0006901179485931069,0.026204338550135958,1.0238781616032,1.01597192414,1.03415498352,1.6543541531940327e-05,0.004057194082648823,lift up
0.2046435546838,0.13012695312,0.234375,0.00034665561800213294,0.0185720849640562,0.98045410155875,0.92700195312,1.01354980468,0.00023501415947330337,0.01529179808511533,-0.20530517577775,-0.34619140625,-0.15612792968,0.0010290319656272996,0.03199823129173179,1.0231091417346498,0.98137556748,1.05723313308,0.00021108640157793592,0.014492445258480235,lift up
0.04224304199005,-0.06042480468,0.13891601562,0.002920691421134613,0.05390814376352556,0.9432220458946,0.78796386718,1.11279296875,0.00552580328712351,0.07414967478477497,-0.38777832030949994,-0.5166015625,-0.29382324218,0.003494821864742889,0.058969040652016504,1.0242031301395,0.88361601426,1.19334114422,0.004737574234639769,0.06865774802210287,Null
-0.054902954098950005,-0.15026855468,0.06311035156,0.003285538307994891,0.05717613677448763,0.9430462646442999,0.76611328125,1.12145996093,0.008759942871984673,0.09336028683345371,-0.39930236816039993,-0.58239746093,-0.21789550781,0.006664854763919988,0.08143420958111147,1.03152175151815,0.86743917335,1.20200585047,0.0064046565413742665,0.07982877462837192,Null
-0.0229614257788,-0.06958007812,0.04272460937,0.0005161560059658049,0.022662198170874243,0.96565185546565,0.92797851562,0.9951171875,0.0001888205598030336,0.013706803310911645,-0.3340185546838,-0.38317871093,-0.28894042968,0.00026126545278681883,0.016123247983048726,1.02244913943805,0.98877668213,1.04986066802,0.00013899093523432856,0.011759931145978572,Null
-0.0215649414016,-0.03161621093,-0.00231933593,4.106766614905128e-05,0.006392364806416012,0.9708843994104001,0.95825195312,0.98400878906,2.5427368047458645e-05,0.005029933519165174,-0.32879089355099994,-0.34765625,-0.30883789062,7.25934849182433e-05,0.008498853892946513,1.02533077905205,1.01604145754,1.03584618518,2.0303520842684186e-05,0.004494663862678806,Null
-0.07975280761435,-0.18200683593,0.04699707031,0.0038378667406850316,0.061795448108915,0.96156860351215,0.88647460937,1.04223632812,0.0014691663013238375,0.03823376086415275,-0.34527343749565,-0.45153808593,-0.27307128906,0.0026971513541750778,0.051804107920165966,1.02834202288245,0.98422231701,1.09793522367,0.0006686268057702148,0.025793093489175814,Null
-0.054061279296400006,-0.23327636718,0.0830078125,0.0077186146433031975,0.08763573226764686,0.84981140136305,0.59057617187,1.04821777343,0.021127121921147574,0.1449878833266485,0.19917602539094992,-0.46838378906,0.82678222656,0.24532369359161407,0.49406181305951585,1.01823585048005,0.96170143836,1.08273696608,0.0007713213071914928,0.027703153261958022,Null
0.061135253903799994,-0.06750488281,0.17236328125,0.0036704568345754824,0.06043264474108845,0.6437799072229998,0.41613769531,0.75402832031,0.008004840159888837,0.08924581759998276,0.7666174316363,0.61694335937,0.94152832031,0.007876956029898042,0.08853005845332167,1.01028025064035,0.80255434008,1.14887674197,0.004704202641260059,0.06841550721915142,Null
-0.82690246581675,-1.73474121093,0.1875,0.31501403293228114,0.5598561982934722,0.44586364745875,-0.28942871093,0.9169921875,0.08414647986070532,0.2893540175311236,0.023999023438600064,-0.79736328125,0.99438476562,0.29230977512116485,0.5393034639658446,1.22833053443225,0.73562521737,1.7822736969,0.06266840993177139,0.24970996752655378,stairs up
-1.00908691405875,-1.68298339843,-0.32250976562,0.07196306802523966,0.26758784106366545,0.3104565429656,-0.4013671875,0.71154785156,0.07600268814939905,0.27499577216504995,-0.31284423827700003,-0.66674804687,-0.09008789062,0.01721825832700878,0.13088990425305436,1.1477568368356001,0.66721345909,1.77619106096,0.0598226337129854,0.2439744260049001,stairs up
-0.89733154296485,-1.04235839843,-0.6826171875,0.007934806280983336,0.0888545567181471,0.3089428710899,0.18872070312,0.48913574218,0.007499697226412095,0.08638401900976844,-0.45783142089444995,-0.63500976562,-0.265625,0.011957216157576432,0.1090753412866013,1.06271789717095,0.93271804983,1.26352587037,0.00818556548352337,0.09024764626352176,Null
-0.8369207763635,-1.01892089843,-0.56188964843,0.016760544441200873,0.12913845948823638,0.27895324706685,0.16857910156,0.38317871093,0.004380241572133985,0.06601772765154308,-0.5306726074179,-0.82446289062,-0.25817871093,0.017796076828238742,0.13306801435392934,1.0455274194583,0.90536016318,1.18432250422,0.005506844135585128,0.07402236091146513,Null
-0.5939398193316501,-0.68676757812,-0.546875,0.0011097271683842356,0.033229181942117,0.24566040038689999,0.10778808593,0.33288574218,0.002321054251080883,0.048056726686547,-0.79622985839525,-0.83935546875,-0.71325683593,0.000646748191946974,0.025367586621262164,1.0250163001274002,0.97183602,1.05874180198,0.0004967388397117585,0.022231849799627553,Null
-0.8162738037081999,-1.0,-0.5478515625,0.013492053743860855,0.11586454796503351,0.20321716308185003,0.07165527343,0.38098144531,0.008401209010820825,0.0914286769332616,-0.5951013183550999,-0.84948730468,-0.39672851562,0.01595626636796929,0.12600192473184466,1.04553995054165,0.84438737884,1.22825156984,0.006283628540932635,0.07907092005426503,Null
-0.8366326904266,-0.919921875,-0.712890625,0.0019590781557928664,0.044150682497713464,0.26222900390265,0.11975097656,0.3828125,0.003318518364322132,0.057462385718838035,-0.52374511718365,-0.62890625,-0.37707519531,0.002511680869032584,0.04999122387667081,1.02477096289275,0.9669972684,1.08775436945,0.0006251875039780081,0.024941162091172055,Null
-0.8364385986289,-1.0400390625,-0.57421875,0.012539553941347698,0.11169984857483452,0.29407043456689996,-0.14416503906,0.57897949218,0.019554453943784467,0.13948720971496112,-0.53335266112875,-0.71264648437,-0.41528320312,0.0059131103001872345,0.0767042681256154,1.0507715341319,0.93005339851,1.20901687036,0.004289725177509583,0.06533204842664919,Null
-0.5154498290993,-1.29016113281,0.83666992187,0.4383177233934611,0.6603984666672794,0.49041015624609996,0.07263183593,1.23718261718,0.08474997668963821,0.29038978426623413,-0.42349487304305,-0.68518066406,-0.1396484375,0.021831893847643783,0.14738634393459105,1.0837581358912498,0.6304896662,1.52197455074,0.053449200015785785,0.23061212894318212,Null
-0.8472210693315,-0.96801757812,-0.81982421875,0.00035050295369571733,0.01867486114880747,0.33021789550335,0.26818847656,0.36791992187,0.000532048640759745,0.0230084418758843,-0.4675073242151,-0.60656738281,-0.30493164062,0.0026609452466221386,0.051455228309560806,1.0238830312032001,0.96783769627,1.10841877788,0.0005827284407448603,0.024079343814587973,Null
-0.8484002685508001,-0.86157226562,-0.83898925781,2.276292360943583e-05,0.0047591080037532926,0.3299505615203,0.31384277343,0.3544921875,8.462755786449303e-05,0.009176296642718705,-0.45994995116845006,-0.48010253906,-0.43737792968,9.814476698463047e-05,0.00988200602862128,1.01997673888525,1.0016623776,1.03442467083,5.658895520745684e-05,0.007503733099692417,Null
-0.8519873046839002,-0.86315917968,-0.84094238281,3.567067821760855e-05,0.005957543522838965,0.3157452392535,0.29895019531,0.35571289062,0.0002055674757647537,0.014301735502586038,-0.4590008544885501,-0.47937011718,-0.443359375,6.961338445784211e-05,0.00832257877917373,1.01809980382505,1.00529316641,1.03287047888,4.150212021455637e-05,0.006426088204614343,Null
-0.538262329099,-1.2763671875,0.04040527343,0.18049639833195427,0.42378522430624516,0.46305297851155,0.15649414062,0.90124511718,0.022878238170980728,0.15087692659954943,-0.62110229491805,-1.01281738281,-0.11120605468,0.06218095977557716,0.24873691920722038,1.0548982115125,0.69379744324,1.65394187189,0.04153772686818701,0.203297905138853,Null
-0.9509338378863,-1.29113769531,-0.6318359375,0.02390203040885133,0.15421582362652372,0.2940148925747,0.05981445312,0.51403808593,0.01787853772758311,0.1333759537508362,-0.5135668945274999,-0.73840332031,-0.13842773437,0.014064630677331233,0.1182975381144704,1.1338129312446,0.88350341564,1.4605823738,0.024628227148992165,0.156541004255266,Null
-0.7945904540984501,-1.38195800781,-0.39880371093,0.045329284934322006,0.2123738178534501,0.1250061035136,-0.32092285156,1.10485839843,0.06682742297066675,0.257862920668741,-0.6264013671835,-1.04162597656,-0.08618164062,0.035779466725002686,0.18868113151923185,1.0729127062450998,0.72286862526,1.53683939965,0.03561206734193208,0.18823922812533633,stairs down
-0.79684631347335,-1.53234863281,0.01025390625,0.12542358953988586,0.3532654406988977,0.28394409179475,-0.32958984375,0.93469238281,0.0736945672107998,0.2707879140115855,-0.7018615722624,-1.31884765625,-0.13439941406,0.05633026537451036,0.23674588496452859,1.1768100113369502,0.78768749162,1.77270269925,0.07787672202222012,0.27836547632942743,stairs down
0.09786865234334996,-2.06640625,1.087890625,0.8654582262629543,0.927971408574445,0.44716125487895,0.04077148437,0.93469238281,0.027706360906492308,0.16603562600225244,-0.2637438964802,-0.56457519531,0.08032226562,0.023578834172613323,0.15316964451793397,1.04331335805225,0.47226069584,2.21034467655,0.10326557291900208,0.3205452309026092,Null
-0.86698974609,-1.21081542968,-0.759765625,0.0026469301877359176,0.05131954341961002,0.29651916503545,0.24304199218,0.4228515625,0.001526537818804817,0.038973133434595596,-0.448850708004,-0.64208984375,-0.1416015625,0.009432656153553372,0.09687875346424316,1.0256727928846,0.92937029708,1.31604726294,0.0026082498617688212,0.050943190049897516,Null
-0.85935302733985,-0.87866210937,-0.84973144531,4.931921335251343e-05,0.00700518502865919,0.300756225583,0.26318359375,0.33837890625,0.00022625687997521174,0.015004185935109432,-0.4531616210901,-0.47265625,-0.39306640625,0.00023239776118126216,0.015206438517133321,1.0172202160505,0.99461014907,1.03385801418,6.618462256730273e-05,0.008115029233124562,Null
-0.8635168456992,-0.876953125,-0.85314941406,2.388551457322246e-05,0.004875047384421648,0.30419677734030004,0.27966308593,0.33544921875,9.101988083538876e-05,0.009516553022560837,-0.44172302245725,-0.4560546875,-0.42297363281,6.123779669785607e-05,0.007805870080546229,1.0165894699578002,1.00449877074,1.03280678919,3.755052167831791e-05,0.006112509228616863,Null
-0.6263208007778001,-1.009765625,-0.15673828125,0.05608897154660578,0.23623828370709257,0.5663122558556,0.13073730468,0.88854980468,0.039017543527639954,0.19703414884228002,-0.53528747558115,-0.75744628906,-0.21228027343,0.0206809735682961,0.14344883652527343,1.04807354737535,0.75531535322,1.28325530458,0.01635214937376871,0.12755543354518406,Null
-0.8348339843711,-0.9990234375,-0.54309082031,0.014676995588926529,0.12084539962688648,0.53507141113,0.38232421875,0.80529785156,0.014344253911099076,0.11946770543349186,-0.07790344238125,-0.34240722656,0.46643066406,0.04390245751974273,0.2090046536136074,1.0291852799494499,0.85015714679,1.14417205225,0.0029552472192985835,0.054226109792258656,Null
-0.8718731689418502,-0.94470214843,-0.63940429687,0.002887899204344928,0.053604661255558766,0.48182617187105004,0.4072265625,0.73352050781,0.005925458364157249,0.07678431527555912,-0.18816772460689996,-0.296875,0.04809570312,0.005730797883320459,0.07551254130211654,1.0200284467839,0.8814742317,1.15229700931,0.0017485202333964217,0.041710641714428696,Null
-0.87613464355155,-0.89855957031,-0.85571289062,8.07169390610055e-05,0.008961771831825472,0.39734374999590005,0.376953125,0.44836425781,0.00017598283948770072,0.013232646193798964,-0.3393652343704,-0.38842773437,-0.27819824218,0.0005359049658235926,0.023091674711775985,1.02045149090215,0.97685794938,1.06144843235,0.0001307819375508679,0.011407367262568238,Null
0.1026617431628,-0.97448730468,0.7841796875,0.3619583164430356,0.6001237579539911,0.72759948730125,0.07922363281,1.27954101562,0.0961141466491641,0.30924678804462674,-0.10953918456945001,-0.57836914062,0.2626953125,0.06555020847914372,0.2553868779650748,1.02240841400515,0.56671631317,1.51311572779,0.034664120559557234,0.18571698887489926,Null
0.4063110351525999,0.36291503906,0.42895507812,0.00020519887382520205,0.014288907566923234,0.93325927734,0.87707519531,1.02612304687,0.0007352528320146845,0.02704767213374584,-0.018500976561,-0.08715820312,0.19323730468,0.005213790298766891,0.07202583805325043,1.0207263439334,0.96441688824,1.10500796524,0.0006482650829314114,0.025397317919748027,Null
0.4115332031212,0.32348632812,0.44921875,0.0007529522545926445,0.027371289580867052,0.9303320312460001,0.87890625,1.07690429687,0.0013402131574213768,0.03651728483381904,-0.06370605468400001,-0.09460449218,0.00573730468,0.0008559476430329946,0.029183349787470076,1.0201172709878,0.94770044788,1.15852668578,0.0012370331250685445,0.03508344281057949,Null
0.3895336914029,0.19799804687,0.650390625,0.008179177836633267,0.09021242679060408,0.9387487792934002,0.775390625,1.13439941406,0.00836799802336189,0.09124778371689408,-0.07940551757615,-0.27734375,0.2666015625,0.02000767801054334,0.14109443511524694,1.0327948287010502,0.84195459043,1.25970530993,0.00922117737552562,0.09578659347031813,Null
0.41704345702779994,0.28527832031,0.515625,0.00277147645932826,0.05251303721012163,0.91181396484,0.81018066406,0.99560546875,0.0012842225609280996,0.03574634873834612,-0.19548095702760002,-0.30017089843,0.02807617187,0.005429047969078535,0.0734976375758646,1.0258895610336,0.98209112374,1.09769258405,0.0005333546796842907,0.023036664391484052,Null
0.42794677734000003,0.41760253906,0.43994140625,2.3074970774867383e-05,0.0047916172552691485,0.8829174804643999,0.87121582031,0.89440917968,3.0968063439893196e-05,0.005550965963027852,-0.2471728515592,-0.26025390625,-0.23791503906,3.0146387951530607e-05,0.005476829010638634,1.0118446026402,1.00210491317,1.0242430887,3.0561486367519204e-05,0.005514406489884619,Null
0.437153320309,0.32202148437,0.5771484375,0.0016260520657429753,0.04022339873026968,0.884785156246,0.68151855468,1.08374023437,0.005731457058489049,0.075516884027326,-0.239863281246,-0.27197265625,-0.15930175781,0.0008484807805052705,0.029055780433551327,1.0163412190382,0.7712084023,1.2532724698,0.00673133497617275,0.08183934445785772,Null
0.45117187499579997,0.43884277343,0.46325683593,3.1404758819524874e-05,0.005589967354594054,0.8719189453085999,0.86071777343,0.88134765625,2.1690435745564737e-05,0.004645641351507552,-0.2695385742146,-0.28100585937,-0.25598144531,3.165899808547412e-05,0.005612548716496521,1.0180908338088,1.00666090501,1.03087755182,2.5261813752286046e-05,0.005013532156426706,Null
0.4077172851532,0.37231445312,0.49182128906,0.0009421622274051835,0.030617828405492077,0.799999999997,0.74645996093,0.875,0.0007542821031296129,0.027395450217398597,-0.433269042965,-0.57104492187,-0.19287109375,0.009321071760118682,0.09630403107512213,1.0022358374993998,0.94845843378,1.04113375939,0.0004434198408020605,0.021004826626231654,lift down
0.39821044921579996,0.37780761718,0.41516113281,5.4483443651258126e-05,0.007362813757864709,0.7956201171834,0.78295898437,0.82348632812,9.405914862631076e-05,0.009674133185106518,-0.5135742187454,-0.53601074218,-0.49645996093,5.894210470335564e-05,0.007658158667711114,1.0273344021076,1.01167692738,1.06205529134,0.00013254715212529262,0.01148409405937909,lift down
0.40034667968439996,0.3837890625,0.41748046875,8.695314877374764e-05,0.009301525844176262,0.8257690429647999,0.80358886718,0.85485839843,0.00023684025410657472,0.015351092887349808,-0.5102221679644,-0.54418945312,-0.48620605468,0.00024171918479679437,0.015508403814474603,1.0500546619234,1.02039924299,1.08423876827,0.0004487728023151966,0.021131231348495066,lift down
0.38001586913660007,0.23974609375,0.5693359375,0.007464280857800195,0.08617980885051436,0.9237768554651001,0.84118652343,1.07287597656,0.0031722916370780486,0.05618211618382364,-0.19158447265245002,-0.37231445312,-0.01635742187,0.008391962404804599,0.09137834859954834,1.0251279978527001,0.9419555486,1.16678754855,0.002539025020048208,0.0502626093129671,Null
0.32741455077799997,0.18444824218,0.42016601562,0.003940958886971981,0.06261991769826211,0.9491040039027999,0.80847167968,1.19787597656,0.006984943367216568,0.08336677186013913,-0.19376464843379998,-0.33459472656,0.01000976562,0.0062308403953805856,0.0787380860410239,1.0273816721726,0.90380955824,1.25860763674,0.007136980791705763,0.08426918705996418,Null
0.3710595703088,0.35803222656,0.42114257812,0.00012188343546281556,0.011012448332932212,0.918989257809,0.89367675781,0.93041992187,4.11156793287875e-05,0.006396100447315033,-0.2614477539024,-0.28112792968,-0.22009277343,0.00022969490918338408,0.015117752301101746,1.0251481031626,0.99904104536,1.04345233293,4.3704365349268736e-05,0.006594379692019743,Null
0.376889648434,0.36706542968,0.40405273437,3.7026309491924955e-05,0.006069693397896251,0.913937988278,0.90185546875,0.92138671875,2.3224539496321328e-05,0.004807121467036143,-0.2693286132784,-0.28540039062,-0.2431640625,8.490493548024095e-05,0.009191322581807241,1.0246910116660002,1.0143526911,1.03536146037,1.92121230078407e-05,0.004372191943728169,Null
-0.4270507812488,-1.17175292968,0.41882324218,0.3030927043428908,0.5491604873087432,0.7254272460896,0.30126953125,1.0947265625,0.06501439663014194,0.2543409614021918,-0.17256591796560003,-0.50805664062,0.08642578125,0.028463084859296724,0.1682877578286675,1.0622287476078,0.90583661944,1.25470840488,0.004676862148423828,0.06821640446169608,Null
-0.8345285292253235,-1.21203613281,-0.38684082031,0.04041929378307481,0.20054476500080642,0.5131350085468657,0.26062011718,0.90808105468,0.03495659263123557,0.18650115076068638,-0.2807908698663184,-0.53234863281,0.05444335937,0.0256729767121411,0.1598288161122452,1.0615525796865175,0.82941880913,1.42341180164,0.012302374558043491,0.11063981523154826,Null
-0.9590432631876885,-1.57775878906,-0.802734375,0.02139466020258378,0.1459011629401713,0.3452909076594975,-0.17761230468,0.57092285156,0.015698009874725936,0.12497649940286232,-0.24181699512899496,-0.65637207031,0.5830078125,0.04657209933604838,0.21526278983168107,1.0784553635725125,0.88969350924,1.69138021647,0.017732732137242968,0.13282929997001097,Null
-0.9003930664026001,-0.9365234375,-0.88842773437,0.0001389755615620793,0.011759280749870246,0.3402709960894,0.25390625,0.42333984375,0.0008765125095023425,0.029531846318082294,-0.3447460937464,-0.36462402343,-0.32861328125,6.267315178991294e-05,0.007896821261176131,1.0228560166826,1.00239629778,1.0680973143,0.00018113921105724455,0.013425107634650768,Null
-0.8963208007776001,-0.90441894531,-0.89074707031,1.0900527388105445e-05,0.0032933303434616026,0.3457983398402,0.3369140625,0.35717773437,2.5401936098272488e-05,0.005027417470011927,-0.34227294921500007,-0.35205078125,-0.32751464843,2.5461816315350554e-05,0.005033339570680067,1.0198855470183998,1.01353170642,1.02972997279,1.3234120618604245e-05,0.0036287670103647084,Null
-0.8818768310510999,-0.93200683593,-0.8642578125,0.0002869785846475261,0.016898038102817984,0.33453124999664996,0.31762695312,0.35998535156,0.0001474102178314627,0.012110869776457239,-0.335646362301,-0.36437988281,-0.3115234375,0.0001519902982843389,0.01229757483380025,1.00119485049805,0.973734308,1.05773410872,0.00047105672136248713,0.021649513568569496,lift down
-0.9181926478059799,-0.95422363281,-0.88671875,0.0005549747480164089,0.023498636772953038,0.3552491461175377,0.33654785156,0.36547851562,7.137987044960482e-05,0.008427406340818932,-0.35314327987211047,-0.37329101562,-0.337890625,8.551998402752364e-05,0.009224436858912784,1.0459708524699498,1.01321841995,1.08341535462,0.0006463917481164611,0.025360275005945468,lift down
-0.9068627929652,-1.10021972656,-0.787109375,0.003476772769678687,0.058816569993755105,0.3314477539028,0.22399902343,0.40014648437,0.00180801691723453,0.042414347014287014,-0.3357788085902,-0.44738769531,-0.18615722656,0.0035805739648713288,0.059688115190940416,1.0247454355326,0.90958628182,1.21665168128,0.0037416847429835335,0.06101619718786657,Null
-0.9300184866648757,-1.07275390625,-0.73828125,0.007229009513882674,0.08481181693856447,0.31738888564681594,0.22412109375,0.40747070312,0.0026629787312617325,0.05147552895170136,-0.30026260299661695,-0.54931640625,-0.11669921875,0.012943642106817761,0.11348676520824183,1.0348270852889054,0.85144109472,1.26341351044,0.00772105805641064,0.08765069784234118,Null
-0.89735046386395,-0.9296875,-0.88024902343,7.771990370941713e-05,0.008793821933088595,0.32732788085549996,0.29138183593,0.38293457031,0.00037588934055870924,0.01933933540367703,-0.3551062011682,-0.38977050781,-0.30236816406,0.000294842898247302,0.017128008750466748,1.0193787629382,0.9918068809,1.0397602191,9.392788323255042e-05,0.009667380400935285,Null
-0.9054156494097501,-0.94592285156,-0.86474609375,0.00022674487127020022,0.015020357749196562,0.343608398434,0.28198242187,0.47131347656,0.0013719799291149202,0.036947530762817496,-0.33988586425390005,-0.49340820312,-0.20190429687,0.0035100476821242647,0.05909735564061766,1.02846913123495,0.96930943763,1.13485892038,0.0007046282505498154,0.02647838947702572,Null
-0.9026338970204523,-0.91625976562,-0.89367675781,2.3957359488595312e-05,0.004882312028890267,0.3218049475852261,0.30651855468,0.34265136718,7.400464710656375e-05,0.008580953586740056,-0.3472293106111557,-0.36987304687,-0.32727050781,9.865214040628862e-05,0.009907391231159798,1.0193334282781408,1.00795932557,1.03437696669,2.97079092531699e-05,0.005436784277219699,Null
-0.9204821777304,-1.33190917968,-0.60852050781,0.0267133765468919,0.16303315510704391,0.21096557616965,-0.83972167968,0.60400390625,0.05700748510437695,0.2381647490264986,-0.4008148193321,-0.73193359375,-0.00732421875,0.04721414113429224,0.21674425120085833,1.07810397007085,0.79886314669,1.72274511458,0.02166533408436218,0.14682304796570725,Null
-0.8970315657997513,-1.13354492187,-0.68395996093,0.00651161880714013,0.08049361896244803,0.31200321633661693,-0.06726074218,0.51940917968,0.008024350331979443,0.08935562764048118,-0.37798677510492534,-0.76062011718,-0.09997558593,0.015501087907127876,0.12419326900759922,1.032810432471791,0.81038502375,1.36810210017,0.008116248074811226,0.08986583739750856,Null
-0.79264770507465,-1.70629882812,-0.33630371093,0.09714284708637903,0.3108973027399034,0.49104736327705006,0.18103027343,0.94995117187,0.04397758473738748,0.20918340472824448,-0.44273376464514996,-0.76123046875,0.14733886718,0.056449870358378784,0.23699709071333955,1.1073330024374999,0.77141628689,1.80714512147,0.03600719204434199,0.18928062786275907,Null
-0.95522216796465,-1.17126464843,-0.85437011718,0.005727287776494574,0.07548941208945861,0.29047546386365,0.1767578125,0.40686035156,0.002602273111592381,0.050884788945562295,-0.281422119138,-0.79968261718,0.33264160156,0.05117426373627022,0.22565104125084126,1.0620548549465,0.92604280149,1.27801271005,0.007827524660233016,0.08825183871700266,Null
-0.9124400076515577,-0.9306640625,-0.89819335937,4.195979565032574e-05,0.006461342152049506,0.2828172846625628,0.25561523437,0.32446289062,0.00014447750874963783,0.011989640992028499,-0.35474246230864315,-0.42150878906,-0.32922363281,0.00018028580008427647,0.013393275973035242,1.0191335183285426,0.99587074476,1.06126571937,0.00010688785242610345,0.010312648909932895,Null
-0.90876403808235,-0.91906738281,-0.90161132812,1.771427541957208e-05,0.004198297755337778,0.27726257323794995,0.26574707031,0.28869628906,2.7505488474916242e-05,0.00523143967111747,-0.3567956542931,-0.36645507812,-0.34497070312,2.322578998811038e-05,0.004807250881550684,1.0149285138752,1.00651169152,1.02430419041,1.8055682309248417e-05,0.004238561536382617,Null
-0.9350646972620001,-0.94787597656,-0.90368652343,0.00012583749826687224,0.011189651950598727,0.2879553222626,0.26953125,0.294921875,2.8373834169902885e-05,0.005313376045326866,-0.36373840331625007,-0.37646484375,-0.35388183593,2.4012284892356715e-05,0.004887967212236078,1.04384092851765,1.01000951481,1.05463141539,0.00010366140176743507,0.010155938891042911,lift up
-0.8804882812465,-0.91088867187,-0.84765625,0.00040035209462582934,0.01995871574407282,0.27893188476249997,0.26135253906,0.29553222656,5.298568226152813e-05,0.00726090585603618,-0.3532373046839,-0.38122558593,-0.33386230468,0.00010982742260941352,0.010453625471403041,0.9888957625684001,0.95494646596,1.02838359177,0.00048715911384984814,0.022016432914543603,lift up
-0.7429565429660999,-1.12854003906,0.23876953125,0.12829855893063916,0.3572912903164391,0.3914733886678,0.14343261718,1.07153320312,0.05034173130225869,0.22380800398052658,-0.41841125487965003,-0.71704101562,-0.25317382812,0.012825485665133075,0.11296618182804714,1.0153507267611,0.32362665551,1.41030148104,0.04007554338188172,0.19968767028780798,Null
-0.9067382812462189,-1.08959960937,-0.67687988281,0.009529788643270688,0.0973774961655583,0.23718140255358208,0.13745117187,0.31591796875,0.0018511676773902799,0.04291803686039854,-0.41695757054228855,-0.54406738281,-0.26037597656,0.00571379086640802,0.07540135307921957,1.0297657425449254,0.84531686256,1.20271319611,0.008919533993944469,0.09420805805731174,Null
-0.9105285644493002,-1.01818847656,-0.87902832031,0.0006471633836216271,0.025375727904899968,0.2734204101523,0.20727539062,0.30578613281,0.00039533275457547977,0.019833206770530135,-0.3740429687466,-0.43640136718,-0.26086425781,0.0014694176486638624,0.03823703127101453,1.0227109810834,1.00145929373,1.10337049492,0.00029219419572732857,0.017050900995216996,Null
-0.9224914550753001,-1.16845703125,-0.76049804687,0.004712450856297574,0.06847545985253466,0.2510156249966,0.08666992187,0.33447265625,0.0029061636972883744,0.05377390518459611,-0.37051147460550005,-0.57836914062,-0.21032714843,0.003316031585140164,0.05744085155370229,1.0279169742121002,0.84360196439,1.30767444374,0.00557261158698052,0.07446306822207649,Null
-0.9174749479788945,-1.10778808593,-0.62622070312,0.016838470988938634,0.1294366855139354,0.3265521945621105,0.06884765625,0.85229492187,0.03719324824368334,0.19237033944644433,-0.28073227465090456,-0.55285644531,0.08166503906,0.02859143584795134,0.16866463853139596,1.0447376690564825,0.70606284446,1.27255530896,0.018028990114931358,0.13393428304454136,Null
-0.7635856362686567,-1.44555664062,-0.29125976562,0.06618920919897393,0.2566318562663652,0.19311766363238805,-0.10217285156,0.44213867187,0.01809325113245085,0.13417613408375775,-0.6240841689951244,-0.90673828125,-0.20080566406,0.02774654703191661,0.16615807085233555,1.0366043287266669,0.64146979385,1.71857953093,0.04699542880042389,0.21624435413887502,stairs down
-0.9421130371059999,-1.67700195312,-0.48999023437,0.07222781837145617,0.2680796136963773,0.19070922851170002,-0.041015625,0.4765625,0.01291457171839931,0.11335783545837189,-0.5323901367153,-0.90673828125,-0.27392578125,0.01874494079964417,0.1365694552073997,1.1102756289938,0.62447661896,1.83065613338,0.07843433577338046,0.2793602765149576,stairs down
-0.8780920410123001,-1.44482421875,-0.45361328125,0.0527131431830869,0.2290187273285123,0.10026489257650001,-0.57458496093,0.47485351562,0.06424904458188711,0.2528394734984585,-0.5789855956987,-1.52917480468,-0.18920898437,0.0939013551750024,0.3056662369302952,1.1192924227005,0.5033990836,1.8877911531,0.07368512453434135,0.27077056507617225,stairs down
-0.8231542968712999,-1.29016113281,-0.54504394531,0.030422989171861016,0.17398527014089932,0.17749023437150002,0.04638671875,0.30493164062,0.0034447632842352018,0.058545191671169935,-0.5624108886679999,-0.85632324218,-0.21423339843,0.021461415486982185,0.1461304499738069,1.0249567088521,0.65183848383,1.42590760494,0.030058346263979626,0.17293945337215486,stairs down
-0.802693889364824,-1.18090820312,-0.47351074218,0.023953238980965127,0.15437898479354273,0.14682911628070353,0.01391601562,0.26696777343,0.003457609966207448,0.05865351687455872,-0.5880863055463316,-0.88415527343,-0.31530761718,0.015102182798037187,0.12258177854892588,1.0160788356567336,0.6766245547,1.36619763098,0.021714086346914095,0.1469862930178204,stairs down
-0.8539929199192001,-1.90551757812,-0.22924804687,0.1433172957064878,0.3776250908347529,0.27012207031040003,-0.3330078125,0.890625,0.0894760527551268,0.29837672913843527,-0.44880371093370003,-0.76599121093,0.16845703125,0.05199675673771223,0.22745718927750705,1.107954309766,0.63012795815,1.92996684843,0.05979699822463001,0.24392214584474872,Null
-0.9087451171838,-1.2236328125,-0.64953613281,0.02086442059618212,0.14408365102676018,0.2444042968716,-0.11450195312,0.42419433593,0.00842626302078431,0.09156490433392254,-0.40869018554229997,-0.63500976562,-0.23278808593,0.009150615138331845,0.09541940087131226,1.0324326053751,0.69448252229,1.37597671952,0.0250360037335694,0.15783163090743743,Null
-0.8841174316367,-1.22009277343,-0.5927734375,0.026465335890975803,0.1622744872477523,0.2581896972622,0.03173828125,0.43786621093,0.009372676765140885,0.09657025101611355,-0.4836694335906,-0.82055664062,-0.28820800781,0.014568615972157297,0.12039839239913674,1.05247913791,0.71064342453,1.37597671952,0.024828073805661433,0.15717484988582978,Null
-0.4987731626868341,-1.58386230468,0.18310546875,0.3013163604408142,0.5475419690542316,0.38214141998603013,0.04260253906,0.90698242187,0.04058371497428587,0.2009471988062621,-0.6622210171916584,-1.10949707031,-0.27844238281,0.05381973069319336,0.23140717314981263,1.0812908110857287,0.55222317136,1.83651628907,0.05817720227877065,0.2405927150364825,Null
-0.8115762739008456,-1.73046875,0.11120605468,0.1636885155234934,0.4035766901091984,0.39868649914194026,-0.04797363281,1.31762695312,0.07290976358048493,0.26934555581686037,-0.3945518987066666,-0.99438476562,1.68151855468,0.2745233597019696,0.5226447855310103,1.1735051390286069,0.74443937297,2.15138409469,0.10526632052352515,0.3236396259516048,Null
-0.9052124023403999,-1.08801269531,-0.82446289062,0.0030414894897350057,0.055011653695251975,0.2794433593711,0.13952636718,0.36474609375,0.001839970823571466,0.042787509502816456,-0.4106091308555,-0.72924804687,-0.22595214843,0.007418365123614705,0.08591433697583094,1.0369676147090998,0.94296336105,1.18630109045,0.003049683562984089,0.05508570726757685,Null
-0.8809985351528001,-0.89172363281,-0.84558105468,8.48302949005392e-05,0.009187281612426849,0.31709838866719997,0.25805664062,0.90673828125,0.019773651324121132,0.14026682810807595,-0.4275927734335,-0.587890625,-0.36291503906,0.0011029937519289404,0.0331282173255564,1.0370338987289,1.00451025993,1.32799233166,0.004987686243638816,0.0704467729028138,Null
-0.15508911132410003,-0.87158203125,-0.03735351562,0.028863810263546764,0.16946826019119046,0.7290368652317,0.5673828125,0.86059570312,0.0033230155122134647,0.05750130811253251,-0.6630383300746,-0.73059082031,-0.29943847656,0.010267724612073858,0.10107613956326927,1.0168812315637001,0.8410000404,1.27749267199,0.0033789437111448675,0.057983178531270115,Null
-0.33415832519205,-1.16088867187,0.08312988281,0.14006970971556537,0.37332206091655973,0.5471832275356501,0.19079589843,0.76574707031,0.04160511103390643,0.20346273732243186,-0.7039141845665,-1.15368652343,-0.298828125,0.03505974796506837,0.18677379159090557,1.04299969898365,0.59159393104,1.51799976476,0.034541682229050734,0.1853887100605252,Null
-0.9067199706994002,-1.0751953125,-0.69775390625,0.006772060602405395,0.08208654152413396,0.25599609374480004,0.16467285156,0.35681152343,0.0026930532503061998,0.051764736878058874,-0.4350622558554999,-0.58618164062,-0.26635742187,0.0078103750360367236,0.0881551085352207,1.0424782151769,0.89356386774,1.20817391464,0.00741965233723058,0.0859217904582093,Null
-0.9859106445272,-1.64050292968,-0.23046875,0.14262039223492132,0.37670584050920514,0.44033325195019996,-0.25415039062,1.13256835937,0.15485418929830105,0.39253014960867594,-0.4530554199193,-1.55334472656,0.267578125,0.15439568400094064,0.3919486006875595,1.3243557824426997,0.90702954833,1.91748878782,0.06720106633493364,0.25858279332403183,stairs up
-0.97744323730085,-1.48217773437,-0.16906738281,0.072731194166471,0.26901215250549304,0.2065252685537,-0.19702148437,0.9736328125,0.08016003666681469,0.28241677797801,-0.5698999023392,-1.14025878906,-0.01147460937,0.08895564896361251,0.29750776581258254,1.228023627262,0.84096379667,1.79193830694,0.055537275125697234,0.23507358156557862,stairs up
-1.04454833984,-1.65478515625,-0.45129394531,0.06183993002286739,0.24805388602630893,0.2065972900361,-0.22412109375,0.73168945312,0.05914012940859801,0.2425787063234426,-0.47734741210544995,-1.10168457031,-0.04150390625,0.08161606808265025,0.28497015237080003,1.2305964654316,0.70617298069,1.73250604573,0.04908513819345765,0.22099708709050978,stairs up
-1.0597717285118,-1.83972167968,-0.38732910156,0.08960968956106921,0.29859946602977017,0.1921240234363,-0.37231445312,0.703125,0.08770748067568496,0.2954131738299877,-0.3447216796845,-0.87536621093,0.17419433593,0.07289514407342709,0.2693151840373282,1.2103198148245,0.77064068208,1.91246995263,0.06326431352914037,0.25089438407723413,stairs up
-0.9789575195275,-1.31286621093,-0.60437011718,0.03204121984429253,0.17855255177417953,0.17474243163689998,0.00061035156,0.35424804687,0.00828883291329491,0.090815135020152,-0.45821289062139997,-0.8291015625,-0.22705078125,0.02348108593516325,0.15285182532599156,1.1062104769139,0.74965689678,1.56815583843,0.03883644156032677,0.1965763448447578,stairs up
-1.01809387206635,-1.5986328125,-0.31689453125,0.06566565112213156,0.25561166418323106,0.26931579589465,-0.10302734375,0.81823730468,0.046368912682471015,0.21479540991152174,-0.3706726074188,-0.76416015625,-0.056640625,0.031107933639593632,0.17593292463719137,1.1591998934210002,0.82599586613,1.63002790624,0.04513834993109413,0.21192606772513536,stairs up
-0.7783306884739501,-1.53063964843,0.16369628906,0.1878549129767236,0.4323374126904124,0.51968200683315,-0.33569335937,1.73706054687,0.24435263931537074,0.4930830316678864,-0.27308959960595003,-1.14440917968,0.05517578125,0.06485453079523429,0.2540280656566477,1.16033526141225,0.69460746295,1.97807214404,0.09914053472927518,0.31407774842485864,stairs up
-1.0020043945268,-1.46166992187,-0.55358886718,0.03785071830646769,0.19406561961082994,0.2181298828093,-0.19836425781,0.63854980468,0.029803753401825134,0.17220550117466052,-0.441947021481,-0.79919433593,-0.20971679687,0.01959526231975378,0.13963268244990143,1.1402579981693501,0.76190047419,1.51824288555,0.03370432682630328,0.18312783838666302,stairs up
-0.9451397705038499,-1.42309570312,-0.22888183593,0.055804202346591704,0.23563781813380202,0.2305096435513,-0.02819824218,0.98193359375,0.0662628646290688,0.2567713969777854,-0.46163818359045,-0.84582519531,-0.11206054687,0.03336660185642846,0.18220803727373366,1.1251081206271498,0.63684417799,1.68138497211,0.05234302627590366,0.22821330185710945,stairs up
-1.0810003662075,-1.69812011718,-0.41796875,0.0898225428311798,0.2989538929618143,0.28474731445119994,-0.26733398437,0.85046386718,0.09619696531764371,0.309379993682616,-0.44677795409905,-1.20458984375,0.17700195312,0.09994621874277798,0.3153513717253567,1.29564231771545,0.79100816511,1.87826036466,0.05537713356736067,0.2347344199292551,stairs up
-0.8716613769491002,-1.20654296875,-0.47534179687,0.03168407303459515,0.17755464699472717,0.1959240722642,-0.232421875,0.86145019531,0.05165366521236037,0.22670552901572244,-0.52562133788675,-0.9501953125,-0.14172363281,0.040936923325125,0.20182229487472234,1.0782613155256,0.74293308954,1.5438025286,0.03564162080965805,0.18831731918655215,stairs up
-0.9816198730433502,-1.27270507812,-0.53955078125,0.036723536689001794,0.19115417600867834,0.1427148437474,-0.05578613281,0.28540039062,0.007560488350946851,0.08673341864121417,-0.50927368163695,-0.80700683593,-0.2080078125,0.023162977466497668,0.1518129196714337,1.1273011160292,0.73347004465,1.49992410646,0.03980577475331861,0.19901443635965713,stairs up
-0.6924218749964501,-1.34753417968,-0.1826171875,0.1118944619406853,0.3336689821229745,0.38317932128645,-0.19799804687,0.95935058593,0.08195003155639936,0.2855525895498365,0.18123535156109993,-1.00769042968,1.11401367187,0.418076617293462,0.644969948297589,1.1011258266297501,0.62954301762,1.61682149642,0.0557830322184857,0.23559311759343327,stairs up
-0.38725219726215004,-0.76171875,-0.09265136718,0.020415571213743697,0.14252541302404628,0.66726928710545,0.455078125,0.99182128906,0.018906117789892776,0.1371553396734641,0.6737261962858,0.41821289062,0.95581054687,0.02275780978178083,0.15047930333727602,1.0382898304333,0.74821199432,1.53927289909,0.033007922284110716,0.18122605406698608,stairs up
-0.2663287353482,-0.38513183593,-0.01977539062,0.00931203739395025,0.09625734884662314,0.7929547119097999,0.57385253906,0.97277832031,0.009714368326842084,0.09831478263825778,0.5868347167925001,0.42736816406,0.75146484375,0.00814993593417882,0.0900510202857687,1.0286135356785,0.85207339368,1.22219636452,0.013143527049302717,0.11435825031040045,Null
-0.6147924804661501,-1.29370117187,0.03393554687,0.18652184667790964,0.43080069341230187,0.53837890624585,0.14245605468,0.99951171875,0.05883239651480588,0.24194675970599783,0.03466186523565,-0.56176757812,0.89465332031,0.2485843321377889,0.49733430454484034,1.06719947020885,0.6406183475,1.5592691827,0.021685687307517215,0.1468919973006686,Null
-0.9386267089808001,-1.16101074218,-0.67919921875,0.013003786710826791,0.11374870450810708,0.25835693359024997,-0.29809570312,0.66003417968,0.023802887081066884,0.1538956550577746,-0.3635888671847,-0.72021484375,0.08044433593,0.022339398980829168,0.149089577053277,1.0622068433542,0.85301351727,1.30640634509,0.010585158419590951,0.10262666625927687,Null
-0.8920733642544001,-1.12731933593,-0.67919921875,0.006314708910556609,0.07926623093098237,0.2892083740202,0.17761230468,0.60803222656,0.007578460070568768,0.08683644263911278,-0.38180908202815006,-0.58862304687,0.107421875,0.02593708594816187,0.16064681919795692,1.0303686358881499,0.88756199371,1.17311078715,0.003202134440739443,0.05644575952660878,Null
-0.9458996581984,-1.13317871093,-0.75134277343,0.011454774864557043,0.10675907919345434,0.27441040038700004,0.1123046875,0.44665527343,0.006765144840093282,0.08204461661737969,-0.3839477539024,-0.7783203125,-0.09448242187,0.027566485818352388,0.16561598168431882,1.07381217151275,0.89981612704,1.24063144244,0.009977892217718021,0.09963936348968429,Null
-0.9348126220673,-1.09997558593,-0.74572753906,0.008055754414406301,0.08952918877290393,0.2513946533165,0.1103515625,0.37243652343,0.004947752275217096,0.07016418968277914,-0.4044293212860499,-0.67443847656,-0.09826660156,0.015005921415519204,0.12219202841610254,1.05969945812305,0.91834823393,1.19663888604,0.005571281835870619,0.07445418340624835,Null
-0.9719024658170501,-1.30603027343,-0.63232421875,0.033139023714410756,0.18158559578292188,0.20892639159794998,0.07165527343,0.45727539062,0.011284519071105921,0.1059627126670056,-0.40784667968385,-0.69030761718,-0.06140136718,0.020362341427973142,0.14233948756698991,1.0845711670891498,0.72785164691,1.42509925417,0.04296572121510972,0.20676288982560234,Null
-0.6849212646451499,-1.21276855468,-0.21752929687,0.04478880926868843,0.2111039204333851,-0.075294189452,-0.85363769531,0.220703125,0.05184045005425032,0.22711505411130076,-0.71761108398005,-1.38110351562,-0.35998535156,0.038392933635441294,0.1954506816751072,1.0398675777982502,0.70722383436,1.82245132955,0.042989471575382486,0.20682002856954057,stairs down
-0.6300909423794,-1.25305175781,0.04931640625,0.09444253750094868,0.3065457956218678,0.06606201171705,-0.3251953125,0.34790039062,0.017237284188859912,0.13096219976739706,-0.7739160156210501,-1.53308105468,-0.3447265625,0.06682584773341493,0.2578598815146471,1.0595274326166,0.66066909372,1.54210993852,0.05561763307223843,0.23524358632463763,stairs down
-0.6674346923810499,-2.21948242187,0.95568847656,0.6280934598593065,0.7905396843675908,0.00181884765535,-0.97790527343,0.80822753906,0.19953596576694824,0.4455763525346846,-0.37094421386535004,-1.42114257812,0.72790527343,0.2552231863842003,0.5039316128725001,1.18904300055725,0.37838652449,2.46992125974,0.2479267119368903,0.4966760295979723,stairs down
-0.9704406738237,-1.58325195312,-0.52880859375,0.04329524563621092,0.20755425654037998,0.15269653320095,-0.0986328125,0.52172851562,0.02822603693937006,0.16758552071904426,-0.52538696288665,-0.91247558593,-0.29992675781,0.013469200923401042,0.11576638077949936,1.1318862662637499,0.79848009096,1.84941458154,0.04472543192344683,0.2109545087544459,stairs down
-0.6892919921840001,-1.24853515625,-0.13830566406,0.06347292358560282,0.25130769778833834,-0.010226440429450001,-0.49255371093,0.25891113281,0.034008297852662406,0.1839517772770872,-0.7885723876919499,-1.38586425781,-0.33557128906,0.05306183969522725,0.2297749562000853,1.08772740565665,0.56736972025,1.56983020834,0.06403404825641688,0.25241608113417574,stairs down
-0.84059570312115,-1.69018554687,-0.00805664062,0.18294615773080639,0.42665141150844954,0.11522705077874999,-0.28576660156,0.466796875,0.028978241094324217,0.16980385710829007,-0.6253796386674499,-1.11547851562,-0.21398925781,0.04697499005470123,0.2161946232088757,1.1334104026789502,0.54497605741,1.85231473184,0.08438578174356103,0.28976516842927,stairs down
-0.9497448730425,-1.14624023437,-0.66845703125,0.013427617919891067,0.11558754184725796,0.1575732421836,0.01062011718,0.36352539062,0.00918441283644997,0.09559545372175247,-0.50350463866845,-0.73120117187,-0.34448242187,0.007429801278073967,0.0859805342602824,1.0912280685265001,0.81004373951,1.37429742311,0.019572358813545004,0.13955105524315206,stairs down
-0.87954040527015,-1.48254394531,-0.45373535156,0.055893386532926415,0.23582603673102295,0.0889874267557,-0.16235351562,0.42041015625,0.015187700710538762,0.12292990769941246,-0.5728009033168,-0.87463378906,-0.18896484375,0.027018255725689597,0.16396086254671005,1.08306309750465,0.78158579285,1.68380635948,0.03436596436609431,0.18491656103298007,stairs down
-0.7897528076137499,-1.12121582031,-0.32678222656,0.03709166651955899,0.19210988570857354,-0.00173095703175,-0.29699707031,0.23889160156,0.0170900226769236,0.13040158190581502,-0.62935424804285,-0.96472167968,-0.30505371093,0.021715925433185766,0.1469943733821803,1.03838458260765,0.76610037584,1.30566364022,0.01716065129101417,0.13067076197282657,stairs down
-0.8379510498010001,-1.37438964843,-0.5107421875,0.040046858577311426,0.19961619244045525,0.091159667966,-0.13354492187,0.25256347656,0.009208460722339568,0.09572052245327473,-0.6189660644496999,-0.85583496093,-0.279296875,0.02083515634329799,0.14398257033954318,1.05902903270625,0.6580709217,1.59726192579,0.04199855981623935,0.2044225208169544,stairs down
-0.9551226806604501,-1.21630859375,-0.44897460937,0.01959489595629142,0.13963137712029472,0.17640014648064997,0.037109375,0.36975097656,0.011387754251849328,0.1064463032734819,-0.48170898437125,-0.72082519531,-0.31115722656,0.009937050270814601,0.09943523027308042,1.09114320861165,0.63964537408,1.35513637986,0.02566984190259266,0.15981706008145594,stairs down
-0.93192321776945,-1.17858886718,-0.58312988281,0.02205864592069057,0.14814976439767671,0.1699145507775,0.01550292968,0.35815429687,0.010319649520249573,0.10133139332234767,-0.46167480468479993,-0.65661621093,-0.24951171875,0.009529470774372314,0.09737465491851795,1.0607774086372501,0.63503788904,1.36007438404,0.027080382284039584,0.16414926247966935,stairs down
-0.84396911620695,-1.36853027343,-0.56518554687,0.030507104525039012,0.17422562670977487,0.14545898437175,0.00512695312,0.33288574218,0.004023629516785717,0.06327330692481457,-0.5674548339805,-0.86267089843,-0.31396484375,0.015822601256799955,0.12547305786708138,1.0381118645961498,0.77443390059,1.51539037304,0.028012561871551465,0.16695058868477736,stairs down
-0.76736755370715,-1.216796875,-0.4462890625,0.027544643701717605,0.16555035633670204,0.09674560546729999,-0.10986328125,0.26245117187,0.01021381671073691,0.10081045395782734,-0.6415765380819499,-0.8232421875,-0.34301757812,0.01593481330678189,0.12591719199635917,1.0205504435631498,0.68700114488,1.39774082454,0.02184394811410068,0.1474270272830941,stairs down
-0.9056060790979501,-1.21936035156,-0.58239746093,0.019990032332762406,0.14103220260315938,0.16000854491840003,-0.02014160156,0.36462402343,0.008055959453162925,0.08953032813464447,-0.53669860839435,-0.71313476562,-0.32214355468,0.006242486277082745,0.0788116352177604,1.0703682633554,0.77688649401,1.35560097173,0.022310872034214845,0.14899435450393336,stairs down
-0.9354620361292502,-1.12548828125,-0.76708984375,0.00799038470047859,0.08916519936037937,0.14585876464460001,0.02270507812,0.36560058593,0.010007297264523074,0.0997860750716274,-0.511434326168,-0.64172363281,-0.39306640625,0.004566293132753228,0.06740520504448794,1.0806686462257,0.91255458936,1.30964928373,0.012598495008657878,0.11196205845559731,stairs down
-0.8827056884727,-1.16552734375,-0.62487792968,0.018688013796010493,0.13636192183681792,0.1438702392543,-0.02575683593,0.25939941406,0.0036088739323720193,0.0599235309599673,-0.515344848629,-0.70178222656,-0.30847167968,0.0077313350669140895,0.08770791521624213,1.03655239343525,0.74113086976,1.3574290982,0.020990460863049676,0.1445181945594894,stairs down
-0.82046264648085,-1.22644042968,-0.60583496093,0.021679474287584197,0.1468709532758138,0.15658569335585,0.013671875,0.29125976562,0.004953088135880348,0.07020201346970717,-0.5746118164023,-0.77868652343,-0.29345703125,0.017102998878558092,0.1304510785090154,1.02460807734375,0.67937376739,1.35632638979,0.02389526387948814,0.15419399326851452,stairs down
-0.8808862304658,-1.23327636718,-0.61340332031,0.02336780527121126,0.15248267522854916,0.1450048828086,-0.05773925781,0.28015136718,0.003818899926207425,0.061642561810622276,-0.495893554683,-0.66638183593,-0.33312988281,0.008634126821312807,0.09268741115818395,1.0278248713445999,0.70502776074,1.38513442859,0.02222627773041261,0.14871162140787972,stairs down
-0.9039447021445,-1.01904296875,-0.81518554687,0.001274457705323595,0.035610186980651715,0.17498413085585,0.10900878906,0.26220703125,0.0011229525424361563,0.03342660287441689,-0.44141601562175,-0.56823730468,-0.29516601562,0.0034493126102325927,0.05858383776419423,1.0235630394050501,0.97753294219,1.1316084415,0.0006583100166680952,0.025593328556183438,Null
-0.8925976562458001,-0.96472167968,-0.87170410156,0.00019834650220622695,0.014048301309951883,0.19160644530919999,0.1640625,0.24780273437,0.0003830432652117182,0.019522501091962054,-0.444907226559,-0.48754882812,-0.38110351562,0.0002858102261720541,0.016863605042848753,1.0159239954352,0.9940009403,1.06645862744,0.00014808598847068007,0.012138597881482303,Null
-0.7810620117145999,-1.15173339843,-0.32690429687,0.05838271613683395,0.24102033639539586,0.42139648437159993,0.13647460937,1.14025878906,0.09433906931378963,0.3063778287788147,-0.3362499999968,-0.54260253906,0.00903320312,0.02634464805417235,0.16190406052320455,1.029435367574,0.67002713235,1.26386880298,0.019226985938821776,0.13831431960982082,Null
-0.7606005859346001,-1.1220703125,-0.49035644531,0.03139506174700103,0.17674299544328773,0.1421850585904,-0.01892089843,0.30090332031,0.009587999737917192,0.09767322938875117,-0.7182055664026001,-0.94384765625,-0.51794433593,0.012910772933656056,0.11334116228885151,1.0748133276594,0.83638988268,1.31751994782,0.013014827892353935,0.11379698481459061,Null
-0.6692480468720001,-1.15698242187,0.61572265625,0.22076176712647894,0.4686768164640177,0.3482299804654001,-0.0625,1.2197265625,0.09713435068206577,0.31088370643804325,-0.30077392577939993,-1.12487792968,0.55090332031,0.17312943480479187,0.41504672945436866,1.0460906720476,0.44112314581,1.54894096954,0.054157540374450135,0.23213520343234864,Null
-0.9070019531216001,-1.08679199218,-0.62585449218,0.009797747027353957,0.09873580045868462,0.24135986327799996,0.10729980468,0.40539550781,0.0047844949619444575,0.06899690201113913,-0.4269067382772,-0.64953613281,-0.23254394531,0.010495450203112376,0.10219086530652735,1.0382138123866,0.73975456409,1.29600088121,0.010272234427709753,0.1010983345835687,Null
-0.9115234374960001,-1.14978027343,-0.69299316406,0.014227185417031864,0.11897919771937741,0.38999511718359997,0.19848632812,0.69775390625,0.02611923419062357,0.16120991911067525,-0.188310546873,-0.58093261718,0.18151855468,0.03978566893270161,0.1989641691059928,1.0449232462874003,0.85974434805,1.25466335767,0.00633052066659732,0.07936540848042259,Null
-0.7397998046837999,-0.79663085937,-0.71813964843,0.0002801652889093117,0.016696240968097135,0.7007397460903999,0.64514160156,0.72192382812,0.00029040593596687137,0.01699864424849926,-0.060563964839800005,-0.07849121093,-0.03881835937,7.618193051161949e-05,0.008706378171149092,1.0210825193700002,1.00897361344,1.03762515042,4.215540082870066e-05,0.006476466924532014,Null
-0.7367211914021999,-0.75012207031,-0.72705078125,3.187218504211819e-05,0.0056314140423971305,0.702895507809,0.67724609375,0.72290039062,0.00011845488045327223,0.010856454580156723,-0.06000244140239999,-0.06860351562,-0.04638671875,2.555404475951326e-05,0.00504244727644382,1.020075213243,1.00234256485,1.03348797655,4.2274135864067754e-05,0.0064855813297458095,Null
-0.7345288085896,-0.74853515625,-0.72058105468,4.645736374039178e-05,0.006798902626283879,0.7009960937466001,0.68139648437,0.724609375,0.00010105482897887975,0.010027440093761985,-0.055651855464800004,-0.07250976562,-0.02551269531,7.314852733890827e-05,0.00853128271142234,1.0169668489238,1.00698296465,1.02549479364,2.332534684866644e-05,0.004817542954081791,Null
-0.7322998046836,-0.74108886718,-0.72521972656,9.672126577688245e-06,0.003102219519118498,0.7092285156206001,0.68933105468,0.71850585937,5.0825689309082024e-05,0.007111368424047275,-0.0604687499966,-0.07421875,-0.05212402343,1.9950938591805216e-05,0.0044554667430973145,1.021266212276,1.01175859733,1.02813454568,2.0031368504194477e-05,0.0044644385606337446,Null
-0.7317089843710001,-0.80578613281,-0.68237304687,0.00044366244694502547,0.021010571974848766,0.7082202148406,0.65783691406,0.78649902343,0.00046151595497643085,0.021429147794570568,-0.05675048827839999,-0.11315917968,0.04919433593,0.0011253867615056794,0.03346281260889693,1.0208212698216,0.99053124486,1.06190659978,0.00013957372426532847,0.011784560053052546,Null
-0.765510253902,-0.88696289062,-0.59423828125,0.002361472174100279,0.048473341263314804,0.6689819335896,0.55871582031,0.81408691406,0.0024333816377353954,0.0492058404007768,-0.07766357421560001,-0.19018554687,0.04992675781,0.002156375814178977,0.04632055629100413,1.0227916580848,0.96442484545,1.07523886361,0.0003900549670799783,0.019700372896079364,Null
-0.5057958984347999,-0.90283203125,0.43041992187,0.21130833867520699,0.4585322202221246,0.593586425778,0.19873046875,1.11901855468,0.0425533970455863,0.20576838936133598,-0.33636230468359996,-1.01354980468,0.13696289062,0.11321254725405376,0.3356284918146603,1.0347009465978,0.67029776745,1.44141473741,0.016026933090480647,0.12628063361033728,lift up
-0.7678173828086,-0.78369140625,-0.75109863281,4.6673108582351205e-05,0.00681467116150438,0.6458081054651998,0.6259765625,0.66320800781,6.968783974003208e-05,0.008327028313950416,-0.17929687499560004,-0.19653320312,-0.16674804687,4.6753404122558596e-05,0.006820530558684259,1.0192616501276002,1.00390623515,1.03231834934,2.7134846501410324e-05,0.005196072773634264,lift up
-0.7631860351522001,-0.77270507812,-0.75537109375,1.4885280601124151e-05,0.0038484872610050993,0.6522583007762001,0.64135742187,0.66564941406,4.3678074028179844e-05,0.00659239589664023,-0.17850585937160002,-0.18725585937,-0.16882324218,2.1962927814901657e-05,0.004674731347984304,1.0197144145214,1.00948653062,1.02921306406,2.0897973928213803e-05,0.004559987287106482,lift up
-0.7599731445278001,-0.7734375,-0.73596191406,8.059042182282935e-05,0.008954745653211776,0.6553833007776,0.63049316406,0.67724609375,9.161817967242157e-05,0.009547779258762714,-0.1792211914024,-0.1953125,-0.15295410156,0.0001009083812469588,0.010020171622318852,1.0195274708236,0.99783168346,1.03504576183,4.238635596969973e-05,0.0064941838740407735,lift up
-0.7588891601526001,-0.79553222656,-0.71960449218,0.00036303403390731866,0.01900575869934642,0.617561035153,0.57482910156,0.65698242187,0.0005332557460028186,0.02303452771976896,-0.1849755859348,-0.20471191406,-0.16845703125,5.1849715068755386e-05,0.007182650380842131,0.9960131768508,0.9551038602,1.02381873856,0.00041357513988881875,0.020285641823451744,lift up
-0.7740161132773999,-0.79040527343,-0.76635742187,3.237509247940422e-05,0.005675668860760571,0.6299926757772,0.61096191406,0.6484375,7.934321710536507e-05,0.0088851843548594,-0.18658447265279998,-0.20043945312,-0.16333007812,7.461078801967294e-05,0.008616132199518215,1.0153694795266,1.00717510353,1.02437323097,1.577696695466699e-05,0.003962080529203521,lift up
-0.7696142578090001,-0.77844238281,-0.7607421875,1.6328341993581187e-05,0.004030719573923902,0.6389990234342,0.62512207031,0.64953613281,3.7645239325753276e-05,0.00612021348721795,-0.191408691402,-0.2060546875,-0.18359375,2.197553764022689e-05,0.004676073133733662,1.0184847624008,1.00311560611,1.02590756419,2.7641256244959877e-05,0.005244335035420132,lift up
-0.7713427734337999,-0.80090332031,-0.7568359375,5.7129021263300875e-05,0.007539454632596735,0.638674316403,0.60949707031,0.65173339843,6.327526653367608e-05,0.007934663836673088,-0.19121582030839998,-0.21130371093,-0.15942382812,8.812631194848854e-05,0.009364063241389716,1.0196145359356001,1.00830879854,1.0303393736,3.189201460428268e-05,0.005633165587062151,Null
-0.7906958007774,-0.84619140625,-0.73620605468,0.0006587762269626516,0.025602389455436348,0.6277368164029999,0.57934570312,0.72778320312,0.0013996459072239192,0.03731819499503961,-0.165512695309,-0.23425292968,-0.08776855468,0.0008914079138752553,0.029781720472563014,1.0244423707988,1.00597446857,1.05272795581,0.00010122829662758424,0.010036042803039767,Null
-0.7688616943319999,-0.78112792968,-0.75500488281,5.5281208019453376e-05,0.00741652222941158,0.63947509765215,0.62036132812,0.65808105468,9.955808145807539e-05,0.00995290364922644,-0.18544616698885,-0.19873046875,-0.17065429687,4.010650343414894e-05,0.006317117294856745,1.0171731732621998,1.00803063863,1.02627281386,1.9792001316815427e-05,0.0044376842283145096,Null
-0.7807348632774,-0.81335449218,-0.74914550781,0.00030227359815151577,0.01734249780627803,0.6555566406212,0.61840820312,0.68957519531,0.0004499039099016852,0.021157844652803764,-0.1901489257784,-0.1982421875,-0.17663574218,2.8152711431316125e-05,0.0052926314697095194,1.0370810434386,0.99010006146,1.07693079446,0.0007008921457460329,0.026408098852763004,lift up
-0.7565063476528,-0.77490234375,-0.72705078125,0.0002694131441380235,0.016372723610240704,0.6244287109332,0.59887695312,0.64855957031,0.0002577277523816779,0.01601371642123619,-0.1792553710888,-0.20092773437,-0.16101074218,0.000107292679690221,0.010332289982950047,0.9972098023900001,0.95868303649,1.0257157673,0.0005521895151402546,0.023439892652581694,lift up
-0.7661621093709999,-0.80432128906,-0.74645996093,0.00015070210749455285,0.012245350013661515,0.6465527343708,0.60766601562,0.68981933593,0.00029047479581393345,0.017000659452940752,-0.1709814453088,-0.19384765625,-0.13232421875,0.00038001611604939145,0.01944520597651628,1.0173735356234,1.00527025025,1.03473062222,3.783604787701184e-05,0.00613570433101423,lift up
-0.7408911132770502,-0.86157226562,-0.18811035156,0.016443510984101115,0.127911271704962,0.6563989257771999,0.48217773437,0.85998535156,0.0028309638116835525,0.05307361861250027,-0.1829833984335,-0.53479003906,-0.10437011718,0.008317415438776968,0.09097157996639986,1.01829247057315,0.73177853622,1.20340207241,0.003824843263222439,0.06169051018516808,lift up
-0.5990966796832001,-1.13916015625,-0.20288085937,0.08238044935258158,0.28630149686269313,0.11477783202939999,-0.20129394531,0.3916015625,0.028626504740350656,0.16877017573211478,-0.7392773437456001,-0.994140625,-0.44909667968,0.03679287634883921,0.19133455507851949,1.0274885646036,0.83344587321,1.37450530624,0.009999853475933589,0.099748955927137,Null
-0.9143505859338,-1.07934570312,-0.69677734375,0.012351752980916321,0.11086024632848215,0.22514160155939997,0.08410644531,0.32983398437,0.0031329403930502775,0.055832568372635574,-0.4102026367153999,-0.56030273437,-0.21960449218,0.007602067383144958,0.08697158758025078,1.0320535169444,0.81393352921,1.24447052562,0.012893269382681436,0.11326430609758764,Null
-0.024036254884149955,-1.05493164062,0.484375,0.33780776759061454,0.5797574740808966,0.47178955077759993,0.21423339843,0.93542480468,0.026435015339217778,0.16218150407035226,-0.69745788573915,-0.89306640625,-0.25854492187,0.03386334909208585,0.18355934284755276,1.04461377735795,0.73940584018,1.36971330841,0.014423404677841554,0.11979685995238919,Null
0.00816223144464999,-1.07019042968,0.42016601562,0.3000077844338886,0.5463586235356033,0.4968951415969,0.25573730468,0.88732910156,0.015984301827306202,0.12611257002444154,-0.691936645504,-0.84484863281,-0.31298828125,0.028464360841644436,0.16829152990402166,1.03035660521365,0.75967872534,1.26932132452,0.00688156394006087,0.08274754449746871,Null
-0.80148132323875,-1.54602050781,-0.18420410156,0.08465672504938758,0.2902299802297148,0.20021118163819998,-0.3056640625,0.658203125,0.0514991089184836,0.22636610473719598,-0.5371716308559499,-0.98596191406,-0.32214355468,0.033571079746280326,0.18276549003449455,1.04521564271245,0.57631257489,1.67661612283,0.0476509840457318,0.21774464201330682,Null
0.06361328124899991,-1.0625,0.58557128906,0.42359883679315385,0.6492155594324492,0.6894726562462,0.12487792968,1.07934570312,0.05308733894610672,0.2298301595774066,-0.36376464843359996,-0.54113769531,-0.1357421875,0.006321812370876524,0.07931080196935435,1.038838915321,0.75224028219,1.34476562864,0.013216652159329483,0.11467592990044961,Null
-0.06538330078045,-1.53515625,0.64807128906,0.2840330147773254,0.5316134401079781,0.48999877929339997,-0.35974121093,1.08703613281,0.045040693940265754,0.2116966945196935,-0.6292120361291501,-1.11779785156,-0.08874511718,0.06036335724029126,0.24507456100968497,0.992083575122,0.41064072107,1.69097395343,0.04351994181642491,0.20809214811554708,Null
0.060656127927800015,-1.53515625,0.56420898437,0.32406711913481107,0.5678439781657784,0.6691058349585001,-0.54711914062,1.13793945312,0.19793808498647136,0.4437886823270046,-0.24712341308479996,-0.75573730468,0.2451171875,0.12466368102597007,0.3521936436405975,1.0505371510624502,0.5661954948,1.69097395343,0.05252160852755594,0.22860227576495856,Null
