avg_accX,min_accX,max_accX,var_accX,std_accX,avg_accY,min_accY,max_accY,var_accY,std_accY,avg_accZ,min_accZ,max_accZ,var_accZ,std_accZ,avg_magnitude,min_magnitude,max_magnitude,var_magnitude,std_magnitude,Label
-0.8905283609990624,-0.91003417968,-0.87329101562,6.929614677707478e-05,0.008302724212325988,0.4777889251667708,0.45629882812,0.50219726562,0.00016062254821105874,0.012640647627361746,0.1365795135461979,0.0888671875,0.16796875,0.00038536893160185965,0.019579627211715925,1.0200799680155732,1.01024296912,1.0330540526,2.605986193516431e-05,0.005091574755179907,Null
-0.86828674316025,-0.98742675781,-0.73669433593,0.003304332419531629,0.057339434575464476,0.49775878905825005,0.23693847656,0.65954589843,0.008525129694601398,0.09210051056388553,0.15473266601215002,-0.14221191406,0.31469726562,0.007943432461173884,0.08890284190546449,1.0221249592408,0.95755950984,1.08696063302,0.000565302680014324,0.02371657999405168,Null
-0.8073309326142001,-1.04833984375,-0.46728515625,0.018350628242538386,0.1351254050921798,0.58508056640235,0.20715332031,0.94116210937,0.02402307878797793,0.1546058323415971,0.0793499755841,-0.65295410156,0.37841796875,0.04809487874931278,0.2187564955734257,1.0329843969132,0.6527302562,1.33663584208,0.023475780048848684,0.1528345548251587,Null
-1.0243725585901,-1.56457519531,-0.61059570312,0.0641733537426717,0.25269049640609426,0.37074035644154996,0.01037597656,0.72485351562,0.031123492046406995,0.17597691492401768,-0.0090747070318,-0.65295410156,0.35046386718,0.028067943503675974,0.16711554022938022,1.1197737437782502,0.72446800148,1.6122637766,0.05600465234683853,0.23606064704881316,Null
-1.0870959472624002,-1.5517578125,-0.69958496093,0.04056822175225976,0.2009113750973261,0.25072204589535,-0.02673339843,0.45263671875,0.01747312209974308,0.13185505864108651,0.0826123046857,-0.18688964843,0.423828125,0.015018052826538073,0.12224141099645972,1.13396636182245,0.73881937024,1.62033959276,0.038470679082006624,0.19564847478729955,stairs up
-1.1265930175743,-1.55944824218,-0.78955078125,0.04043047717927229,0.20056999973419737,0.2656549072232,0.06079101562,0.52819824218,0.0161990868532139,0.12695704556639553,0.0932366943327,-0.14465332031,0.21276855468,0.00676120020867273,0.08202069377681079,1.1720131224648,0.85588295371,1.58183661782,0.03812712496484404,0.1947729173679437,stairs up
-1.13617065429295,-1.63037109375,-0.67663574218,0.059623347753326346,0.2435677134075034,0.22348327636344997,0.01220703125,0.59094238281,0.01952618262235253,0.13938633975121367,0.07910583495910001,-0.17834472656,0.35595703125,0.015093112317406452,0.12254650854193856,1.1763710443529,0.68805522606,1.65612341289,0.057295335781627564,0.23876528035440878,stairs up
-1.0665702434457576,-1.57409667968,-0.59814453125,0.06178418154683069,0.24793575826388395,0.27179879852787875,-0.01135253906,0.58862304687,0.015326452918012181,0.12348703004827442,0.05533114346464646,-0.23889160156,0.47814941406,0.019161672705895465,0.13807569149244997,1.1190097484269697,0.69213785376,1.58526509222,0.05840645494194718,0.24106321338246695,stairs up
-1.1474477236988145,-1.70373535156,-0.53881835937,0.09704072725010485,0.31070969942347465,0.2645798516001546,-0.04187011718,0.48974609375,0.02336518194351037,0.1524622670083563,0.05120534995072166,-0.11999511718,0.38720703125,0.015419342385474709,0.12385419346617953,1.1980065140391751,0.55195695102,1.72253456464,0.09249477190664418,0.30334467974874335,stairs up
-1.1347955067917186,-1.66040039062,-0.72290039062,0.07714739734380062,0.2770299405888017,0.24417114257499997,-0.09313964843,0.50903320312,0.02831947709838172,0.16784510663652857,0.05183728535765625,-0.13330078125,0.28601074218,0.012769190398552422,0.11270618527197147,1.1793474229077605,0.73271763234,1.6865793295,0.07722963904123906,0.27717756283274314,stairs up
-1.1979090913772341,-1.6005859375,-0.82275390625,0.04545360063827935,0.21263072724044177,0.24688071392595745,0.01147460937,0.50903320312,0.016145854110104642,0.12672794446131966,0.09381363239457448,-0.14343261718,0.37866210937,0.016205350099000707,0.12696122017474998,1.2409189549321806,0.84257199917,1.61633446443,0.04247429965461923,0.20554408901449048,stairs up
-1.1108189547091978,-1.43127441406,-0.8037109375,0.028688245925445638,0.16892256464318325,0.21688565340572194,-0.15759277343,0.43908691406,0.018547225950756033,0.13582357278573334,0.06695393444812833,-0.07958984375,0.22680664062,0.005747499221810547,0.0756092846934445,1.1442856544142779,0.84379890088,1.48595243259,0.02890552191754646,0.1695610419112544,stairs up
-1.119033730993135,-1.44445800781,-0.86096191406,0.03135498225559724,0.17659415580654544,0.2295858847096216,-0.00708007812,0.42541503906,0.014888246341602742,0.1216871781838614,0.10644465265697298,-0.041015625,0.37023925781,0.008627383037789161,0.09263232985778881,1.1582494088361623,0.88708933677,1.46502208387,0.029468242095559417,0.17119858147907735,stairs up
-1.0865310836589561,-1.61669921875,-0.59484863281,0.06893882020114629,0.26183971332623773,0.23368349179785716,0.015625,0.486328125,0.01606301366912298,0.12639127878243683,0.020396473643516485,-0.19775390625,0.24658203125,0.014041370662666594,0.11817030199847246,1.1257788801562087,0.62735086819,1.62262865042,0.06706318939023267,0.2582531903532829,stairs up
-1.1112912356158242,-1.53405761718,-0.57873535156,0.06009156305331303,0.24446142769349766,0.39328707181115374,0.02453613281,1.49084472656,0.10480021938701814,0.32283803060632554,0.033422449131868134,-0.27111816406,0.38854980468,0.01948840310790239,0.13921682358805232,1.2243965577573075,0.70375360364,1.83629057309,0.0725513266596969,0.2686125332085819,stairs up
0.3644677466068681,-1.50512695312,1.10266113281,0.6758793066089784,0.8198571119684166,0.4382659576715934,-0.22509765625,0.75830078125,0.04034861249309084,0.20031704076301615,0.18473732078109892,-0.04260253906,0.45458984375,0.013144020903680666,0.11433197719188407,1.011074795648187,0.32172651569,1.67876657479,0.06247710594153653,0.24926657445325467,stairs up
-1.0527364095006666,-1.32434082031,-0.65258789062,0.028213307756841756,0.16750094673819796,0.25035468207133327,-0.14733886718,0.46362304687,0.018506950289171414,0.13566183655942454,0.09580078124794446,-0.14184570312,0.37182617187,0.015593003360215092,0.12452459822769738,1.1014288999238333,0.6551991746,1.38584893039,0.027979669393985523,0.16680595548792962,stairs up
-1.1035286549737642,-1.35461425781,-0.71069335937,0.024906604721933727,0.15737433074140422,0.2032834170874719,0.03332519531,0.46313476562,0.012456612500987705,0.11129524487542598,0.08663083194078651,-0.07458496093,0.22265625,0.005148598092448461,0.07155189294535763,1.1326917775558425,0.71984200865,1.42432654909,0.026033116463646814,0.16089394954555594,stairs up
-1.0223681640585143,-1.46960449218,-0.70666503906,0.03861907346471673,0.19595507915060112,0.25737234932634284,0.08325195312,0.42749023437,0.007259080275915243,0.08495645836071397,0.08203752790011429,-0.11206054687,0.31640625,0.011454144474190379,0.10671781585120708,1.0669006198359998,0.779293567,1.53290791676,0.03714736821382601,0.1921850606533152,stairs up
-1.1268240391486206,-1.60205078125,-0.68603515625,0.07188217259422908,0.2673369721153052,0.31198365660655175,-0.01245117187,0.59619140625,0.022697781104116712,0.1502242792835997,0.05373198410505747,-0.15686035156,0.32775878906,0.015005902990687674,0.1221460689866936,1.1864590790971263,0.68640970343,1.66055063387,0.07163595071864867,0.26687871749626185,stairs up
-1.108742518727544,-1.53063964843,-0.74206542968,0.06139567751928027,0.2470559419837133,0.25783248811824566,-0.00769042968,0.49645996093,0.01833673044282251,0.13501665860571288,0.047148408945321636,-0.10180664062,0.27954101562,0.011497511159262326,0.10691246069517911,1.1513787491343859,0.75448417254,1.5535787194,0.060122668015968814,0.2444812333619246,stairs up
-1.084477682671294,-1.65051269531,-0.73095703125,0.042784500114529576,0.2062348820748908,0.2663358800514118,-0.05029296875,0.53796386718,0.02090232265647415,0.14415050404809002,0.15046602136605883,-0.04162597656,0.36499023437,0.008949548724210521,0.09432340282215469,1.1409589744912352,0.73386666783,1.68216943345,0.04032559543425002,0.20022084319406575,stairs up
-1.0968119912482035,-1.33056640625,-0.76098632812,0.01835681128446922,0.13508105070221255,0.2511995052829341,0.05358886718,0.53186035156,0.01686636654409151,0.1294811582325423,0.0928224118136527,-0.11071777343,0.28332519531,0.005869048736635078,0.07638000217481071,1.137892918148503,0.81782814937,1.43961051794,0.020884665769713658,0.14408194852532047,stairs up
-1.1359720112327778,-1.48046875,-0.80187988281,0.027418122785281142,0.16507233297487214,0.22372398847055552,-0.02368164062,0.48486328125,0.01775861791776877,0.13284952698263905,0.10135302131425926,-0.23803710937,0.34753417968,0.01710759657970953,0.130391695025744,1.1768403504567904,0.8478941957,1.55827709317,0.02787599791277839,0.16644495742313253,stairs up
-1.08306467754882,-1.455078125,-0.62121582031,0.0550547270163,0.2339076146475608,0.2553665445416149,0.00769042968,0.50561523437,0.01408418228613929,0.11830766202177136,0.058669570068509314,-0.18505859375,0.26696777343,0.011639206659168178,0.10754958600620004,1.1273787494567702,0.69632948748,1.49361081173,0.05129543527099284,0.22578049092641786,stairs up
-1.1456275795955975,-1.65368652343,-0.71105957031,0.0686332139169187,0.2611542809978021,0.2512076515787421,-0.05346679687,0.48388671875,0.019403685231618527,0.1388583792050189,0.06004938089503145,-0.12121582031,0.33288574218,0.015224399736928632,0.12299857232987277,1.1887947086603776,0.7140731097,1.66087251358,0.06898663913591097,0.26182582168753293,stairs up
-1.1589472096404458,-1.55615234375,-0.72729492187,0.05424354565162664,0.23215952567330064,0.23908520351923568,-0.033203125,0.49523925781,0.02074916604308241,0.14358623105929888,0.07761572576375797,-0.17687988281,0.26489257812,0.012738136369255366,0.11250334102905389,1.199133508805223,0.73309986523,1.56940571618,0.0559518321703713,0.23578687638149992,stairs up
-1.1283511022055412,-1.43310546875,-0.85852050781,0.024020223366392902,0.15449022076851265,0.27423834344745224,0.05200195312,0.55529785156,0.016100990340184917,0.12648492503687944,0.12132311778229302,-0.14721679687,0.484375,0.01950052979406638,0.13919885990167388,1.1806673532731846,0.87577319894,1.53024804167,0.028550616924048183,0.16843029971129805,stairs up
-1.1641330471248053,-1.3603515625,-0.78686523437,0.012522033379711726,0.11153798220628103,0.2648965414420779,0.02502441406,0.55944824218,0.02679346519722718,0.1631547782229667,0.13094101942675324,-0.08508300781,0.27905273437,0.006366739486217069,0.0795323646198254,1.2129946634035065,0.8119410371,1.42857589135,0.01665920299486078,0.12865079227131485,stairs up
-1.181692826116776,-1.71667480468,-0.67053222656,0.08734430019452401,0.2945669136895939,0.22481496710236845,-0.10192871093,0.46508789062,0.021159857199527565,0.1449849909910973,0.06266463430131579,-0.27233886718,0.38732910156,0.027477339059172885,0.16521672763881487,1.226122964771447,0.69418424513,1.7241810648,0.08312277810888746,0.28736025773685575,Null
-0.9072265624959603,-1.15661621093,-0.60302734375,0.013536551197298937,0.1159607914895364,0.384543311513841,-0.21325683593,0.62658691406,0.028567445096156732,0.16845847179063594,0.0014842456522516554,-0.56274414062,0.26892089843,0.043661841370077344,0.20826111039444173,1.0257812270092717,0.78823489987,1.20624881062,0.00393256690376642,0.0625021872764266,Null
-0.9120417215701204,-1.07775878906,-0.81311035156,0.0019962053418773507,0.04454413551178816,0.4131315300224699,0.19995117187,0.52331542968,0.01156881007665991,0.10723394261935947,-0.0803024108118675,-0.27893066406,0.05395507812,0.005914021315633866,0.0766706898443097,1.0133312530839158,0.89162580409,1.13393187629,0.001476600007606905,0.038310635949279005,Null
-0.8401679582453226,-1.03210449218,-0.64587402343,0.013192584545207754,0.114549799961889,0.5166586599004838,0.23120117187,0.74475097656,0.024354142297848536,0.15563806105492117,-0.132576234875,-0.27856445312,0.00305175781,0.008029905624079368,0.08936852963133073,1.01732221822457,0.9148802482,1.07681342523,0.0008090911513418397,0.028367960781756428,Null
-0.8940456224483696,-1.06945800781,-0.68212890625,0.00938545174880778,0.09661492565265786,0.4644118599232609,0.15087890625,0.73168945312,0.021425455135376584,0.14597606805371713,-0.10859547490527173,-0.34704589843,0.10485839843,0.018539669539255534,0.13578994979626668,1.0340660896371738,0.87802362841,1.2173085308,0.006614565585444442,0.08110867314558039,Null
-0.9614340571994351,-1.48498535156,-0.64624023437,0.03169202662206232,0.17751894440931526,0.3638447044901695,0.01501464843,0.68627929687,0.020697035392848326,0.14345766967819776,-0.06752764168293784,-0.27978515625,0.19543457031,0.01713478081263924,0.13052959105651635,1.051230049536949,0.7803679255,1.57736352924,0.02548883816155443,0.15920060749311987,Null
-0.9570410156211998,-1.13232421875,-0.59448242187,0.014952918531211985,0.12187383807721233,0.26903076171560003,0.00817871093,0.55102539062,0.015915300172126598,0.12573463393583761,-0.032778320311399996,-0.41247558593,0.20886230468,0.022218118720896515,0.14855974531959817,1.0168691311114,0.83474236912,1.16924660607,0.0081433623967187,0.0899392757035207,Null
-0.9195445667579679,-0.99157714843,-0.6474609375,0.0022015473417543356,0.04679502496331364,0.4137321920913904,0.31115722656,0.52673339843,0.003358306649519889,0.057795741974920156,-0.025503556357058827,-0.18823242187,0.11645507812,0.0048043412985194,0.06912777758485684,1.013138912911337,0.83745826111,1.07355226822,0.001251978416221011,0.035288572434663795,Null
-0.9119940447614111,-1.17175292968,-0.64074707031,0.006356928497787785,0.0794854007755617,0.44627483344110425,0.10229492187,0.88073730468,0.016085313682383914,0.1264382488662233,-0.09323101394411044,-0.16833496093,0.14965820312,0.0023966147101912114,0.04880483124097426,1.0300896887552147,0.84939857586,1.2241788591,0.0032077705672858186,0.05646318263482311,Null
-0.7263826069030526,-0.95544433593,-0.40466308593,0.03250661487359127,0.17982082033760205,0.5553749485986841,0.31115722656,0.8056640625,0.02246642429755206,0.14949307662612302,0.39178466796531575,0.1884765625,0.67211914062,0.022500496495644257,0.14960639301138742,1.031483744878421,0.92934039392,1.18630115954,0.002689470574155515,0.05172345179771441,Null
-0.9391303004950603,-0.96118164062,-0.89819335937,0.000341772855250319,0.01843133154789228,0.24445388977409635,0.22937011718,0.27514648437,0.00010266076173140748,0.010101600041959901,0.2231643860557229,0.1953125,0.24499511718,9.110430951464089e-05,0.009516064752458676,0.9958733565164458,0.95615353721,1.01798016299,0.0002961221820841466,0.017156290785521635,lift down
-0.9581346299877223,-0.96691894531,-0.94873046875,1.5049733905411958e-05,0.0038686075366472774,0.23952975802505558,0.21044921875,0.26403808593,0.00011513466784243995,0.010700235081476987,0.23062744140272223,0.21118164062,0.25793457031,0.00015726617260804486,0.012505697567473446,1.0143245830637224,1.00212759688,1.02234592902,1.7079594573522202e-05,0.004121250773369977,lift down
-0.9603861262253933,-0.97827148437,-0.94787597656,4.118331151087567e-05,0.0063993706403266916,0.22506610998657303,0.19384765625,0.24145507812,0.0001616510051915637,0.012678440498618288,0.22832497585674158,0.20886230468,0.24926757812,0.00014534557438567461,0.012022022550925804,1.0126331380883709,1.0009554456,1.03273092487,4.9187715946996074e-05,0.006993667168528095,lift down
-0.9621687264236781,-0.97216796875,-0.94970703125,2.6775552608769014e-05,0.005159619183865386,0.1983516298458046,0.1796875,0.22998046875,0.0001885444906001622,0.013691636190526116,0.25754240189114946,0.23889160156,0.27587890625,7.010377315800247e-05,0.008348705163674662,1.015729437201437,1.00390328878,1.02477064735,1.771158386323074e-05,0.004196402405796314,lift down
-0.9742801789283226,-1.02160644531,-0.94738769531,0.00044820435910647373,0.021102433937344296,0.20022366431025806,0.17578125,0.23767089843,0.00016355917426418476,0.012747703863247726,0.25130497101490323,0.22534179687,0.27709960937,0.00018902385538315,0.013704172599567715,1.0260902753385162,1.00759642894,1.07343222521,0.0004025361396710781,0.019998478250065965,lift down
-0.9760561342556613,-1.01831054687,-0.90051269531,0.0007165029844808946,0.026696665773069585,0.1943843780965609,0.17077636718,0.31176757812,0.0009404405981459424,0.030585367775543847,0.267726030295291,0.23889160156,0.37963867187,0.0007324513233602565,0.02699214551555607,1.0315408328767726,1.00464304741,1.07133343308,0.00045073853709334013,0.02117436367659532,lift down
-0.8230401646982457,-0.90051269531,-0.75830078125,0.0012067532401810192,0.03463663095176453,0.4330148083390058,0.31176757812,0.50354003906,0.0014104687710489439,0.03744623366458492,0.41025975991011693,0.37817382812,0.45043945312,0.00047052625760932425,0.021628098438553244,1.017864457625848,0.98550299699,1.06093152062,0.0002330073312245826,0.015219878949995266,Null
-0.8406351948796154,-0.88110351562,-0.82629394531,0.00013273768748792308,0.01148948908936741,0.435302734370934,0.41931152343,0.4609375,9.031651429118289e-05,0.009477355628400012,0.37499731713236256,0.30285644531,0.40185546875,0.0007220826023831801,0.026797669965071567,1.0187089297689558,0.99930256871,1.0304209599,5.187505175330458e-05,0.007182619577592725,Null
-0.9365973221591448,-1.01708984375,-0.84716796875,0.0020903878175995458,0.045570113738808794,0.30913262617875,0.17858886718,0.45593261718,0.005912883282499539,0.07664191238864253,0.18719241493401315,-0.06713867187,0.38134765625,0.01865918746215612,0.1361485572817615,1.0165809025193422,0.94556537902,1.06818412166,0.0008745948519718048,0.029476107926115182,Null
-0.860008726725585,-0.98217773437,-0.43090820312,0.026333599573899878,0.16184414489174712,0.4334106445277127,0.26416015625,0.94714355468,0.02993153832506324,0.1725465966480462,0.1768889731512766,0.02062988281,0.37475585937,0.00566520928044821,0.07506713787357909,1.0086705170696277,0.81746192831,1.22372743647,0.0029499151278270276,0.05416847874837408,Null
-0.925569859942927,-1.16162109375,-0.58374023437,0.02102606137435764,0.14456089956502963,0.3596139303026829,0.11547851562,0.94714355468,0.03614113856505249,0.18952774406119044,0.18747245974298782,-0.06530761718,0.37475585937,0.011307538163533344,0.10601221514569519,1.0369419176184147,0.82476431521,1.25658515615,0.014041958057917645,0.11813693902604104,Null
-0.9754421373900523,-1.04357910156,-0.92907714843,0.0006511200374451548,0.025450167622503093,0.2411527783420942,0.07641601562,0.34265136718,0.0038093914831483465,0.06155848459084573,0.09187740305753926,-0.07434082031,0.26281738281,0.010236725122897007,0.10091149440675923,1.0155446045222514,0.96583162924,1.08657102835,0.0008465901097259954,0.029019953493666224,Null
-0.9732310621009492,-0.99548339843,-0.93884277343,8.727017932883762e-05,0.009312241213676388,0.2653854949528481,0.18798828125,0.3427734375,0.0015164763468462317,0.03881853159618372,0.0908272658691772,0.06298828125,0.19543457031,0.0008192083721522764,0.02853109722806658,1.0139876146063924,0.99819492802,1.04801845021,9.509241165744516e-05,0.009720625543181491,Null
-0.9625635039907303,-1.22680664062,-0.7451171875,0.01574751454776679,0.12513610735880418,0.319800216157191,0.09802246093,0.56103515625,0.01043705769504064,0.10187454313738306,0.13700403791797752,-0.06433105468,0.23400878906,0.00459671894152273,0.06760839206641665,1.0314211283710675,0.83557079864,1.26270752655,0.014430673606806114,0.11978982597352697,Null
-0.9620178549013902,-1.26049804687,-0.64501953125,0.02878263783457269,0.16920023636268935,0.23547493837401065,0.13696289062,0.44970703125,0.006030625071199365,0.07744918165654055,0.2021647570569519,0.07775878906,0.36437988281,0.0033079181994408414,0.05736051601323679,1.0154082909882352,0.70180881016,1.28862769567,0.028814805730133473,0.16929476028489143,stairs up
-0.958755030772909,-1.23840332031,-0.6484375,0.03127820604228979,0.1763197129001321,0.23353974313042425,0.06066894531,0.47668457031,0.012220545685939757,0.11021107826662271,0.17952104047860606,0.05834960937,0.27478027343,0.0026156962446105556,0.05098866089727954,1.0097857977119395,0.68622186366,1.27024439808,0.03234345477521419,0.1792970547364975,stairs up
-0.9727146957818786,-1.29357910156,-0.62292480468,0.02512158718568683,0.1580168824592398,0.25557898318763633,0.10900878906,0.47668457031,0.007903936836656116,0.08863427209133738,0.1818100437941212,0.08068847656,0.30212402343,0.0031980055475537015,0.05637928427845059,1.0273688789019395,0.65331551132,1.30903264556,0.02521941267864132,0.15832424878494203,stairs up
-0.975310943935055,-1.28100585937,-0.66381835937,0.03147997500253373,0.17693786510217482,0.2393228719486263,0.07153320312,0.38928222656,0.008135946852646255,0.08995134155731857,0.09826928442324175,-0.02905273437,0.20837402343,0.0028833475158799894,0.0535490891342833,1.0150152400788461,0.68683427309,1.29459528307,0.03034025064166761,0.17370534236980822,stairs up
-0.9860074318018645,-1.2138671875,-0.73156738281,0.021783010305186187,0.14717317163924484,0.2728416313527119,0.13098144531,0.3828125,0.0028877819218180987,0.0535860688026042,0.11913924567135593,-0.041015625,0.23974609375,0.00306571257865462,0.05521224654554208,1.033101813021356,0.7860454724,1.26045523405,0.021247860959890643,0.14535410743315055,stairs up
-0.9795040457546856,-1.29833984375,-0.70581054687,0.024468686675620025,0.1559771316857128,0.2527720424072,0.09692382812,0.44775390625,0.004939406779460297,0.07007982304389318,0.1432986886128572,0.02014160156,0.25012207031,0.003112602623370137,0.055631073355321525,1.0255839039309715,0.76701094271,1.33357712881,0.02450896599251342,0.15610546037301348,stairs up
-0.946782194222119,-1.23779296875,-0.65161132812,0.02916685062265311,0.170216605157986,0.2966664295292715,0.14123535156,0.52819824218,0.00835962565530347,0.09112773395622666,0.20214601225807946,0.0595703125,0.42041015625,0.008709433370881939,0.09301481067113643,1.02022790251755,0.70233865848,1.28882529648,0.029400696546297074,0.1708976007633013,stairs up
-0.9908867292467205,-1.26928710937,-0.67614746093,0.028369020286551652,0.16797767313577072,0.20076956799833334,-0.001953125,0.38891601562,0.010258522125151161,0.1010117259549221,0.1622708228294086,0.06860351562,0.29040527343,0.0035044135794062305,0.05903873852127615,1.0303896679921505,0.72633179724,1.29742078901,0.028854453237264717,0.16940874171142162,stairs up
-0.940941642988606,-1.23120117187,-0.67175292968,0.020925314306051202,0.1442168305689314,0.2906856652426667,0.056640625,0.45349121093,0.011833366683421062,0.10845113788975266,0.19436331083836364,-0.0107421875,0.32116699218,0.006386315014093012,0.07967189011573443,1.010486711169212,0.72456189023,1.25710922032,0.02310023143959453,0.15152633446675307,stairs up
-0.9731348941160525,-1.14733886718,-0.74597167968,0.01727893269066718,0.1311029783783102,0.28484593441215783,0.18212890625,0.41259765625,0.0032208606966303206,0.05660308117255635,0.15005332544842104,0.02160644531,0.24890136718,0.003432115576725872,0.05842988799007386,1.0286991946524207,0.81097803253,1.19501654383,0.016314513305091975,0.1273917087003369,stairs up
-0.9813861966843397,-1.23327636718,-0.74584960937,0.020608224230189973,0.14310350365048413,0.27434189514194973,0.09973144531,0.5009765625,0.007730366914756587,0.08764558320255135,0.13202787195000001,-0.00402832031,0.22485351562,0.003891158228237145,0.06218267873755353,1.035110335884088,0.81564651621,1.28232997642,0.019061969369821786,0.13763023930085852,stairs up
-0.9543889685482279,-1.24780273437,-0.64233398437,0.029712899110195458,0.17182794530201775,0.312503090383924,0.04956054687,0.58117675781,0.015701600121385877,0.12490885839454197,0.19422700133101267,0.03527832031,0.41125488281,0.007864619627458495,0.0884016037969164,1.0359682588483543,0.75480604089,1.35150157372,0.02611758993943211,0.16109714068624498,stairs up
-0.9686627131602689,-1.23620605468,-0.67065429687,0.025012117615994534,0.15772648434987355,0.27412923176779574,0.06091308593,0.45239257812,0.010193819076074672,0.10069266903390259,0.18826654905446236,0.10961914062,0.27673339843,0.0017748551966049715,0.042015627620745594,1.030157332426989,0.7209448887,1.26637418378,0.024588618818142532,0.15638549147147945,stairs up
-0.9592110770050285,-1.23571777343,-0.69799804687,0.027099717744645774,0.16414890256921114,0.27987444196062855,0.10363769531,0.44018554687,0.006664395878534777,0.08140217206175596,0.16043875557657145,0.01159667968,0.30053710937,0.0037440314815174666,0.061013416687715455,1.0175866099693716,0.72536521624,1.2694478521,0.02611673032049701,0.16114431997908812,stairs up
-0.9711573866507651,-1.24816894531,-0.62280273437,0.026196199032309988,0.16140957345745677,0.27870386675683056,0.09631347656,0.49670410156,0.008936808520748936,0.0942760494585442,0.1641405449507104,-0.00415039062,0.32836914062,0.006076089971881405,0.07773601028120385,1.0312359394698907,0.6880054025,1.30253911878,0.025439998219072193,0.1590628235489406,stairs up
-0.9654652713905881,-1.21484375,-0.72961425781,0.02366694069998781,0.15333706275085546,0.2987419577171242,0.19152832031,0.42053222656,0.00351573093200529,0.05909951182931016,0.11519208920222222,-0.03637695312,0.24499511718,0.004797499297415654,0.06903725872930777,1.0211159365592808,0.78288449967,1.27706400406,0.023888694545176017,0.15405375453623588,stairs up
-1.0052841962357626,-1.26098632812,-0.7392578125,0.020817472879288416,0.1438744592975504,0.25706766419101695,0.07043457031,0.4638671875,0.010800565014557222,0.10363177540326153,0.15116994394158192,-0.01770019531,0.29443359375,0.00438315403360928,0.06601810699723594,1.0562090080689266,0.82562066125,1.31529798747,0.01894177643121184,0.13723979286329382,stairs up
-1.00864229587763,-1.24536132812,-0.69348144531,0.02474049339448539,0.15683585292319907,0.2194182114753179,0.07141113281,0.45007324218,0.009947477136682077,0.09944836483743705,0.1585714527595954,0.03039550781,0.34167480468,0.006634296974656182,0.08121544457324865,1.0521336120578035,0.73733841774,1.28849437794,0.024890687846267655,0.1573111917121847,stairs up
-0.9778037693155979,-1.2919921875,-0.69287109375,0.026750372063414827,0.16311036020605327,0.2398011580716304,0.04089355468,0.48132324218,0.01202610343215056,0.10936518721406338,0.13460772970027174,0.00695800781,0.36596679687,0.003196465525502577,0.056383449967657005,1.0221712574664132,0.76296685497,1.3264231212,0.02477597166768137,0.15697553837381262,stairs up
-0.9617828040959677,-1.14880371093,-0.73425292968,0.00961000588670042,0.09776675911773298,0.32062817644989244,0.16748046875,0.47668457031,0.006772370525566142,0.08207289401101113,0.12207162508064516,-0.01647949218,0.32250976562,0.009383104618722667,0.09660568212945486,1.0296007413143011,0.84659537277,1.21533851116,0.008324095061776306,0.0909908888983916,Null
-0.9922242681629516,-1.13305664062,-0.90710449218,0.00246055098549905,0.04945430607339328,0.20658782590975905,0.03332519531,0.34143066406,0.00367378995128606,0.06042895569608395,0.06778211478524099,-0.25805664062,0.23913574218,0.010104140078864577,0.10021612527500989,1.0220968050036146,0.92813112308,1.16787579016,0.003260364018902546,0.056927350823665804,Null
-0.9924316406212106,-1.07153320312,-0.91723632812,0.0014250526037425564,0.037650396105230466,0.16713288959257894,0.04956054687,0.25524902343,0.002393347763936764,0.048792942079343295,0.09339021381310526,-0.04260253906,0.19665527343,0.004328855247030994,0.06562066593964443,1.0140871445572104,0.94718977634,1.09662637555,0.001314251805446372,0.03615708354777615,Null
-0.9984918908185442,-1.05004882812,-0.93273925781,0.0006337843647402203,0.02509527986081242,0.13956963261107594,0.03515625,0.29614257812,0.0030216170488093783,0.05479500789554291,0.015802697290506332,-0.05395507812,0.24072265625,0.004396289699721736,0.06609436497439905,1.0120467691563924,0.96320975317,1.08062449565,0.0004805733054503178,0.02185249876447234,Null
-1.004155530424,-1.15930175781,-0.89233398437,0.0013605586170208816,0.03678855504357919,0.1565468235981053,0.00903320312,0.25573730468,0.0024691054280330544,0.049559157945899004,0.012897692231052638,-0.06811523437,0.20971679687,0.005657920821362184,0.07502094568001283,1.0202171245910525,0.91896682211,1.19084712807,0.0016047024263442116,0.039953180400317256,Null
-0.9831884765590857,-1.13049316406,-0.83801269531,0.004385958738720903,0.06603708138127232,0.23542410713840006,0.11352539062,0.42504882812,0.0054807267478698095,0.07382010775737566,0.13345912387965717,0.00378417968,0.30688476562,0.008673475438477846,0.09286502421087578,1.026319615453257,0.87188620508,1.18464838385,0.005026414860466642,0.0706943596748383,Null
-0.9920057508639445,-1.10095214843,-0.90344238281,0.0018948558802962903,0.043408857427759295,0.1564704047278889,-0.00537109375,0.31726074218,0.005685393220384981,0.07519180608612852,0.08586629231622224,-0.08959960937,0.25732421875,0.010897731792893404,0.10410181957337941,1.0162101741361667,0.93636454327,1.12399163354,0.0016326954149145127,0.040294228927126204,Null
-0.9974610863626827,-1.01916503906,-0.96838378906,0.0001539745542391527,0.012370759273625331,0.1730763505103049,0.08471679687,0.26196289062,0.0018492732199720358,0.042871869142278994,0.002839623426890244,-0.06469726562,0.04846191406,0.0004932225595455542,0.02214080181281109,1.0133932827212195,0.97932100178,1.03964771196,0.00020772806816064275,0.014368765903816779,Null
-0.9896548763702745,-1.07495117187,-0.92138671875,0.0009628343625817305,0.030944208890941557,0.17127873346923075,0.03942871093,0.31567382812,0.004460538172614246,0.06660352634145106,0.06284005301236263,-0.0615234375,0.26733398437,0.009045796387497787,0.0948477422480077,1.012957292871813,0.94790518495,1.09227411966,0.0010148178593611843,0.031768568382239105,Null
-0.7533014470838069,-1.08435058593,-0.13403320312,0.11888645884335919,0.3438182188307231,0.2551040649371591,0.080078125,0.60266113281,0.02477535510166443,0.15695408895147264,-0.19560102982971592,-0.95947265625,0.24389648437,0.1974267813729648,0.44306324412772274,1.0014993953794886,0.81222627687,1.2260651947,0.008394580018738305,0.09136128031808174,Null
-0.9939249212055682,-1.07263183593,-0.91955566406,0.0008885081707293365,0.029723052145602284,0.21123157847630683,0.1240234375,0.47045898437,0.004639373723586733,0.06791916994201128,0.08660749955352273,-0.07019042968,0.19873046875,0.0056494016283318805,0.07494866746943292,1.0248053845607386,0.9539425814,1.13566496595,0.0008991967959087331,0.029901299690894813,Null
-0.9988124517709875,-1.01220703125,-0.94067382812,0.00017771847216404088,0.013289900095865658,0.16519654826956792,0.12231445312,0.2578125,0.0011573881248579637,0.03391524367768666,-0.0011980975111728395,-0.04309082031,0.08337402343,0.0005424019381992795,0.023217531696692877,1.013253506580864,0.96496987387,1.02984845404,0.00010152589054498754,0.01004485876042725,Null
-0.9894123906633154,-1.06018066406,-0.94201660156,0.0005288552351200229,0.022934276136073597,0.1869002632429348,0.12438964843,0.29541015625,0.0016923846938874708,0.04102666146527047,0.07693348760146738,-0.07250976562,0.26953125,0.015293938334330123,0.12333214951606188,1.0181260231625544,0.96450561127,1.08384061667,0.0006301615407650808,0.025034710898723434,Null
-0.9969274347439773,-1.0380859375,-0.93286132812,0.00043086008400303254,0.02069811622694018,0.1174794977325,0.02587890625,0.21411132812,0.0027065357096682564,0.05187636905049661,0.01671808416306818,-0.1142578125,0.19421386718,0.010498099465838523,0.10216873872872752,1.0103879222432957,0.93649340473,1.06979639599,0.0006230443335321857,0.02488984348905882,Null
-1.006378001408757,-1.10546875,-0.96142578125,0.0004527307252934413,0.021217278915675514,0.10069421455350282,0.0166015625,0.17004394531,0.0007806956886568958,0.02786189115174147,0.034007271801299435,-0.00427246093,0.23352050781,0.000978704786818539,0.031195759026561496,1.012792733347853,0.96317892033,1.12464328249,0.0005460989641085736,0.023302653480378674,Null
-1.003846800168117,-1.09289550781,-0.91882324218,0.000827852268812618,0.02867885291864755,0.09891579367571429,0.00756835937,0.19421386718,0.002245882699784452,0.047236628223125195,0.013762238740259737,-0.09509277343,0.244140625,0.008740924114222845,0.09318886664579569,1.014109611406948,0.93766656031,1.12464328249,0.0010083157349676428,0.03165072242769706,Null
-1.006070749379316,-1.056640625,-0.92541503906,0.00034883534076889994,0.018627918973711716,0.08751477692921053,-0.02307128906,0.15673828125,0.0012920739958946644,0.03585071277454031,0.0008596319905789497,-0.04150390625,0.10229492187,0.0013100082013820821,0.036098662321127746,1.011147773156842,0.92798659259,1.0575016272,0.00035536548047085045,0.018801466321454647,Null
-1.00128461052,-1.17358398437,-0.92724609375,0.0016028207792419247,0.03991731982131281,0.13792437384794118,-0.04138183593,0.31518554687,0.0044959219606762755,0.06685413495743993,0.09393741382894116,-0.00122070312,0.19177246093,0.0025238084623763193,0.050089545119163276,1.018355645710353,0.93403354963,1.20700468879,0.0019533412875705272,0.044066438983680824,Null
-0.9957302072621858,-1.05920410156,-0.89367675781,0.0007132797706881089,0.026634227359229826,0.15725657978601093,0.10754394531,0.3037109375,0.0012638971647436791,0.035454063559200576,0.05826622801125683,-0.13635253906,0.09558105468,0.0024754614304998554,0.04961788305498109,1.0116339885236612,0.91850979869,1.10508797628,0.0006316628490145376,0.025064140509043615,Null
-0.9931061979974027,-1.17639160156,-0.78918457031,0.008885059909544994,0.09395405640698633,0.24754670378090912,0.14721679687,0.36437988281,0.0026532405282668346,0.05134210449200246,0.05005516943824675,-0.1083984375,0.20861816406,0.005794295062910868,0.07587272085733161,1.028878919601688,0.83908068567,1.20853748597,0.008729712463315142,0.09312908256150793,Null
-0.9652755412614361,-1.0693359375,-0.85583496093,0.0020199777241766722,0.04482447056925525,0.2606240130447872,0.10900878906,0.40588378906,0.006550349001071978,0.08071868878488662,0.09954314535978723,-0.24060058593,0.25354003906,0.014976581361525743,0.1220529339864844,1.015447288120638,0.88653389436,1.10436095546,0.0018890965298738684,0.04334798892770767,Null
-0.9546142578095759,-1.00317382812,-0.92309570312,0.00025779266908043316,0.01600719492190385,0.27313343394484846,0.21618652343,0.36291503906,0.002080129889864993,0.04547002355450929,0.22419137665315153,0.13464355468,0.27465820312,0.0010471934864373278,0.032262158316622255,1.0194743645712727,1.00257304832,1.06815740709,0.00018979777708785512,0.013734900346553188,Null
-0.9537982743994846,-0.96398925781,-0.94213867187,2.568670301124538e-05,0.005055125846664987,0.23130436533108248,0.21496582031,0.24597167968,5.997210593221771e-05,0.007724180951114286,0.2572701051024227,0.23913574218,0.29296875,0.00023424593561610003,0.015265598001379716,1.0147512052229382,1.0058771817,1.02366078831,1.9110407443298777e-05,0.004360263775098522,Null
-0.9519820486624204,-1.00793457031,-0.93884277343,0.00019506176941128545,0.013921901370106895,0.24262135499197454,0.20544433593,0.25561523437,7.343930214487719e-05,0.00854233784681789,0.25696111788,0.20922851562,0.28625488281,0.00037207319741165283,0.019227670280991104,1.0157326756492993,0.99807872833,1.05093347233,8.814621404080501e-05,0.009358673687389785,lift down
-0.9392325661363636,-0.96813964843,-0.90283203125,0.0004627898277270015,0.02145134821099741,0.24719585071477274,0.23181152343,0.27392578125,9.637839947535772e-05,0.009789320453069461,0.21494362570704542,0.20422363281,0.23156738281,2.694489119698914e-05,0.0051760791362071516,0.9947528722142045,0.9583768921,1.0292893252,0.0005168066867052646,0.022668707176993076,lift down
-0.9579070335172674,-0.96459960937,-0.94812011718,1.6873932671299075e-05,0.00409583061314579,0.24933358125540694,0.23388671875,0.27172851562,5.170308316109045e-05,0.007169552555103173,0.22735169876093025,0.21130371093,0.25183105468,8.150663210037602e-05,0.00900181961229787,1.0156636122961629,1.00637330194,1.02492261832,1.866075200182152e-05,0.00430723336465821,lift down
-0.9547854187629033,-0.97912597656,-0.93786621093,5.826487405438819e-05,0.0076125962748160424,0.256908129616129,0.2294921875,0.32495117187,0.00049018690282275,0.022080568139581775,0.22733954972672044,0.20495605468,0.24963378906,8.56174923193237e-05,0.00922806497705953,1.014842649678925,1.0059117572,1.03296794269,2.544731689575464e-05,0.00503095451818609,lift down
-0.9443240281971951,-0.95104980468,-0.93676757812,9.650690334510646e-06,0.003097070335290957,0.30573775128310976,0.287109375,0.32092285156,3.516411102491956e-05,0.005911826766219728,0.21803246474524393,0.20483398437,0.23083496093,3.8018032906801e-05,0.006147049343626505,1.0162852622620733,1.00973152088,1.02429010824,8.242196649240335e-06,0.0028621564165151117,lift down
-0.9437079279642766,-0.95239257812,-0.93493652343,1.9272074763475695e-05,0.0043761703287343995,0.30749511718377365,0.29931640625,0.31506347656,1.728723321033333e-05,0.00414469642714173,0.22089736266333337,0.21008300781,0.23571777343,3.801874982831501e-05,0.006146514312533134,1.0168515477853457,1.00726396581,1.02469572226,2.0714286016399538e-05,0.004536960159401283,lift down
-0.9476954962573655,-0.99560546875,-0.92126464843,0.0002799308311420086,0.016686096807627098,0.30580057123354837,0.27209472656,0.33959960937,0.00015705400204757983,0.01249838492336051,0.23730534378790324,0.19348144531,0.26147460937,0.0003122085650736669,0.017621862115032787,1.0239508437046236,1.00355361058,1.07088672242,0.00022561733546785974,0.014980131476079014,lift down
-0.9588700217726437,-0.99536132812,-0.79736328125,0.0017142538997692942,0.041284402210309094,0.2774160100088506,0.19641113281,0.37719726562,0.002744137381913331,0.05223376759740366,0.20393038343701153,0.04113769531,0.39172363281,0.011319187838044253,0.10608550812612122,1.0261262899872414,0.95840461438,1.06802281268,0.0007349266441217377,0.027031517304365482,lift down
-0.9803337224994413,-0.98999023437,-0.96594238281,4.496659649571961e-05,0.006686956442166396,0.23951150051966483,0.20959472656,0.28210449218,0.00023767359679476057,0.015373542576056002,0.072365190726257,0.03186035156,0.10375976562,0.0002812476067848985,0.016723528069894102,1.0120142617165921,0.99984946458,1.0269398421,4.4809182302286735e-05,0.006675241694118623,lift down
-0.9866763255598361,-1.1484375,-0.8837890625,0.003263889352729701,0.05697415108438056,0.23338909878426237,0.14477539062,0.3212890625,0.0033851967513234224,0.058023257478531966,0.0907269253719672,0.00573730468,0.18420410156,0.0019110119356459195,0.043595518662736324,1.0206010220848087,0.91459648315,1.18122281971,0.0031360298808943846,0.05584705100172212,Null
-1.003549484975893,-1.22399902343,-0.75183105468,0.016099117115706593,0.12650410680146676,0.21023704891779763,0.06494140625,0.4169921875,0.006471202979935959,0.08020401432957827,0.08347574869565476,-0.14538574218,0.35278320312,0.011812113656191907,0.10835960250876446,1.0369019638157142,0.78690682921,1.29010733828,0.017395021792132415,0.13149707219459555,Null
-0.9807331268757753,-1.26147460937,-0.83361816406,0.0026786767875738525,0.05161736445009559,0.22385802243101607,0.17126464843,0.36694335937,0.002724958563976346,0.05206137333038758,0.10822479737272729,-0.10424804687,0.20690917968,0.001842739891655362,0.04281221400063088,1.0138757606835296,0.85491760127,1.31378556484,0.0029417850687720533,0.05409300877022883,Null
-0.9951880184188271,-1.08605957031,-0.83581542968,0.0025635840597827563,0.050475335232379924,0.16308066285308645,0.00830078125,0.32824707031,0.0065054851565360585,0.08040726236326524,0.07806622540290124,-0.17163085937,0.22045898437,0.008549702874600369,0.09217877700929861,1.0188481843866048,0.86157067445,1.11817980759,0.0025630428102252642,0.05047000652179761,Null
-0.9869119744511184,-1.24780273437,-0.65563964843,0.01787501137728584,0.13325694210143332,0.20571256938375,0.02270507812,0.32202148437,0.003937171002776837,0.062540135608816,0.12181814092881582,-0.0615234375,0.24047851562,0.004417733378465775,0.06624703271151948,1.0197677006136843,0.69105524108,1.29044400948,0.017398215228733763,0.13146768913478118,Null
-1.001201428861842,-1.32238769531,-0.62475585937,0.036216086911194025,0.189803782700585,0.19559454666515788,-0.02954101562,0.49060058593,0.013269417080646322,0.11488941658560096,0.17812371504510524,0.05310058593,0.38464355468,0.005424722254725684,0.07345863519671442,1.0446933348856842,0.65120712212,1.3493145622,0.03581514757971942,0.18875022331903094,stairs up
-0.9704554563270521,-1.30993652343,-0.6572265625,0.03627539381528066,0.1899097402925055,0.22992260882872836,0.10327148437,0.35302734375,0.005554951305772449,0.07431582442960838,0.18533095872104047,0.04382324218,0.36450195312,0.005157669681444915,0.0716090536308014,1.019861449629075,0.70383559453,1.34696293563,0.03580174084610554,0.18866582723754272,stairs up
-0.9657524231242246,-1.25170898437,-0.63366699218,0.029781089367718346,0.17210994220359302,0.25264703270796796,0.05285644531,0.36889648437,0.004648687729354993,0.0679987384933327,0.10867521724288769,-0.04345703125,0.22094726562,0.00593016037284272,0.07680135601203543,1.0100911297675936,0.66291171946,1.29722136158,0.028330085023307753,0.16786478857233417,stairs up
-1.0024239676299351,-1.28234863281,-0.685546875,0.030193035397701004,0.17319635309753886,0.22493119672915582,0.02685546875,0.40856933593,0.00525140836697785,0.07223093736514033,0.10384775136727273,-0.09912109375,0.33947753906,0.011358568772413324,0.10622999497473733,1.0409625290523377,0.71223352535,1.31150095246,0.029318700759969524,0.17067020708431652,stairs up
-0.9695890727759474,-1.18444824218,-0.63732910156,0.02384290958272736,0.15400461221964598,0.26775866056357894,0.12145996093,0.47973632812,0.008052767380895018,0.08950075080511773,0.11739244962636841,-0.04663085937,0.349609375,0.0074285291975201544,0.08596180358407997,1.0198551841886319,0.68102586453,1.28516850567,0.02472141020702947,0.1568161264721499,stairs up
-1.000903748625263,-1.30847167968,-0.7333984375,0.02927213934905523,0.17059002681164795,0.23238689578380112,0.11926269531,0.40014648437,0.0077610207795271325,0.08783868562938058,0.1584422685908187,-0.00817871093,0.32299804687,0.005237504025730642,0.07215868171757019,1.0458693789792983,0.77206755217,1.33021348104,0.029267801959167263,0.17057738778209713,stairs up
-0.9946502518742075,-1.24938964843,-0.68566894531,0.02602708752388743,0.16088773415614682,0.2100509893660109,0.04846191406,0.52844238281,0.015504019061510096,0.1241744645483661,0.10876264728207652,-0.07299804687,0.26171875,0.006524216420429203,0.08055162918637873,1.0324435902298905,0.70803034253,1.26664950266,0.026163385478409885,0.1613084503640641,stairs up
-0.9880259395390195,-1.30700683593,-0.66186523437,0.034063870843955214,0.18395986291916114,0.21799683414692808,0.02124023437,0.44506835937,0.016087117907022167,0.1264198297164585,0.12168654896509803,0.01770019531,0.26428222656,0.002765672461426256,0.05241751778583853,1.0287594844371895,0.70147161001,1.33393831857,0.03296567891430297,0.18097021014690434,stairs up
-0.9805947580598924,-1.26794433593,-0.68041992187,0.030689030064576392,0.17471129121863582,0.23756457912919354,0.0947265625,0.44030761718,0.007698893780836253,0.08750715330068021,0.15335378338854838,0.02746582031,0.29479980468,0.0033814537377688646,0.05799373999806924,1.0259161102082257,0.69826319736,1.29181273721,0.03072653394370407,0.17481801258638052,stairs up
-0.9857014973922423,-1.34655761718,-0.65942382812,0.035507604758338085,0.1878627348724118,0.18428400212733334,-0.00915527343,0.3544921875,0.007077345879743267,0.08387164523491529,0.12171445904018183,0.00390625,0.2978515625,0.004666598723685206,0.06810518561150848,1.0163075699839392,0.7111978159,1.38036041201,0.03467670632607631,0.18565167510570607,stairs up
-0.9827341180056841,-1.20874023437,-0.74438476562,0.015766257084046272,0.12523289018306621,0.2712864925952631,0.15454101562,0.41931152343,0.003928592021771013,0.06251332035379682,0.09209626849947367,-0.03332519531,0.20690917968,0.003422448643962063,0.05834754284768351,1.0284733380002629,0.79496867161,1.23109461897,0.013151871590158693,0.11437941778732913,stairs up
-1.0028779235031644,-1.22875976562,-0.75549316406,0.019446634428776453,0.13900918841586468,0.2662531212877848,0.16882324218,0.40966796875,0.0032965379205619327,0.05723350204650894,0.06627568111968354,-0.17907714843,0.25988769531,0.008160725732331918,0.09005040571518297,1.044789899350696,0.8215641645,1.26603991571,0.018903980577432256,0.1370559562030766,stairs up
-0.9817014484701732,-1.25207519531,-0.69604492187,0.027759355283313903,0.16612915632800368,0.25883422145618507,0.11145019531,0.42858886718,0.007397679423521528,0.085760820138245,0.16483161352583817,0.03955078125,0.31640625,0.004707072568659234,0.06840953191406637,1.0345878935132369,0.7405044043,1.29829997747,0.027321848207076914,0.16481480045388672,stairs up
-0.9799490792366857,-1.27514648437,-0.65710449218,0.031206667374261608,0.17614864053036117,0.2421212332546857,0.04431152343,0.46899414062,0.009033449887348935,0.09477251802979036,0.09626813615851429,-0.09313964843,0.19641113281,0.0053467194626542975,0.07291204825000158,1.0205210880801143,0.68038390645,1.3147127255,0.032237708304028605,0.17903489276676093,stairs up
-0.9903874687026519,-1.26416015625,-0.66015625,0.031525331595659754,0.17706258354864618,0.13924917989972377,-0.05187988281,0.25134277343,0.006688055870759688,0.08155430881221644,0.16419536105491708,-0.04248046875,0.39672851562,0.00885000515180164,0.09381423183992042,1.0209616478247514,0.66999270451,1.32815226919,0.031834356827777674,0.17792829005898644,stairs up
-0.9636746361092859,-1.26110839843,-0.68518066406,0.02233255418044869,0.14899537680856736,0.2506946382032738,0.04125976562,0.52282714843,0.01211993297287384,0.10976242760936901,0.15682111467309523,0.01818847656,0.27941894531,0.004474456496054163,0.06669199971836796,1.0160570938467859,0.72439351941,1.30389037879,0.022567013067356118,0.1497754506206603,stairs up
-0.9797705078086,-1.23193359375,-0.72985839843,0.021440711221644766,0.14593756592061483,0.270051269527,0.13513183593,0.49914550781,0.00536319682054071,0.07298932918632996,0.1325732421842,0.00427246093,0.27172851562,0.0048549489046801585,0.06944481678749652,1.0297352473605996,0.78918851658,1.28048470366,0.02169132778327082,0.14678800676956666,stairs up
-1.0012901793096276,-1.28820800781,-0.73937988281,0.026146760606890487,0.1612689743658837,0.22190824467776596,-0.02331542968,0.42529296875,0.011023034301644233,0.10471103638330238,0.15236063206095746,0.01037597656,0.31799316406,0.005456299259350895,0.07367005084123461,1.0447954417415426,0.7838003873,1.34339626225,0.02597908560486432,0.16075104658852624,stairs up
-0.9732771508452468,-1.31164550781,-0.60205078125,0.03106005969143115,0.17569385569195012,0.25052218966641976,0.00439453125,0.49084472656,0.01685699214294926,0.12943313577246754,0.205513659815,0.03649902343,0.3984375,0.008601636597168014,0.09245831533703863,1.0401109736839504,0.71907157545,1.34632244724,0.03008560241997011,0.1729158431861728,stairs up
-0.9927743275922918,-1.28527832031,-0.66369628906,0.036948151135003916,0.19171779481269452,0.18889300028171876,0.00183105468,0.41918945312,0.012213523357742978,0.11022663587772875,0.1538232167528125,0.04736328125,0.26159667968,0.003673609033612294,0.060452259289698156,1.0290877685358855,0.68372729495,1.33120906323,0.03868295120594129,0.19616696332905723,stairs up
-0.9532581007586145,-1.16369628906,-0.77624511718,0.011047400998827941,0.10478955286860073,0.33634415591668676,0.19812011718,0.46545410156,0.005511124637737221,0.0740130062335449,0.19612507647421681,0.05139160156,0.32995605468,0.005053907400440636,0.07087638658352143,1.0348263074266266,0.86461438942,1.22465429877,0.010976317012248195,0.10445187705641362,Null
-0.9770609537727778,-1.11767578125,-0.81823730468,0.002582120142028035,0.0506732180755069,0.2261589897961111,0.02185058593,0.47766113281,0.014615749862728787,0.12055932669180056,0.06192559136144445,-0.5302734375,0.30078125,0.022706599990476674,0.1502679347457461,1.0230660700976668,0.94751529352,1.22155210955,0.002664170576366998,0.05147202763366249,Null
-0.9853207020239888,-1.10131835937,-0.83984375,0.0021094472414108006,0.04579952417014683,0.2093492143575281,0.05346679687,0.56323242187,0.01219522346703124,0.11012134659385266,0.10848758997146069,-0.01171875,0.33679199218,0.004447174194840799,0.06649954939810256,1.0216034009012358,0.92368173548,1.11954964158,0.0014345847591404623,0.037769369788248665,Null
-0.2671375493882184,-1.236328125,0.44189453125,0.2395136342051925,0.48799294981186175,0.3155854323797701,-0.61401367187,0.87841796875,0.20820883628940032,0.4549859709727213,0.058179131869425284,-1.00610351562,0.91162109375,0.4081442281688825,0.6370232112609032,0.9888344239408049,0.28834211952,1.50494005414,0.04777039587663393,0.2179354339514247,Null
-0.9809263115647017,-1.72998046875,0.47180175781,0.12200436576530391,0.34813271870521356,0.30302944561933776,0.00817871093,0.72985839843,0.03204120047076475,0.17840685830472902,-0.06492281275649005,-0.33288574218,0.36474609375,0.025878298231672814,0.16033377302734728,1.0934897309406622,0.52493473396,1.77738139353,0.041545907734535766,0.2031520840964169,Null
-0.8183517456028125,-1.66979980468,0.20642089843,0.2590787277505419,0.5076705224620012,0.33398437499645833,-0.26989746093,0.966796875,0.06210518242120826,0.2485592845367703,-0.2332979838041146,-1.18908691406,0.63671875,0.18388687596536304,0.4277021531623498,1.1136194980888021,0.40347135731,1.77557510156,0.09847781943186462,0.3129934729708012,Null
-1.0272462264313587,-1.84484863281,-0.47705078125,0.12745601716858676,0.3560383707174064,0.14134149965913045,-0.083984375,0.52941894531,0.022696066982629572,0.1502422004381811,-0.2387483016280435,-0.62744140625,0.05981445312,0.037267907430531225,0.192523672454494,1.092738534773913,0.50464434129,2.01926561301,0.12521740946361729,0.3528978323316233,stairs down
-0.7502281837174509,-1.27600097656,-0.09387207031,0.10974760053444745,0.33019735909875314,-0.05077327154797386,-0.48803710937,0.29284667968,0.0402884337589518,0.20006276680704,-0.56323720894183,-1.39196777343,-0.02587890625,0.08826496488967303,0.29612171432422124,1.0410019071298695,0.68676981296,1.42999470125,0.035949878477213086,0.18898389336453578,stairs down
-1.1242445203958888,-1.62060546875,-0.55017089843,0.06257534955953659,0.24945482302142463,0.2603875054218889,-0.11328125,0.658203125,0.028491817988589515,0.1683256668214183,-0.016772460936777773,-0.52600097656,0.65368652343,0.06459290464985731,0.2534443828132325,1.1937945861515,0.62165018263,1.76084162917,0.06200295099881156,0.24831127674741088,stairs down
-1.1590590618038463,-1.77124023437,-0.66552734375,0.10113925983308134,0.31708169716069345,0.22000392936171598,-0.12915039062,0.61450195312,0.04619408677981079,0.21429127137663417,0.02689519577402367,-0.21838378906,0.28198242187,0.015382844696941131,0.12366010653098714,1.2064457055901776,0.6851683547,1.80679263738,0.09321140171280341,0.3044008130033597,stairs down
-1.0205974173,-1.55065917968,-0.32995605468,0.09739766741701887,0.31125487099480414,0.28639643242707447,-0.1904296875,0.83093261718,0.045416299289860344,0.2125434619785043,-0.07486481362143617,-0.61779785156,0.16906738281,0.044284744608075785,0.20987898288276788,1.1131263935923406,0.49989751421,1.59597394085,0.07605108315878864,0.27503919015425776,stairs down
-0.9001472287023781,-1.32482910156,-0.38793945312,0.049019743419359496,0.2207279831486058,0.19446098513530488,-0.41882324218,0.62976074218,0.07703337821913271,0.2767013959095334,-0.22042995545664631,-0.75170898437,0.12268066406,0.055442398468227405,0.23474312569899322,1.0171806483659147,0.55435075074,1.3908908622,0.04266197603981407,0.20591707563864464,stairs down
-1.1581802814290643,-1.9443359375,-0.47448730468,0.14126633581101863,0.37475354152849205,0.21390573601836255,-0.50427246093,0.84973144531,0.08257551937691718,0.28651809995667493,0.0581126073639766,-0.15087890625,0.37841796875,0.014766847334405865,0.12116307813043097,1.2255325061328655,0.541025141,1.96341902799,0.12653769625924563,0.3546797283908594,stairs down
-1.1394049602971195,-1.76794433593,-0.67297363281,0.08662137657836148,0.29351423854285524,0.2874364438244022,-0.119140625,0.60876464843,0.05035830603177723,0.22379593290753155,0.017392365827989125,-0.12866210937,0.20361328125,0.008650681026910216,0.09275595105496894,1.2017932990461413,0.6800600434,1.78491473911,0.08214406293777865,0.28582796891332524,stairs down
-1.0385141733487027,-1.62341308593,-0.38940429687,0.10340818861879163,0.3207011466101555,0.11194837415362162,-0.37658691406,0.62377929687,0.06126965467098993,0.24685718006256988,-0.1473685599648649,-0.76989746093,0.15295410156,0.053774288332205364,0.23126525139627577,1.1153524873165948,0.48689801939,1.63367024848,0.08648926706654268,0.29329465988120484,stairs down
-0.688120874861839,-1.17260742187,0.16735839843,0.10878594535787686,0.3288779998348329,-0.20231189946827588,-0.91748046875,0.07971191406,0.057254059551405646,0.23858963353872836,-0.620723329738046,-0.99108886718,-0.29833984375,0.046146525106035695,0.21419924180919314,1.040459941245,0.75221640201,1.52417170609,0.028310778655322798,0.16777387469706634,stairs down
-0.7689264833497385,-1.42700195312,-0.0888671875,0.07508609744624847,0.2731214723148113,-0.1313029769173856,-0.63830566406,0.3505859375,0.04981955469189563,0.22247232791377322,-0.5669320299693464,-1.23193359375,-0.05529785156,0.05177468302227859,0.22679569308348418,1.037574516011111,0.7322414939,1.4797889437,0.029054922056707063,0.16989708827803976,stairs down
-1.094003777751842,-1.68041992187,-0.35693359375,0.09836555661177114,0.31280639884107186,0.2483867444465263,-0.16333007812,0.72155761718,0.051355100982501345,0.22601949247206596,-0.09294433593689473,-0.39111328125,0.20556640625,0.022364532473887835,0.14915369391414948,1.1630274514763157,0.45690006427,1.70329767191,0.08617908994392215,0.2927892002556149,stairs down
-1.193444228750061,-1.87316894531,-0.52807617187,0.145681111976996,0.38051650754431354,0.1906522425189634,-0.24645996093,0.65356445312,0.06688651240089673,0.257834574510647,0.05648878143987805,-0.13610839843,0.26928710937,0.012305875336037919,0.11059312596548745,1.2448801950831707,0.54737064516,1.88349332806,0.13846832592918767,0.370977097498813,stairs down
-0.9992573523352356,-1.66040039062,-0.39099121093,0.0809703609394864,0.2838070336481818,0.26771361665235605,-0.19848632812,0.5986328125,0.020046459114173788,0.14121438960266586,-0.05220135593743455,-0.24328613281,0.18103027343,0.009059032353791444,0.09492946257631578,1.053510425293246,0.48990673347,1.67991803383,0.07290785767615979,0.2693067788671943,stairs down
-0.9705779642953163,-1.39685058593,-0.20727539062,0.06840314814768877,0.2607109833326903,0.2640643542298734,-0.18029785156,0.68493652343,0.02214009297494447,0.1483238544679074,-0.06226590313322785,-0.40112304687,0.13952636718,0.015507236020963917,0.12413335151175164,1.031567349151076,0.54376350528,1.41812001622,0.05723895828936523,0.23848833598618163,stairs down
-1.2454077980697158,-2.17529296875,-0.58117675781,0.11760099253423155,0.34195439034562886,0.20114829323374997,-0.24890136718,0.75964355468,0.05931946613245404,0.24286297311703758,0.06835382634772727,-0.17236328125,0.44165039062,0.018395174710186413,0.1352429542418397,1.294097090576307,0.59514447892,2.24119154977,0.11635316810657582,0.34013537093415575,Null
-1.0653852341455492,-1.65588378906,-0.77868652343,0.0460927585231567,0.21407084433188245,0.2630798692616763,-0.13403320312,0.54772949218,0.029854517350879295,0.1722844969416092,0.1675912493209248,-0.16467285156,0.61315917968,0.043767729341730566,0.20860186165654432,1.144030980066474,0.80032471459,1.74726247397,0.042807109146262554,0.20629994960978765,Null
-1.0125392225893441,-1.25341796875,-0.88586425781,0.004265796416600922,0.06513436921985717,0.2290692772333333,0.12756347656,0.36706542968,0.0027098275409330095,0.051913579535251504,0.031144605958251362,-0.25390625,0.1826171875,0.009190500730535008,0.09560480853528029,1.0445431835950272,0.91440742864,1.29629781816,0.004863328371977167,0.06954676704997131,Null
-0.9849603492056025,-1.46264648437,-0.26379394531,0.025094883824440396,0.1579357775347245,0.2609149978781928,-0.267578125,0.69641113281,0.022880847555194508,0.15080786161251383,-0.018065670887771088,-0.29382324218,0.15014648437,0.009423562341284773,0.09678219822594292,1.0398773174128313,0.65392333797,1.48978920883,0.014344989260852507,0.11940926958530299,Null
-0.11521169526617484,-0.45654296875,0.39514160156,0.029013192070361016,0.16986656538939512,0.7060386782753004,0.26879882812,1.21911621093,0.06125588591063764,0.24682211062552645,-0.5037848467362296,-1.09606933593,0.27075195312,0.1992695297968186,0.4451748255038797,1.0125266202143717,0.48338915883,1.24932424637,0.028465343021882833,0.16825514761622862,Null
-0.6432355398117469,-1.79565429687,0.0517578125,0.19555808462151555,0.44088549972842556,0.15274672910307235,-1.03051757812,1.28344726562,0.5083602571921149,0.7108430530041147,0.041219320642228906,-0.51696777343,0.45202636718,0.06477209842174948,0.253735896273592,1.0706892739684941,0.55757140925,1.85896649801,0.05680903194974213,0.2376274581476382,Null
-1.022081305215864,-1.29821777343,-0.88110351562,0.007834449307644523,0.08828041259782486,0.17013086448481676,-0.23461914062,0.40771484375,0.010350071377017803,0.10146862826332455,-0.06333595795015708,-0.28625488281,0.14538574218,0.012317376277134223,0.11069276126333694,1.0483572179383769,0.88729192887,1.34345968015,0.008785671156616257,0.09348621758478287,Null
-0.9004423889891772,-1.01745605468,-0.7705078125,0.0038350293389539636,0.061731329172193004,0.4693441270241771,0.26403808593,0.68701171875,0.013347224275104352,0.11516400554034825,0.05360509172082278,-0.12390136718,0.17553710937,0.00390898329113545,0.062323694455308436,1.026287296773671,0.93778510526,1.12325444169,0.001656528221034954,0.04057146614562529,Null
-0.8595636541159358,-0.88720703125,-0.80822753906,0.00028505395527026074,0.016838337286332068,0.5430412088457753,0.51428222656,0.61462402343,0.000417866462661838,0.020387051838056516,0.05007363385513369,-0.03295898437,0.14306640625,0.00339687577766884,0.058126677752631896,1.0198782174419785,0.97758120999,1.04673501402,0.0001780446377029829,0.013307611631729221,Null
-0.8699224741145397,-0.92053222656,-0.83776855468,0.0008245102487713699,0.02862607035006522,0.5487008124003067,0.50244140625,0.58520507812,0.00029165294981490174,0.01702538304750283,0.15271819880736198,0.12243652343,0.18994140625,0.00047474697210375964,0.021721749791227537,1.0402039490066872,0.99676062008,1.09089015644,0.0007218638150434328,0.026784980916200095,lift up
-0.8670571645065624,-0.89721679687,-0.84558105468,0.00016781142556474102,0.012920425988459435,0.5182482401502083,0.49145507812,0.54455566406,0.00013884886236686816,0.011752688679987544,0.15689404805135418,0.13720703125,0.1787109375,0.00010961609124330348,0.010442469731888681,1.0223557172078126,1.00146345252,1.05845672874,0.00018898732924555226,0.013711419337146136,lift up
-0.8473055894165604,-0.85546875,-0.83898925781,1.6447390904531774e-05,0.004042601940942313,0.544259429733949,0.52990722656,0.5693359375,7.134316896374642e-05,0.008419545942318111,0.16433774133777068,0.15283203125,0.17810058593,4.175112500612368e-05,0.0064409001136177075,1.0204175254608916,1.01219485653,1.03883612468,2.8956689170523186e-05,0.005363977224027234,lift up
-0.8269894161705946,-0.85498046875,-0.79455566406,0.00036902620808874605,0.01915806545110458,0.5406480943795675,0.51318359375,0.57397460937,0.00026545252314494024,0.016248619776505758,0.1586168443795135,0.13720703125,0.18542480468,0.00012627276214827705,0.011206703649031024,1.0007616421526486,0.95941793271,1.03920670992,0.0006072169106675911,0.024575082036412715,lift up
-0.8423931699774543,-0.85327148437,-0.83447265625,1.6586883414614143e-05,0.004060339499163212,0.5531753077619999,0.53833007812,0.56604003906,2.1647132735470135e-05,0.004638527567194012,0.1605261600346667,0.15197753906,0.16821289062,1.4195977231570158e-05,0.0037563201415646507,1.0205041988371515,1.00861750839,1.0341493784,2.124313577306426e-05,0.0045950396620324995,lift up
-0.8250834679690052,-0.89294433593,-0.76281738281,0.0009874596925177885,0.03134150198193545,0.5853885031450261,0.47961425781,0.7607421875,0.0037209032200739337,0.06083931337040588,0.1336407886084817,0.01196289062,0.20910644531,0.0018056871231326393,0.04238199221189611,1.0232188472550785,0.95523251804,1.10257883059,0.000809663872751479,0.02838000695707579,lift up
-0.850354237158089,-0.91052246093,-0.75793457031,0.0017247532775368029,0.04139767611679384,0.5630372648753503,0.45043945312,0.66345214843,0.003095092081760965,0.055456091815568424,0.10365402318617833,-0.08544921875,0.21105957031,0.004315574026694907,0.06548348107760306,1.028806369281656,0.90089800227,1.1114735969,0.0013323807023725932,0.036385356959683604,Null
-0.8531057257356317,-1.16003417968,-0.650390625,0.011679804960730556,0.10778836812496281,0.5022358141401578,0.18347167968,0.74340820312,0.01802651190362658,0.13390905691993518,-0.06288163034436842,-0.38635253906,0.18627929687,0.02019675154514105,0.14174079459632713,1.0089852625800002,0.69804669824,1.35516148363,0.01565585152198708,0.12479363887414417,Null
-0.8369794060163529,-1.06896972656,-0.66088867187,0.008268572194975248,0.09066384910759527,0.5681331858877647,0.28247070312,0.77880859375,0.012077006655762943,0.10957173650235177,0.07065788717664705,-0.33715820312,0.52404785156,0.03191181788440032,0.17811260850543323,1.033903667314706,0.79663715365,1.26922364836,0.012214473211066714,0.11019357226557579,Null
-0.8540492657071038,-1.12329101562,-0.57568359375,0.01577570762041849,0.12525774055062586,0.5457990469145354,0.24548339843,0.80139160156,0.018661360957148057,0.13623283857832882,-0.015298812116229509,-0.4267578125,0.24194335937,0.025800696794594735,0.1601864831389235,1.0319303235628414,0.63781990598,1.31274431656,0.022683157767211547,0.1501972239604431,Null
-0.8595299635072454,-0.939453125,-0.74304199218,0.0033261559521353627,0.057499903048836266,0.5370267765205987,0.40063476562,0.77697753906,0.008724306410632508,0.09312392310722425,0.08121476772748504,-0.05017089843,0.31481933593,0.009753692204473897,0.09846464777742384,1.0266861944972459,0.95608452661,1.17046684856,0.0013826837043460559,0.03707295727624462,Null
-0.9001831721707649,-1.0673828125,-0.697265625,0.008046822108318624,0.08945865191700961,0.41855375362475405,0.142578125,0.7119140625,0.021183361072875093,0.14514683944694978,0.08124412994912568,-0.16784667968,0.30480957031,0.014166489182152223,0.11869741645444577,1.0164757751071585,0.8987987041,1.12142331399,0.0020654138949160856,0.045322483164427,Null
-0.9014892578092737,-0.95654296875,-0.82788085937,0.0007764929800913505,0.02778767767342031,0.4377216360388826,0.28784179687,0.55480957031,0.00368900537789894,0.06056728827764477,0.06161277387178771,-0.10595703125,0.28820800781,0.008436385929220799,0.09159287789763743,1.0101267555964804,0.8984335526,1.05098516761,0.0007517876296737034,0.027342050010591226,Null
-0.890817706501236,-0.92346191406,-0.8681640625,0.0003119888445917545,0.0176135203259832,0.5294539205104495,0.51489257812,0.55578613281,0.00012181694121479157,0.011006024549150626,0.12469962473252809,0.10595703125,0.15295410156,7.465146900191913e-05,0.008615804009297533,1.0437976178364607,1.01898302122,1.08236585876,0.0004221419063243072,0.020488297210381156,lift up
-0.8555510764853488,-0.87524414062,-0.84191894531,7.5119086122425e-05,0.00864189488767482,0.5394322594890697,0.51928710937,0.57116699218,0.00017738036023704824,0.013279649056841801,0.13493453624348836,0.11364746093,0.154296875,0.00015473894508961797,0.012403197170892156,1.0205585803738952,1.01290144703,1.03745099635,2.7349889773622906e-05,0.00521448739442018,lift up
-0.8521565319981282,-0.86413574218,-0.83203125,4.002881767949343e-05,0.006309893805044581,0.5448768330089839,0.52380371093,0.55895996093,6.175373992715349e-05,0.007837314975410885,0.14743939567652406,0.13098144531,0.16650390625,9.062431001507716e-05,0.009494192331967312,1.0222301676650802,1.004043822,1.0324730484,3.695345739761572e-05,0.006062659921682125,lift up
-0.8277684653640245,-0.84826660156,-0.79553222656,0.00027157941931745937,0.01642934713396885,0.5377710854095731,0.51306152343,0.55895996093,0.00011500057720211082,0.010691087604654198,0.15519156106762197,0.14453125,0.16857910156,3.216623341054685e-05,0.005654210629342555,0.9992742763698171,0.96360265006,1.02600109275,0.0003520533336973288,0.018705792338963956,lift up
-0.8457909639515343,-0.85412597656,-0.83618164062,2.1735732348159625e-05,0.004649809509356446,0.5500313895055555,0.54113769531,0.55810546875,1.5773128233779863e-05,0.00396101912755281,0.16510558758735452,0.14453125,0.18542480468,7.015330896704114e-05,0.008353569742218892,1.022371581464656,1.01426313499,1.03332767565,2.0288484975355332e-05,0.004492342205799136,lift up
-0.8391142345569642,-0.8466796875,-0.82971191406,1.6071116920837282e-05,0.003996930761295998,0.5559895833290476,0.53796386718,0.56640625,3.019593909266793e-05,0.005478704350480456,0.16878327868863097,0.15625,0.18176269531,3.118384688320203e-05,0.005567605297342161,1.020672007905357,1.00125361632,1.02939601616,2.7165565472116033e-05,0.005196524384397628,lift up
-0.8468229332710204,-1.02990722656,-0.76245117187,0.002045472165081923,0.0451113742043735,0.5531068140106632,0.27856445312,0.63684082031,0.0029669299713648636,0.0543304019270222,0.12236614616362244,-0.21691894531,0.27954101562,0.017095065105088396,0.13041413031249519,1.0295387073613265,0.96237307213,1.18635193641,0.0011185307026267326,0.03335901547299645,Null
-0.9015008835525594,-1.09228515625,-0.62365722656,0.010723866966332292,0.10324744270375916,0.44761948358119036,0.19104003906,0.72631835937,0.01910934309762888,0.13782451526401984,-0.044373285202083335,-0.35083007812,0.25427246093,0.017008985586728437,0.13002977207125557,1.0240281517322023,0.65705480499,1.27065353085,0.013043390311705535,0.1138672520247137,Null
-0.9254923715595812,-1.09399414062,-0.68994140625,0.005733546014312984,0.07552170183988852,0.3837833104924083,0.17883300781,0.67492675781,0.011702881876966522,0.10789629393126912,-0.11758374917811518,-0.32751464843,0.03991699218,0.00776453609767456,0.08788563065837764,1.0184070756998427,0.75128545472,1.27065353085,0.005597051166418241,0.07461733869289207,Null
-0.9081653573856352,-1.16162109375,-0.63244628906,0.011165335995776557,0.10537385376161096,0.45210594893486183,0.20166015625,0.76452636718,0.021812267193577938,0.14728121886404086,-0.04480115352900552,-0.36303710937,0.18994140625,0.01691223233696156,0.12968729540415105,1.0324746502877347,0.69512017408,1.30666718505,0.01486366606778352,0.12157938297981104,Null
-0.9097238892253072,-1.13537597656,-0.77160644531,0.006304222415368353,0.07917703767967973,0.44400382441134073,0.22387695312,0.78088378906,0.018797104783600423,0.13671902949126294,-0.01670317410078212,-0.27368164062,0.16040039062,0.010616480212857415,0.10274809130847243,1.0248757704297764,0.82373973974,1.29221389955,0.01022096890162279,0.10081601319580895,Null
-0.8286041610494252,-0.99914550781,-0.71130371093,0.004667767213002435,0.06812445203193819,0.5582640198410919,0.18090820312,0.70617675781,0.013539367368003003,0.11602394111503476,-0.1141273235416092,-0.28356933593,0.08178710937,0.007112773957346151,0.08409456549680862,1.016903409000805,0.82359487415,1.1280266526,0.002364052633978304,0.04848160604381443,Null
-0.8056828425439011,-0.81884765625,-0.79614257812,2.6619376095255776e-05,0.005145203182289314,0.6145026238362636,0.60583496093,0.62829589843,3.1209370258347974e-05,0.0055711659643187285,-0.1193170233045055,-0.14489746093,-0.10009765625,6.670656706114146e-05,0.00814493999130162,1.020331990597198,1.01166571106,1.03221886811,2.146749656650139e-05,0.004620556599443781,Null
-0.7776574423112209,-0.81396484375,-0.72985839843,0.0006533310568665403,0.025485929853340826,0.6097504371788371,0.56066894531,0.6298828125,0.00019403089708298847,0.013888945621322047,-0.1310027366419186,-0.15795898437,-0.09924316406,0.000204200525673487,0.014248274046877405,0.9971492490522091,0.95784520938,1.02762849292,0.0005167948339429773,0.022666940967307474,lift down
-0.7830613878005557,-0.80773925781,-0.74987792968,0.0001597306521884898,0.012603303522344114,0.6344943576350555,0.61315917968,0.65002441406,5.735008336554936e-05,0.00755191841794496,-0.13225029839066665,-0.16247558593,-0.08557128906,0.0004461245325497429,0.02106290727616837,1.0167883242043334,0.99209691933,1.02848920313,4.118143271711897e-05,0.006399425519513579,lift down
-0.8013805042578978,-0.814453125,-0.78649902343,3.9693504182059784e-05,0.006282354089694251,0.6205541437288068,0.60961914062,0.63708496093,4.1717536647145186e-05,0.006440536094838904,-0.10704664750227275,-0.12561035156,-0.08325195312,8.06762524854526e-05,0.00895644263573657,1.0192628866076137,1.00885636584,1.03179634678,2.159969740385226e-05,0.004634325393239158,lift down
-0.7959291148531936,-0.84155273437,-0.7578125,0.000508296171043086,0.022486327724763736,0.6222205037186387,0.55212402343,0.67810058593,0.0009319294333597835,0.030447499432084735,-0.15016054482659688,-0.24975585937,-0.08203125,0.001379932813384066,0.037050074686245923,1.0227242144005235,1.00656543135,1.03368402549,5.053941673793299e-05,0.007090473359502746,lift down
-0.799695043503413,-0.84619140625,-0.76159667968,0.00043779622982409634,0.02086084119861355,0.6267886590065269,0.56848144531,0.67407226562,0.0005775036452943629,0.02395924747636949,-0.11062859631856287,-0.15881347656,-0.05456542968,0.0006273167027874653,0.024971189706251968,1.02280597232994,0.97756129495,1.03679815389,0.00011629186285633543,0.010751534978602723,lift down
-0.8056074110801656,-0.84216308593,-0.76342773437,0.0003120623542713796,0.017616419978717733,0.6442830628415469,0.60083007812,0.69787597656,0.0005888387396285684,0.024198873670554136,-0.1454727425717127,-0.1787109375,-0.11645507812,9.437659223738123e-05,0.009687888036136185,1.0419478980274588,1.0121265164,1.09033041175,0.000603978293345593,0.024507986386018636,lift down
-0.7719317349476704,-0.78039550781,-0.76477050781,1.0783776352184078e-05,0.003274523613540995,0.6461729569831818,0.63586425781,0.65966796875,3.244515314407734e-05,0.005679859653462526,-0.16743469237880682,-0.17846679687,-0.15795898437,2.7111364271206672e-05,0.005192044147419842,1.0205413247954545,1.01154307456,1.02815946677,1.7916788424189077e-05,0.004220780554584747,lift down
-0.7713019120025263,-0.78674316406,-0.75854492187,2.9291858654120894e-05,0.0053979339544861,0.6513691149221579,0.64074707031,0.66552734375,3.0489270066326492e-05,0.005507158997511525,-0.1661331979813684,-0.17822265625,-0.15124511718,3.947741314260187e-05,0.006266549072971232,1.0231585006240527,1.01343327766,1.04195392541,3.4201545224172525e-05,0.005832798392831157,lift down
-0.8513534454488624,-0.99768066406,-0.77026367187,0.0039010010394571674,0.06227071343573757,0.5344187114019759,0.18420410156,0.65356445312,0.011133564228263016,0.10519931643785516,-0.08049623409263473,-0.41735839843,0.08898925781,0.009658154486996178,0.09798122895021782,1.0189541630302397,0.84467510441,1.20142331476,0.00318201868264714,0.05624024074058923,Null
-0.9027460271623298,-1.09729003906,-0.55102539062,0.01269759813688202,0.11236303971022885,0.4337754683015342,0.15808105468,0.73950195312,0.021401855432723663,0.14587753076262763,-0.043750416149829545,-0.45263671875,0.19860839843,0.021300747083577248,0.1455325396999292,1.0216691699919886,0.59589065351,1.25071387767,0.016396340269182873,0.1276839036250308,Null
-0.9171619948016758,-1.0537109375,-0.78295898437,0.004109541571712517,0.06392638922158558,0.4228242842143017,0.21154785156,0.65026855468,0.01107499832685191,0.10494344585451355,0.03575910003575419,-0.13793945312,0.28845214843,0.013857758305847429,0.11738969572190178,1.023179922394134,0.88489420379,1.22870401657,0.0032462458566226084,0.05681646244628077,Null
-0.8849123690960107,-1.13049316406,-0.69641113281,0.007789053247438662,0.08802057778237868,0.47927661651835096,0.30041503906,0.73059082031,0.011737283195870661,0.10805022368531135,-0.0476574187574468,-0.37524414062,0.16149902343,0.012637990318909104,0.11211943170632353,1.02007466684367,0.84956286072,1.21257087313,0.00652281549069552,0.08054886506722085,Null
-0.870089901190647,-1.08178710937,-0.70690917968,0.009347913489622842,0.09639982242314192,0.542331112128,0.24926757812,0.90686035156,0.017827834030736973,0.13312762455174906,0.00843434053270588,-0.43029785156,0.17272949218,0.01566725814877652,0.1248002315972406,1.0390734871577059,0.77859320935,1.30213807626,0.014251719355994012,0.1190289280499638,Null
-0.8869969884740783,-1.09448242187,-0.7802734375,0.004457457517059061,0.06657744002105409,0.4878598005372626,0.26818847656,0.68334960937,0.010465654291096681,0.10201562110132115,-0.050295014620614524,-0.19860839843,0.09753417968,0.0070556240589957605,0.08376280299041709,1.023503361878045,0.93007688622,1.15405492941,0.0016062222048752008,0.03996559641076406,Null
-0.8489700575960453,-0.90405273437,-0.80688476562,0.0003706994071760809,0.019199090088930847,0.5485867430217514,0.43786621093,0.62512207031,0.0014342420065160963,0.03776425484942593,0.12202755340389831,-0.11328125,0.21472167968,0.005712824135327124,0.07536941218262654,1.021764867823277,0.97998507602,1.05878616357,0.00013904967814504606,0.011758575030295834,Null
-0.8295229647985105,-0.83728027343,-0.81811523437,2.0035493271213267e-05,0.004464182063770927,0.5885185079339361,0.57983398437,0.60083007812,2.591185409621031e-05,0.005076812492604022,0.12480910280531914,0.11145019531,0.13562011718,4.02935553694194e-05,0.006330815741059096,1.0247439059367554,1.01232692304,1.03460091863,2.5540726870064575e-05,0.005040324586760723,Null
-0.8398516486633528,-0.89733886718,-0.81030273437,0.0008023194561561241,0.028241811732667595,0.5932997759611176,0.56481933593,0.61047363281,0.00011014025561230752,0.010463860270271413,0.13933320886594117,0.11572265625,0.185546875,0.00041493079956023615,0.020309850569392635,1.038066209244353,1.01703063089,1.08761989162,0.0005102882655475709,0.022523023106765204,lift up
-0.8411113501898305,-0.88195800781,-0.79357910156,0.00031918743421514975,0.017815277583517357,0.5787939728953106,0.50830078125,0.62731933593,0.0004467271760144828,0.02107613089881818,0.1435671014257627,0.10900878906,0.17553710937,0.0003123083718578124,0.017622256319198167,1.031412553963164,0.97845154969,1.07779889081,0.00034450027687068634,0.018508212977562943,lift up
-0.819317524655363,-0.8515625,-0.79125976562,0.00016013096953642,0.01261888993194048,0.5847631699510055,0.52990722656,0.61376953125,0.0002703430752740936,0.016396120845010336,0.1736474063767598,0.12463378906,0.20788574218,0.00024186632952771285,0.015508549931662383,1.0217504949832403,0.99770626369,1.03581833448,7.753633043692686e-05,0.008780840881130767,lift up
-0.8202956179315426,-0.85656738281,-0.76818847656,0.0006280559272668927,0.02499430343597348,0.5710949187543616,0.533203125,0.6162109375,0.00022484445499221936,0.014954881271633143,0.10637843354882978,0.01867675781,0.15454101562,0.0021195091800528328,0.04591552237590847,1.0063814894897338,0.96170761294,1.04620693725,0.0005062675496995468,0.022440468738445393,lift up
-0.8224853515589999,-0.83923339843,-0.79797363281,9.033729338152246e-05,0.0094765973607673,0.5963838465042941,0.56994628906,0.61340332031,9.983579663737386e-05,0.009962355506876339,0.12822768267105883,0.11169433593,0.14453125,4.831907944678032e-05,0.0069307178248491415,1.0241184176754117,1.01282738732,1.03371944398,1.6839412425056782e-05,0.004091498143449483,lift up
-0.8028538618097353,-0.81970214843,-0.76806640625,0.00011956722775557017,0.010905713957411712,0.6030105510053968,0.58361816406,0.62036132812,6.698772813082892e-05,0.008162922007887633,0.167931289265873,0.12683105468,0.20239257812,0.00040712716424150106,0.02012394226441199,1.0183025398707934,0.99821034117,1.02866443987,4.7696562299652965e-05,0.006887974995320666,lift up
-0.808405949515917,-0.97680664062,-0.68395996093,0.0016105371926638812,0.04001259035341414,0.6073453101843195,0.48449707031,0.70690917968,0.002023227647134547,0.04484702761509283,0.13852235692183432,-0.14526367187,0.22680664062,0.0069689762603929225,0.08323304460653495,1.0251763551221302,0.94699202056,1.1459766999,0.0011371207952685179,0.033621306783834674,Null
-0.9035071548113265,-1.06945800781,-0.67346191406,0.009814118942808158,0.09881319197043312,0.44239589145831626,0.20739746093,0.77880859375,0.02024123215926339,0.14190828223403343,-0.05236318160035714,-0.51184082031,0.16882324218,0.030009613408721162,0.1727903444531195,1.0294832387934694,0.7106353411,1.30342663583,0.014779383032903378,0.1212599604874972,Null
-0.8711091047518866,-1.06140136718,-0.67761230468,0.004051952562434114,0.06345446071044987,0.5116650083489935,0.25354003906,0.75036621093,0.010728154678724422,0.10325057872859139,0.08146082080339623,-0.03698730468,0.30126953125,0.009494121598075203,0.09713089179804506,1.02337665791717,0.87993607269,1.21161432117,0.004115680022892869,0.06395150696328175,Null
-0.8737555088105642,-1.26684570312,-0.43127441406,0.029078045502434022,0.17008505907448265,0.4713328826083589,0.11279296875,0.80676269531,0.0337720949677506,0.183300040199523,-0.010272060295999998,-0.49328613281,0.50598144531,0.048498602308879396,0.21965857945413428,1.0341826355649741,0.51562851124,1.37347349048,0.027091822934974044,0.1641733550539383,Null
-0.8673621868226435,-1.83642578125,-0.306640625,0.10633829138457086,0.3251571186040872,0.0406992243626437,-0.3251953125,0.62231445312,0.0769415656276108,0.2765851997517311,-0.4659725496105172,-0.88146972656,0.23510742187,0.054959581626194076,0.23375996655046757,1.0638826200983331,0.50947985184,1.94646285028,0.07656807048229855,0.27591307344925936,stairs down
-0.9117925116323404,-1.40600585937,-0.56005859375,0.05267374889042827,0.22889641625646667,-0.1608854253213298,-0.45153808593,0.52026367187,0.04605776859262175,0.21403920309562435,-0.3625864881111702,-0.74877929687,-0.0302734375,0.03874802016520689,0.19632094558392496,1.0454970286787235,0.65326730373,1.46492824565,0.03257616974534875,0.18000803383933528,stairs down
-1.0837726834413923,-2.11169433593,-0.23974609375,0.1863770964067224,0.43034578484136504,0.13880321647360763,-0.3623046875,0.50170898437,0.04015986660071007,0.19976408643652516,-0.0614338162563924,-0.78295898437,0.32043457031,0.03543562483138182,0.1876468724089322,1.1340733037958228,0.35107814484,2.12781862946,0.17289019288810079,0.4144827513431179,stairs down
-1.239836237977128,-1.89453125,-0.58508300781,0.14657046958274625,0.38186231307761775,0.22111879006210255,-0.23254394531,0.59521484375,0.042868450206036024,0.2065154037834738,0.04493752503943589,-0.37133789062,0.54333496093,0.03615915328091891,0.1896673976349972,1.2926991446489742,0.63273606015,1.9081675859,0.1422061410340196,0.3761341233819483,stairs down
-0.31899524408468927,-1.9892578125,1.0830078125,0.9134843157434124,0.9530600124891816,0.37275652696559325,-0.06579589843,1.18078613281,0.05884580886813451,0.24189532172230904,-0.20518985036892654,-0.68542480468,0.17126464843,0.04092268694168873,0.20172130606495003,1.0741402836146892,0.33896061821,2.05937904059,0.13733504355308698,0.369539090425116,stairs down
-1.102164890451576,-2.03063964843,-0.40942382812,0.13852210865810888,0.3711728318601106,0.27337115743538043,-0.06420898437,0.54333496093,0.024305338062282238,0.15547747050194402,0.02409959876027174,-0.28576660156,0.41284179687,0.022887691360684574,0.15087511966432482,1.1604078984732065,0.45097923294,2.08583644736,0.1293384991673261,0.3586580161399111,stairs down
-0.9421549997471338,-1.67980957031,-0.14624023437,0.15154794624537238,0.38804983275657806,0.2901727955774522,-0.05969238281,0.88452148437,0.03391682524377662,0.1835777614792702,-0.1247931802321019,-0.453125,0.22216796875,0.023196391314423453,0.15181779737252465,1.029452398279172,0.46538142355,1.7070614967,0.1358548204900675,0.3674091767527116,stairs down
-1.0962921925043592,-1.93896484375,-0.39477539062,0.14463870074290325,0.3793375328332494,0.22163398938097437,-0.1806640625,0.66149902343,0.040592627400911276,0.20095885171075845,-0.02285844851748718,-0.40747070312,0.26879882812,0.017716021357230653,0.13275982059966454,1.1465245357293332,0.42185318855,2.02802023139,0.13960470968398564,0.3726778610219054,stairs down
-1.1506285233896592,-1.91027832031,-0.42065429687,0.16505036563013278,0.40510810836340927,0.2675940773675568,-0.28527832031,0.83337402343,0.06924603649411211,0.26239777648627477,0.12395199862159091,-0.27258300781,0.55102539062,0.034865515462700544,0.18619187936917686,1.2314286079877272,0.53681556294,1.97307746091,0.16305933246182946,0.4026572475219249,stairs down
-1.1662591093283872,-1.90539550781,-0.48559570312,0.124409568390226,0.3517679629286424,0.19266304918354837,-0.23400878906,0.80798339843,0.05311956749722485,0.22985643002678677,0.056092621176827964,-0.14282226562,0.40979003906,0.017729593488816458,0.13279410037240094,1.2147601874767204,0.49125677239,1.92681285704,0.1196355830067485,0.3449527227716465,stairs down
-1.1065347360970348,-2.20727539062,-0.39025878906,0.12107516343315572,0.3469455837222291,0.2704041946739535,-0.30749511718,0.78149414062,0.055481888228144906,0.23486021185066536,0.05911325853883721,-0.27990722656,0.36828613281,0.01858861707253763,0.13594316355545333,1.1737648556375002,0.49296209146,2.27984923964,0.1180051691484588,0.34251874778417923,stairs down
-1.0254731049374053,-1.57006835937,-0.37915039062,0.10983395904816899,0.3305151463582765,0.16836993242870268,-0.2724609375,0.41418457031,0.024980334144620343,0.1576239363529733,-0.08992754961886487,-0.5546875,0.28381347656,0.030892153619273097,0.17528596351423825,1.073509858596973,0.48500629017,1.58000107472,0.10096355600931255,0.3168876883974997,stairs down
-1.0352260977153476,-1.6298828125,-0.46838378906,0.07989975503792233,0.28190864410409133,0.21697051512053475,-0.74841308593,0.583984375,0.0414953353279205,0.20315864524799612,-0.0299777270626738,-0.27893066406,0.1982421875,0.015226218618520722,0.12306419052488289,1.0849903605858289,0.53454879756,1.6991728897,0.0787758342713729,0.27991886882726696,stairs down
-1.187211147570465,-2.15710449218,-0.34765625,0.20882809754019657,0.45564677184638613,0.18087342727761627,-0.537109375,0.5908203125,0.0479542490189162,0.21834707519348734,0.1043651492083721,-0.16967773437,0.38903808593,0.021382720559709086,0.14580261457504828,1.234674620442907,0.37041004843,2.21076644532,0.2064040233637178,0.4529944811717559,Null
-1.088815462787514,-2.28601074218,-0.7109375,0.08752280738056871,0.2950056410356002,0.3397609904631073,-0.11572265625,1.99780273437,0.11161228257829908,0.3331391671818627,-0.06250413797621468,-1.19946289062,0.43627929687,0.07296846720463107,0.26936261057816885,1.1897350195137852,0.71369850681,3.26431801527,0.16075120294454923,0.3998037069085989,Null
-0.8936539989362712,-1.16528320312,-0.76110839843,0.0037579823325701017,0.061128968533486726,0.4017396053981356,0.16284179687,0.49499511718,0.004808836069921386,0.06914960234559993,-0.2689760714559887,-0.32800292968,-0.10900878906,0.00447336328995121,0.06669400311141124,1.0214213257338982,0.8152454465,1.18404720294,0.0020367984020962524,0.04500323395591909,Null
-0.9065718801363684,-1.03576660156,-0.76403808593,0.003061037525800845,0.055180855393703716,0.4153558028338947,0.26306152343,0.54833984375,0.004473964672515067,0.06671144946730018,-0.2104382966657895,-0.375,-0.01281738281,0.010446982210161767,0.10194115014686747,1.0263840260606842,0.84714486478,1.13639883409,0.0023263922030785306,0.04810559253962728,Null
-1.1375125265826178,-1.44982910156,-0.83337402343,0.025101754363656775,0.15802003533078107,0.21424106777308904,-0.18737792968,0.47583007812,0.020750349857273618,0.1436722286390263,0.08777558491225132,-0.18933105468,0.24096679687,0.0103626107198262,0.10153007541334574,1.1737493217196857,0.86616257077,1.51104696758,0.025907102665057875,0.1605349288600116,stairs up
-1.1119055035427585,-1.451171875,-0.81665039062,0.02788445080535101,0.166505841762241,0.24167887369413796,0.00646972656,0.57202148437,0.018170393802587403,0.13440969552825352,0.0880856568754023,-0.10705566406,0.2373046875,0.006080910291100557,0.07775578776404285,1.1507003644331035,0.84461077298,1.51074331686,0.030401124267670023,0.17385742768913676,stairs up
-1.1474168387971204,-1.44470214843,-0.81750488281,0.021157809156448035,0.14507596384831978,0.20655511186638742,0.01977539062,0.46484375,0.015007067598138184,0.12218222687278604,0.11164512434256545,-0.15686035156,0.357421875,0.015540937683526023,0.1243365252757358,1.183984369917906,0.86902953734,1.48261604997,0.021423329167269155,0.1459834413220054,stairs up
-1.1560794048391925,-1.51904296875,-0.68933105468,0.041536764480039436,0.2031717799156085,0.2303451632820497,0.03381347656,0.48510742187,0.014111684633043107,0.11842311606241003,0.08575704823204969,-0.21960449218,0.32849121093,0.01684921273664609,0.12940076986396726,1.1950174454770808,0.7227735785,1.5777359379,0.0411691355977725,0.2022706767700552,stairs up
-1.1468971488370618,-1.61511230468,-0.7421875,0.057248744150065145,0.23864963341839626,0.2253462014707732,-0.083984375,0.5,0.022744328458596117,0.15042303564317705,0.03517260993881443,-0.16479492187,0.26672363281,0.01016665497192255,0.10056962530467611,1.1828429732034536,0.74411973898,1.63145230873,0.05826893581263808,0.24076665149766419,stairs up
-1.1807135687899444,-1.65148925781,-0.73840332031,0.06167622979416902,0.24765618117279106,0.2502502441373889,-0.07751464843,0.54443359375,0.0333370027381997,0.18207634983004226,0.03443942599694444,-0.19372558593,0.4091796875,0.02080161228956133,0.14382645019898652,1.2300003641501667,0.73897734629,1.73312719237,0.06322204772009216,0.25074053146957953,stairs up
-0.947550679297033,-1.48620605468,-0.05346679687,0.14507746865729737,0.37984251961652593,0.353927444620934,-0.01147460937,1.11499023437,0.08038014836965238,0.28273397249496945,0.07307316706604396,-0.23962402343,0.28747558593,0.011745649071514734,0.10807919567684968,1.1054052294157142,0.59204839013,1.56108801462,0.04267029604389751,0.20599962103807895,stairs up
-1.0551385022884432,-1.52294921875,-0.58435058593,0.0613876271879802,0.2470223402974238,0.2756223393018563,0.068359375,0.62377929687,0.01730578592639931,0.13115699930145622,0.05371093749874252,-0.14685058593,0.24487304687,0.008802488266172795,0.09354025206079418,1.1064946463091019,0.74174505397,1.56283468476,0.055141558229903215,0.23411828048759173,stairs up
-1.1489740871453475,-1.36389160156,-0.91015625,0.016872191999216222,0.12954522906518773,0.2548292843382353,-0.06994628906,0.75573730468,0.03407922339390887,0.1841113292483051,0.11198156019903743,-0.0830078125,0.27844238281,0.00957171800813882,0.09757321533259672,1.1991412793663636,0.91896393581,1.43382064416,0.019985835438662756,0.14099276333671282,stairs up
-1.1409932341986189,-1.50769042968,-0.79577636718,0.024470585828750915,0.15599804236580098,0.2103311949650276,-0.33093261718,0.48522949218,0.03408882483761519,0.1841208537585805,0.07368056154850829,-0.46105957031,0.48254394531,0.04918228915431125,0.22115732816225545,1.1973935760959669,0.80675392186,1.57677688237,0.02506715551845594,0.15788813428035295,stairs up
-1.15821204024382,-1.55078125,-0.7333984375,0.05277581589119471,0.22908365839468203,0.20648741989623595,-0.06030273437,0.45349121093,0.019868243897012822,0.14055826033811317,0.033052937367191004,-0.32055664062,0.26708984375,0.014649335067685261,0.12069397430059856,1.191462648145674,0.73589674559,1.58833804519,0.0527004921881971,0.22892012145585747,stairs up
-1.1535166545050601,-1.64147949218,-0.55041503906,0.07436979192209228,0.2718856030160127,0.22768613516271086,-0.04919433593,0.60266113281,0.025978582829610037,0.16069251800468085,0.017101609563192788,-0.30517578125,0.287109375,0.021411807469438424,0.14588632793189996,1.1951040863052413,0.57760000878,1.6464630388,0.07594452057089857,0.27474901903196247,stairs up
-1.2319512188714439,-1.62463378906,-0.8330078125,0.025518561651483626,0.15931760340574933,0.24858215658085556,-0.09936523437,0.67150878906,0.027042943806317266,0.16400710086321327,0.1608716995290374,-0.09655761718,0.44763183593,0.016600070972123106,0.12849630554656855,1.28190849513631,0.94009771459,1.58926284918,0.027781883175320123,0.16623271926769184,stairs up
-1.1671779758290108,-1.39978027343,-0.791015625,0.01883273702703513,0.13685488829400105,0.25147356305549456,-0.04736328125,0.505859375,0.023363917907105694,0.1524320987580763,0.12203342311741758,-0.3056640625,0.35437011718,0.017566846415949765,0.1321753580732664,1.2151156291021976,0.80158830307,1.4376704799,0.02299761112801929,0.15123243907084183,stairs up
-1.1697236821858428,-1.58935546875,-0.82373046875,0.038150713250250455,0.1947726454113358,0.21720149007775283,-0.09655761718,0.54296875,0.0216781032608046,0.14682069392232755,0.07595036538646069,-0.20874023437,0.36938476562,0.020051965847670505,0.1412066370754019,1.208970903925618,0.84819697348,1.61186227903,0.039240256215157865,0.19753431432929475,stairs up
-1.204387872865697,-1.68041992187,-0.77087402343,0.07358200678262136,0.27043678600804855,0.26444942589666665,-0.03442382812,0.56298828125,0.03376421736203617,0.1831927557019114,0.0791437322421212,-0.23461914062,0.357421875,0.01736721190227846,0.1313847634719022,1.2568807284190304,0.77897566674,1.71642080187,0.07138846645906635,0.2663753162111444,stairs up
-1.168650525677979,-1.65417480468,-0.74792480468,0.054015331857818025,0.23179304619170446,0.2567300999382447,-0.01611328125,0.56079101562,0.024298198694348933,0.1554636708578986,0.11187484416303191,-0.13549804687,0.3798828125,0.01990973701671775,0.14072609623039303,1.217959911358298,0.75066967709,1.7053315716,0.05875737305968035,0.24175366355296002,stairs up
-1.1768893771661666,-1.61499023437,-0.83325195312,0.03759282252243409,0.19334935611069556,0.27477891709683333,0.01159667968,0.572265625,0.019792485501815206,0.14029443057023805,0.11538085937283332,-0.09289550781,0.42456054687,0.02345959807175629,0.15273921229127,1.2318824409786109,0.91372255378,1.64245766958,0.03695150756730746,0.19169303955583716,stairs up
-1.1607930501262222,-1.60290527343,-0.78076171875,0.02955432598720253,0.17143551349493963,0.26535305446811114,-0.09533691406,0.66955566406,0.0396064534579977,0.19846011590607637,0.1377800835475,-0.20751953125,0.2822265625,0.01002932528811287,0.09986794688131934,1.2164734201870002,0.79014702661,1.62120231356,0.034775829397724514,0.18596405659566295,stairs up
-1.1823068926376774,-1.52526855468,-0.76049804687,0.03912050833149695,0.1971499884736611,0.21214954006729034,-0.03735351562,0.47253417968,0.017230939576652154,0.13084254745511767,0.12624432963509677,-0.13220214843,0.32238769531,0.011187905246254211,0.10543113967138651,1.2198399380381937,0.8002734272,1.57031946038,0.03813481853820763,0.19465042371098082,stairs up
-1.1823425292932652,-1.69311523437,-0.59057617187,0.08731350598805476,0.2947338272351634,0.23019845144775508,-0.0166015625,0.53918457031,0.02860669745849097,0.16870312658761677,0.11292562679153063,-0.11169433593,0.43688964843,0.015739846651418078,0.12513808897118345,1.2276802104038775,0.60950274228,1.75696874077,0.0879155456435207,0.2957481985427094,stairs up
-0.816742119759422,-1.88916015625,0.21545410156,0.3702075921772331,0.6066858032777361,0.35044622696653166,-0.79370117187,0.98852539062,0.1689756657636704,0.4098767226999836,0.08512111068300579,-0.72766113281,0.66320800781,0.11992477011517799,0.3452992374035982,1.162031889971156,0.5377794698,1.92588974142,0.10269953233438209,0.3195401280264412,stairs up
0.05315512799138298,-0.40893554687,0.29040527343,0.026687858453515526,0.1629291310957431,0.935942304891702,0.57604980468,1.28100585937,0.02486578428717424,0.1572689399631602,0.29333885679648936,-0.20788574218,0.71228027343,0.05790993266856807,0.2400039606169456,1.0231384968823405,0.72847463374,1.34341522415,0.02707410034292961,0.1641038974884288,stairs up
-0.9448085687067306,-1.58508300781,0.02917480468,0.15859107658087446,0.39695650531967913,0.31953156299756413,-0.45727539062,0.88159179687,0.07741829919744625,0.27734820722107556,0.1273623735450641,-0.38830566406,0.60412597656,0.04330747085266274,0.20743639714384132,1.0960829052005128,0.57286663848,1.7173622511,0.0876754666206996,0.2951498676922828,stairs up
-1.1664904142646841,-1.4150390625,-0.95788574218,0.009159855795206976,0.09545494239621007,0.24575002569568422,-0.00842285156,0.54675292968,0.024885826211156436,0.157336734993663,0.07464920846794737,-0.22680664062,0.19396972656,0.007618346965179499,0.0870531469977098,1.2072130314949472,1.03730639868,1.46101697919,0.010621364445014351,0.10278843576435384,stairs up
-1.158990368868443,-1.62170410156,-0.5625,0.04333216197112481,0.20753960573188343,0.25252181184149697,0.02075195312,0.42687988281,0.015666059121383732,0.1247888231538784,0.041311663781856287,-0.37268066406,0.3193359375,0.02602831631586273,0.1608491782208744,1.2038008417817965,0.56859782876,1.63198793845,0.04437926805696182,0.21003219738140208,stairs up
-1.1999442858538463,-1.64477539062,-0.82666015625,0.05931089759926726,0.24291302795453407,0.26030523837820513,-0.12072753906,0.53601074218,0.033487514238217025,0.18252611702430357,0.10104667467841025,-0.16931152343,0.46081542968,0.019450644093582926,0.13910750231671662,1.2522362906795896,0.83423957225,1.71324111066,0.0617297918289715,0.24781692596340374,stairs up
-1.2014152574208696,-1.66918945312,-0.75378417968,0.049695052112923674,0.22223048214177918,0.2495526615840994,-0.0869140625,0.48449707031,0.02142983971953664,0.1459340094871835,0.06704541318807451,-0.15161132812,0.32141113281,0.016430880597147778,0.12778429261125673,1.244910265374099,0.7983279166,1.69419672061,0.047676746881369775,0.21767089382540922,stairs up
-1.1752997129634255,-1.5537109375,-0.7861328125,0.03414621315435905,0.1842757717200202,0.24790457203497238,-0.03967285156,0.49133300781,0.0182672912070764,0.1347826656000831,0.11143873014314916,-0.16125488281,0.52453613281,0.028485984553392872,0.16831103179311696,1.2244382767517679,0.88576764088,1.65536322786,0.036610386869278054,0.19080911806962622,stairs up
-1.1724791093271023,-1.66101074218,-0.72839355468,0.039891280662981296,0.19915979930501626,0.24191422895602271,-0.08752441406,0.47143554687,0.02086644257615328,0.14404125535184087,0.13600089333022727,-0.0869140625,0.40307617187,0.016787167488455212,0.1291966944430007,1.219689857082159,0.74169008752,1.69977243983,0.04142230023135206,0.2029456731560563,stairs up
-1.1397036288604787,-1.86083984375,-0.45227050781,0.1175336124235405,0.34191875297218427,0.2237503376375532,-0.09716796875,0.51794433593,0.01939134600467948,0.1388819662418695,0.10286501620515957,-0.11169433593,0.47619628906,0.017045594755526465,0.1302110851591224,1.1837182901634575,0.46133526918,1.86857812563,0.11212878692037699,0.33396460471540307,Null
-1.1359567134299409,-2.07250976562,-0.716796875,0.10041894276356336,0.3159505465036709,0.18684414293378696,-0.83215332031,0.65881347656,0.0638476845680783,0.25193230761053914,0.020041200535857992,-1.2958984375,0.50830078125,0.11346567428020576,0.3358485964803749,1.2163368220104143,0.71704284439,2.58207835617,0.1230518060835928,0.349748036288743,Null
-0.8923043696793491,-1.05456542968,-0.64978027343,0.005615720175301309,0.0747160696359089,0.4166527020121894,0.12670898437,0.56372070312,0.006352498852404187,0.07946640863785305,-0.1598297660835503,-0.28405761718,0.10205078125,0.01104160674064593,0.10476770394314198,1.006015984047574,0.68645491061,1.14486306754,0.006194281719157484,0.07847056240786258,Null
-0.8815208103300544,-1.18347167968,-0.66796875,0.01498511912198682,0.12208062195612134,0.46184506623315214,0.21728515625,0.71020507812,0.013822258106422748,0.11724818607745306,-0.1818025008456522,-0.40625,-0.04431152343,0.01575562410297183,0.12517985345536978,1.0309214583915216,0.76801372136,1.27380300904,0.00498078075922075,0.07038260650596007,Null
-0.825135944967213,-1.00622558593,-0.64770507812,0.010692307231550522,0.10312070268952492,0.5098723531382512,0.2744140625,0.73315429687,0.018320418493856568,0.13498261709341466,-0.19904798496885248,-0.35559082031,-0.01354980468,0.01157857345675278,0.10730937779871096,1.0091989038946445,0.87582605402,1.18353325465,0.0025250467798060517,0.0501123608501041,Null
-0.8900146484336365,-1.12243652343,-0.71569824218,0.00889431817198729,0.09404138596002729,0.4423675537061932,0.16784667968,0.611328125,0.014190100367738519,0.11878331026481488,-0.16641165993153406,-0.41552734375,0.09680175781,0.013831045839745855,0.11727088450259095,1.0215935599811363,0.76467199764,1.18172013196,0.008609199093346493,0.09252179845532092,Null
-0.8874388829144294,-1.05285644531,-0.74401855468,0.005142702191555564,0.07147158464555313,0.4516929267994631,0.26428222656,0.67932128906,0.015099961135711461,0.122468849568641,-0.09746536152375838,-0.33129882812,0.19592285156,0.022423225745439895,0.14924052498394638,1.0204822754131544,0.88530712104,1.19155934085,0.002083215429676359,0.04548883509244651,Null
