avg_accX,min_accX,max_accX,var_accX,std_accX,avg_accY,min_accY,max_accY,var_accY,std_accY,avg_accZ,min_accZ,max_accZ,var_accZ,std_accZ,avg_magnitude,min_magnitude,max_magnitude,var_magnitude,std_magnitude,Label
0.24501380141479592,0.16540527343,0.34594726562,0.0015200820800515527,0.038888643062402715,0.16677046794867348,0.12060546875,0.22839355468,0.000562906982629718,0.0236650588046712,-0.9782104492151021,-1.02392578125,-0.92358398437,0.0004873872567507622,0.022020458375643828,1.0232844248618367,0.9964572991,1.06509577398,0.00018703707904835662,0.013641217256421269,Null
0.32676391601219995,0.18041992187,0.41003417968,0.0024274831366262913,0.049146166899801655,-0.2206823730449,-0.40197753906,0.26904296875,0.04075288504542535,0.20136812215491862,-0.9220959472619,-1.09790039062,-0.798828125,0.003696611986333177,0.06064757972418612,1.0251304844369,0.91589621475,1.15409211538,0.0014938569693598361,0.0385536987137815,Null
0.23603149413729999,0.08642578125,0.37854003906,0.006966537642941611,0.0832568613072034,0.2948400878893,-0.29943847656,0.74267578125,0.11052998108152452,0.3316283027368395,-0.8912597656211,-0.98986816406,-0.72424316406,0.006037004629104514,0.07750367479003167,1.0291452286890002,0.97076668329,1.13856077224,0.0007652939409881844,0.027594700057859724,Null
0.5176660156216,0.05029296875,0.90209960937,0.07096882893195797,0.26573292002929966,0.7115515136677999,0.37646484375,1.03747558593,0.022389040057644964,0.1492551334372012,-0.23272583007740003,-0.88952636718,0.30029296875,0.14890742915584176,0.38491933182169813,1.0296138533550998,0.80183874876,1.24898483061,0.009441464274672502,0.09692397512122138,Null
-1.0584704589813,-1.515625,0.52355957031,0.22585013897861164,0.4740473481454343,0.29933105468509996,-0.09094238281,0.66638183593,0.037082769846478576,0.19208684493542547,-0.16070556640480002,-0.88110351562,0.19592285156,0.05538863168178082,0.23475878795770758,1.2278396087922,0.5568618201,1.5431000376,0.045150653057196524,0.21195494755232902,stairs up
-1.1500305175738001,-1.47094726562,-0.96228027343,0.009897962699343144,0.09923947241821889,0.2338952636684,-0.02197265625,0.58374023437,0.02773041169676237,0.1661076748325572,0.033944091795400005,-0.09716796875,0.15856933593,0.005175862555907645,0.071763383721283,1.1869294947390001,1.00281609446,1.49304911318,0.012279374244196381,0.11053495995826569,stairs up
-1.0941198730428001,-1.27978515625,-0.82275390625,0.0160928130314025,0.1265399105667674,0.22819335937139995,-0.07690429687,0.48486328125,0.015045737058081918,0.12235402883759695,0.0130053710933,-0.26293945312,0.27221679687,0.017745621664782146,0.13287924426507788,1.1319388316348,0.86578923984,1.31298427503,0.016777766691686347,0.12920479038421104,stairs up
-0.7300390624964002,-1.232421875,0.0107421875,0.1166774224639002,0.34072574800208555,0.6116491699179,0.12365722656,1.2236328125,0.08701597016535495,0.29424630892252185,0.0151611328121,-0.24145507812,0.2607421875,0.017364132942783713,0.13144319030695273,1.0484889316413,0.632105892,1.43350219953,0.02806512356639063,0.16710714511521843,stairs up
-1.0634631347624002,-1.19592285156,-0.89489746093,0.00422021938180262,0.06480060404728961,0.3099035644503,-0.04748535156,0.57141113281,0.021942560054201126,0.14775942357064784,0.0083374023435,-0.30090332031,0.23950195312,0.01920293877979805,0.13822779780456265,1.1249216045105,0.94427833263,1.26447482298,0.006787782776949306,0.0821817733020197,stairs up
-1.0823193359338,-1.33679199218,-0.8408203125,0.009067732341313028,0.09498628153373763,0.3167736816367,-0.01904296875,0.611328125,0.023691723542950495,0.15353587504305222,-0.006977539062,-0.21984863281,0.13403320312,0.005175779128952331,0.07176280536118672,1.1390293576173,0.88679309146,1.35628021861,0.012228218782401577,0.1103044771914974,stairs up
-1.0537402343713,-1.29907226562,-0.82897949218,0.0108931828743623,0.10410915886698195,0.2723864746062,-0.09436035156,0.51025390625,0.019861595383307007,0.1405784030581884,-0.0761108398427,-0.39624023437,0.2880859375,0.023228727542418746,0.15202823390642495,1.1109974599911998,0.94434472664,1.38382535145,0.009802980087514053,0.09876216475491251,stairs up
-0.22461303710980002,-1.81787109375,1.03356933593,0.7069312293426047,0.8386874108962716,-0.0843286132814,-1.23059082031,1.22546386718,0.3480444386880767,0.588476181756438,-0.1679370117169,-0.83520507812,0.193359375,0.05472774140725796,0.2333540286779332,1.0355939438351,0.49233608425,2.19848436591,0.11805552487069709,0.34273203417005477,stairs up
-1.4939514160123002,-2.84240722656,0.14624023437,0.40797296821639684,0.637128796535924,0.1788854980465,-0.66345214843,1.05480957031,0.1949667479064982,0.4404451318461423,0.153704833983,-0.46008300781,0.75500488281,0.06908037625680184,0.26217355773517254,1.6229713856012,0.71549838999,2.85066670234,0.32375869773071086,0.567573699392473,stairs up
-0.5401916503866999,-2.19787597656,0.15515136718,0.22441864084766228,0.47254264108482735,0.6086950683561,-0.65539550781,1.17260742187,0.20725044900127856,0.45410813332979644,-0.1702404785136,-0.90783691406,0.71923828125,0.13471444374582464,0.3661159263499684,1.1006711287079,0.78245555369,2.22638740854,0.04359116409184315,0.20826235442677568,Null
0.09991210937470002,-0.84558105468,0.79968261718,0.21288862404196635,0.46024361040839723,0.5861108398393,0.13806152343,1.17663574218,0.06511223591124939,0.25453226658263417,0.3827282714814,-0.98999023437,0.91223144531,0.23626003693313416,0.4848491896955882,0.9932336151295001,0.62836488678,1.31460833943,0.025292315728027284,0.1586374928867295,Null
-0.06257080078260004,-0.8388671875,0.40441894531,0.12965121256478318,0.3591698156888455,0.5602600097624001,-0.201171875,1.47094726562,0.19786311225366293,0.4437046277563427,-0.5244006347622,-0.96484375,0.66455078125,0.11437888447820611,0.33735291618098556,1.0015375697578999,0.60905990034,1.54202446834,0.029556431158186944,0.17148950114335282,Null
0.15155395507625,-0.1962890625,0.59130859375,0.031486970082372966,0.1770015119482348,0.9185351562464001,0.36950683593,1.48474121093,0.06325118611199253,0.250868352291461,0.14857849120974997,-0.32592773437,1.09802246093,0.10321028179907919,0.3204594052139581,1.0256948867920002,0.63633380557,1.50206543362,0.033828841831934305,0.18346579414914005,Null
0.21823730468499997,-0.16186523437,0.68395996093,0.04940237756246023,0.22171009375905268,0.6346264648397,0.25354003906,1.18933105468,0.06671152867215155,0.2576392264947067,-0.36320068359144997,-1.00390625,1.07287597656,0.3174718201189875,0.5620359961945431,0.9853019857754499,0.38748597611,1.37785862577,0.042192720406683835,0.204894501645726,Null
-0.2719012451154,-1.65771484375,0.57824707031,0.20179304334686884,0.4480893640002343,0.7751550292935001,0.09765625,1.595703125,0.0725019926867585,0.26858794225229976,0.18479553222474998,-0.84619140625,1.10266113281,0.22393376579881322,0.4720318813065693,1.0660296272218,0.4214413498,1.70236487005,0.06860651957088265,0.2612728209612095,stairs up
0.43607177734029995,0.32336425781,0.61743164062,0.00573642784026599,0.07554962409611751,0.6944592285120499,0.38696289062,0.98962402343,0.02343268400318361,0.1526942061218031,0.6175463867157,0.38500976562,0.87390136718,0.01576208613627701,0.12523288587905185,1.03488020680005,0.73444001944,1.30038029559,0.027663572231270063,0.16590736683497123,stairs up
0.33937805175440006,0.17797851562,0.5771484375,0.009640738454521866,0.09794148642046054,0.7347882080046,0.51440429687,1.04064941406,0.01578001950221346,0.12530410769285416,0.60238403319965,0.42553710937,0.89575195312,0.014056462844713936,0.11826318332638593,1.01736022888365,0.79415328714,1.29192156032,0.022327332133982174,0.14904930551100284,stairs up
0.5011581344186935,0.35107421875,0.67431640625,0.006334791559588271,0.07939117354072336,0.67297854015799,0.5498046875,0.84985351562,0.0032431779544612642,0.0568056386092585,0.5501733521080401,0.42797851562,0.66284179687,0.0034955241704264254,0.05897422082854364,1.0081857244985428,0.8968471217,1.23495352141,0.0033364171498977187,0.0576164146278784,Null
0.4537426757769,0.2900390625,0.59362792968,0.007424314064011936,0.0859487783141324,0.6400756835894,0.35180664062,0.79052734375,0.0069991585297667636,0.0834515592252052,0.6250158691369,0.41088867187,1.03381347656,0.015767107253991358,0.12525283117647043,1.0163205642966,0.8968471217,1.20044804915,0.003373136437867714,0.05793333026573197,Null
0.36887817382419996,0.24597167968,0.50170898437,0.003108271215213466,0.05561231751273632,0.7328930664027999,0.6318359375,0.88354492187,0.0022163885382474637,0.046960692025951094,0.6032348632779,0.51135253906,0.70043945312,0.0020679955805858042,0.04536138889719841,1.0209755032263,0.90634103843,1.11333391165,0.002070721657473096,0.04539127723677459,Null
0.3025427246051,0.18395996093,0.46142578125,0.004104862936536211,0.06390883054675253,0.6928857421838001,0.58911132812,0.85607910156,0.005240934961510064,0.0722130894416138,0.6899279785119,0.56030273437,0.81604003906,0.003057872199154534,0.05515961238223816,1.0272597531169,0.90484785263,1.19459126722,0.004726049087929749,0.06857418495680499,Null
0.229949951168,0.01770019531,0.35437011718,0.010838928646442043,0.1038495739192503,0.7818237304651001,0.62976074218,1.02905273437,0.010496963657886943,0.10219823305516347,0.5123437499971,-0.06762695312,0.86145019531,0.08560028455911907,0.2918429083193962,1.0149508712271,0.92055770541,1.15346886617,0.002912229846588837,0.05382999811774001,Null
0.24683467428154232,0.13317871093,0.36352539062,0.003239811437211889,0.05677757455501369,0.9894940580266666,0.91943359375,1.06372070312,0.0014871008812750541,0.03846689965968033,0.05077821342228856,-0.09948730468,0.19519042968,0.0050192319505846005,0.07067008311405797,1.025013362698806,0.95892958474,1.11598603793,0.0016577842150374373,0.040614486730421194,Null
-0.16110412597674997,-0.90319824218,0.25463867187,0.16338669684022794,0.4031994089232111,0.7962322998016,-0.04309082031,1.10302734375,0.12349134750593173,0.350533722726362,0.23737426757465,-0.21936035156,0.99743652343,0.1183371857643192,0.34314064148027934,1.0570054215643,0.991747646,1.18034895611,0.0022267842269704024,0.04707069476686689,Null
-0.31184326171465,-0.39318847656,-0.28088378906,0.0003959661692161195,0.01984908910680888,-0.033060302731399996,-0.07019042968,0.02136230468,0.0005260731570775149,0.022878872159530227,0.9533776855428999,0.9033203125,0.99877929687,0.0003503119990681404,0.018669773407109142,1.0041160829898501,0.96154246632,1.0424209542,0.0002865288804076286,0.016884793040057983,Null
-0.2960278320274,-0.32067871093,-0.24816894531,0.00026918620321758776,0.016365826352540216,-0.02108642577835,-0.07153320312,0.05078125,0.0007257780896045985,0.02687283385049994,0.9663946533166501,0.93920898437,0.98852539062,0.00012318105515704518,0.011070914591001952,1.0114291409936498,0.98975723478,1.03327341687,0.00011998795559934655,0.010926482316891828,Null
-0.2460595703086,-0.28430175781,-0.22302246093,0.0002245453973653198,0.014947329874545928,-0.038474731441349996,-0.10949707031,-0.00317382812,0.00028526499606128583,0.016847512311346725,0.9793475341769502,0.94482421875,1.06787109375,0.0002874766578579978,0.01691269566239243,1.0107696871878,0.9821803818,1.10247454526,0.00028658278771033046,0.016886381310742063,Null
-0.25142944335585,-0.28649902343,-0.21618652343,0.0003983030352100008,0.01990757443873941,-0.03449645995695,-0.06457519531,-0.00463867187,0.0002318029274136245,0.0151869652260271,0.9774664306609,0.94714355468,1.01000976562,0.00020536033016707575,0.014294527922119021,1.01020678150765,0.98071924938,1.03664504898,0.0001617501110973432,0.012686266611649644,Null
-0.2627233886675,-0.28430175781,-0.23742675781,0.00012477269575470511,0.011142209488065264,-0.040266723628799996,-0.09094238281,-0.00915527343,0.00045152730040503837,0.021195982258508644,0.9745782470665499,0.96643066406,0.99633789062,4.028809692188644e-05,0.006331402406835077,1.0104599746812999,0.99827476034,1.03042578271,3.205262332499994e-05,0.005647332131934063,Null
-0.2627166748013,-0.34875488281,-0.18225097656,0.0018940246640614757,0.0434114563305721,-0.1065472412081,-0.2392578125,0.01928710937,0.005583622164584083,0.07453659539958317,0.9663977050743,0.92858886718,0.99816894531,0.00027563265072089616,0.016560630648235947,1.0108610642795,0.96917479953,1.03130617855,0.00017217287034206044,0.013088621240999762,Null
0.3454864501950001,-0.53735351562,1.13146972656,0.3050722423530498,0.5509508881391194,0.2141772460912,-0.4072265625,1.2958984375,0.13995139066201712,0.373164352140859,0.13021911621209992,-0.55407714843,1.16577148437,0.4245859269916651,0.6499715358049972,1.0054334394910998,0.60567408125,1.80545968714,0.03673860221164335,0.19119338168614816,Null
-0.40265991210855007,-1.61682128906,0.91564941406,0.6128461817923831,0.7808853634711187,0.6252185058563,-0.05969238281,1.16772460937,0.08749830417169106,0.2950606931646989,-0.04404785156240001,-0.61938476562,0.32543945312,0.05033208099286069,0.2237865514008748,1.1057993541909499,0.30419133208,1.66399088781,0.07950187990478057,0.28125499196504344,Null
0.28855712890199997,0.08093261718,0.69885253906,0.016811373251886783,0.12933412691794594,0.80918090819975,-0.24145507812,1.09228515625,0.06243712554413148,0.24924875108295091,-0.52371520995705,-1.04907226562,-0.26037597656,0.03131175878914159,0.17650835672906787,1.0570421615222,0.89757229152,1.22447790994,0.005010959837293457,0.07061094134839863,Null
0.16539245605214997,-1.15881347656,0.66955566406,0.2380732379343084,0.4867061451683519,-0.08920654296759999,-0.60571289062,0.84655761718,0.21141979669483904,0.4586531344179007,-0.66919128417485,-0.96313476562,0.01574707031,0.07382882157699495,0.27103445808441035,0.99555081106425,0.70501566052,1.44897818303,0.012777161969945855,0.11275316474536812,Null
-0.9387622070272499,-1.04504394531,-0.42236328125,0.007959411437757377,0.088992215280712,0.31541503905845003,0.05004882812,0.70446777343,0.015056934871857957,0.12239955145954852,-0.1705047607401,-0.51025390625,0.13195800781,0.025751247392847867,0.16007026943153319,1.0265864606753998,0.83848707937,1.27006865057,0.004499493604067102,0.06691035895918335,Null
0.5027569580047,0.20141601562,0.56396484375,0.009404928282536704,0.09673625815134686,0.048328857421,-0.11096191406,0.3828125,0.011182403023278045,0.10548218336838527,-0.8387322998009501,-1.08642578125,-0.76416015625,0.005793929159610185,0.07592733047995388,0.9914082015001501,0.92852994035,1.11912265649,0.0019409448954757719,0.04394587774750202,lift down
0.20866882323830002,0.02844238281,0.5546875,0.013120869187953122,0.11425963785175129,-0.04475280761510001,-0.35607910156,0.83251953125,0.09001886854606493,0.2992804273642608,-0.9250067138634,-1.13745117187,-0.37536621093,0.017824262170681258,0.13317334890971186,1.00951650928535,0.90194057358,1.14529314167,0.002430662973375991,0.04917834542264625,lift down
0.09886962890629998,-0.12475585937,0.46008300781,0.027164865623318997,0.16440511334871066,-0.06337890624954995,-0.84802246093,1.07202148437,0.6459874378911501,0.8017215855281024,-0.48996520995829995,-1.04260253906,0.11206054687,0.07452558307369268,0.27231040222203085,0.9968693373366,0.82841589155,1.12862626401,0.004069364502538049,0.06363189200413075,lift down
-0.22688232421510002,-0.89575195312,0.11401367187,0.07893033865629986,0.2802421934024539,-0.15874816894430002,-0.7421875,1.05517578125,0.3334710328205068,0.5760240252423542,-0.39506164550535006,-1.09533691406,0.96350097656,0.42920333440056835,0.6534962262542651,1.02670572146555,0.72999514561,1.4154135904,0.01610283195412408,0.12657929449303096,lift down
-0.33310974120725,-0.3544921875,-0.26647949218,0.00015468525190779494,0.01240612049144518,-0.0170410156215,-0.09265136718,0.00256347656,0.00016250143097834143,0.012715695962999813,0.9808367919892501,0.93408203125,1.02307128906,0.0007319479548146377,0.026986815577992238,1.0361413265259,0.9899977452,1.07515041524,0.0007521093945138168,0.02735596548362437,lift down
-0.3560906982387,-0.37365722656,-0.33923339843,8.372859103712593e-05,0.009127428338910162,0.03208190917635,-0.00756835937,0.0703125,0.0003347513779226095,0.0182504142701747,0.9501428222620499,0.92443847656,0.99682617187,0.00014759510455781644,0.01211846232139323,1.015405152547,0.99099499083,1.05396198467,0.00011742496908097976,0.01080915557458467,lift down
-0.32538208007525,-0.38037109375,-0.26721191406,0.0012722263848382494,0.03557900016743105,0.061741333003899994,0.01147460937,0.21472167968,0.002450331203474763,0.04937691310174614,0.96219116210555,0.90991210937,1.07690429687,0.0006789149815872188,0.025990775415121473,1.0194799933824001,0.97132760574,1.14326395171,0.0005400311229286676,0.023180400499431073,Null
-0.4803149414023,-1.21459960937,-0.17004394531,0.09358936327203043,0.3051580188290491,0.26626403808464993,-0.12255859375,0.97216796875,0.0883957809497104,0.2965700626242673,0.5984552001943,-0.34228515625,1.11865234375,0.2649628187204975,0.5134569160376506,1.0375370522335998,0.48701933492,1.47956319204,0.028118287356440456,0.167265345842043,Null
-0.8710632324178001,-1.12243652343,-0.31237792968,0.026584199887098342,0.1626384914085926,0.42312805175285007,0.16467285156,0.69360351562,0.0140923349218591,0.11841399092695847,-0.2242083740204,-0.3974609375,0.31884765625,0.016928832341649627,0.12978516163237375,1.01190956097385,0.51429604729,1.30106631297,0.02152188819895623,0.1463361840351232,Null
-0.3332641601545,-1.40612792968,0.63537597656,0.3315100705770311,0.574327885640377,0.71428222655885,0.29089355468,1.1005859375,0.04441583755629749,0.2102231156854926,0.23692016601254998,-0.17687988281,0.63073730468,0.036559171374939435,0.1907259172689038,1.02454450868015,0.66890050362,1.56501166651,0.036496169099523634,0.1905615077974196,Null
0.2679357910122999,0.01342773437,0.4404296875,0.014451580357695318,0.11991381261517307,0.7241735839806,0.19909667968,1.12194824218,0.04601284090438416,0.21396910220838483,0.5848052978485501,0.251953125,1.080078125,0.05316177548732643,0.22999123159348878,1.0156632582942502,0.72548804258,1.28395469638,0.01979941281464466,0.1403581695184553,Null
0.8119329833950001,0.18225097656,1.03820800781,0.05065413454329006,0.2245013671908784,0.29578918456674996,-0.22131347656,1.04211425781,0.10293936495773193,0.3200385416366961,-0.18583251952979998,-0.42724609375,0.4619140625,0.06517183847053121,0.25464873704414587,0.9955168607468502,0.70850615753,1.25323419594,0.007917414872087941,0.08875712815164481,Null
-0.5954931640600001,-1.29016113281,0.95458984375,0.511939697848078,0.713708623570458,0.38747192382475,0.08325195312,0.8955078125,0.027874601113501814,0.16653896873685242,0.05379577636695,-0.45080566406,0.8310546875,0.08347348145324032,0.28819457671159276,1.04248867454855,0.38191967604,1.7768235378,0.04135509725874732,0.20285049118119874,Null
-0.9505419921840002,-0.96508789062,-0.93090820312,7.09584969441789e-05,0.008402601053213107,0.36605712890299996,0.32946777343,0.38989257812,0.00022369581851028024,0.01491902608811074,-0.0186181640598,-0.03698730468,0.00366210937,0.0001144284818567579,0.010670348609463242,1.0189491637916002,1.00416264803,1.03105465165,2.4297033783272263e-05,0.004916863696947059,Null
-0.9661499023408001,-1.01806640625,-0.93505859375,0.00038468493289728117,0.019564291661923125,0.3402880859336,0.24755859375,0.46472167968,0.001184791032975877,0.03433463379462489,-0.047194824216000006,-0.08654785156,0.14392089843,0.0019566490959287202,0.04412330280530999,1.026878479759,0.99319477465,1.07864227186,0.0005005516544602693,0.022317009122818587,lift up
-0.9391674804655001,-1.02075195312,-0.62707519531,0.008245281005065884,0.09057623639807824,0.3932928466763,0.25866699218,0.8046875,0.017570303821876875,0.1322212248573106,-0.07333801269269999,-0.24816894531,0.15734863281,0.004489507788427826,0.06683606997337356,1.0327637654469501,0.82515475382,1.24340015575,0.003998445412993711,0.06307498066530613,lift up
-0.6160107421837999,-0.68188476562,-0.52380371093,0.00207243897808451,0.045410095608730966,0.7974340820278001,0.72229003906,0.87133789062,0.0015474810013516467,0.03923956671963757,-0.11258544921460001,-0.17687988281,-0.0546875,0.0006547430951153858,0.02552389820618725,1.0158594996619998,0.97051259402,1.08105226842,0.0003302510019159615,0.018127320455775635,lift up
-0.527548828121,-0.61059570312,-0.36157226562,0.0033944470439324728,0.05811604605195376,0.8104052734348,0.54907226562,0.96301269531,0.007615986996649218,0.08705117495856085,-0.066677246092,-0.43798828125,0.42700195312,0.05654259140633571,0.23719164919807786,1.0011990817529999,0.78240379011,1.1323183034,0.00434772605594747,0.06577223901972422,lift up
-0.5604101562464,-0.61303710937,-0.51086425781,0.000418265045558706,0.020400336279848736,0.7179077148395998,0.55883789062,0.82824707031,0.007264442329917466,0.08501835165579182,0.40532714843359996,0.20385742187,0.67578125,0.01946641701561411,0.13917285989206388,1.0101603247744,0.96787002035,1.05008963332,0.0003322859609385575,0.01818308365305139,Null
-0.4731713867152,-0.71569824218,-0.03637695312,0.03036700798030118,0.17382512171835138,0.725073242184,0.43371582031,1.16540527343,0.03225156589961473,0.17913767909101833,0.4829370117152,0.05895996093,0.97863769531,0.054941756216207525,0.2338098531609104,1.0413622471372,0.67330510946,1.27474273886,0.015465048950275699,0.12404726399854339,Null
-0.7574127197228501,-0.84729003906,-0.66088867187,0.0021959772267734164,0.046743955124053736,0.44541259765280006,0.15161132812,0.55590820312,0.008475359175035724,0.09183127124874481,0.5209057617149,0.41882324218,0.73059082031,0.004846436779741325,0.0694420952725551,1.0279656648933,0.93562623963,1.16986303547,0.002146732512716216,0.04621686759347322,Null
-0.7639599609336,-0.98889160156,-0.55419921875,0.006785828120613824,0.0821699396373805,0.5858349609332,0.29028320312,0.86779785156,0.012307001933295933,0.11065923785942795,0.3191162109336,0.09057617187,0.48376464843,0.012495863377762895,0.11150508535880362,1.028791563593,0.94550321562,1.16660745575,0.0016997468240285776,0.04112478680684478,Null
-0.7665624999962,-1.08679199218,-0.52648925781,0.017862605952585677,0.13331651406642295,0.6060058593705999,0.29968261718,1.10510253906,0.034236012990632725,0.18456660837128572,0.3488916015588,0.10205078125,0.55041503906,0.014860518397957437,0.12159858472024931,1.057566652966,0.75207393716,1.39042646083,0.024888074193478205,0.15736465239217737,Null
-1.064025878902,-1.8251953125,-0.50634765625,0.1204492951459095,0.34618932489344606,0.4193945312462,0.09631347656,0.88879394531,0.034952168752137254,0.18648701806929233,-0.061455078124,-0.38244628906,0.2275390625,0.019020404144099168,0.13756926300369088,1.170141587206,0.53706656545,1.90623914215,0.11672160304844917,0.3407902507895537,stairs down
-0.384931640624,-1.46643066406,0.79479980468,0.44300600916424693,0.6639209133009938,0.7591503906211998,0.19750976562,1.70812988281,0.1681196970915991,0.4089976755510245,-0.07431884765619999,-0.66137695312,0.41381835937,0.05235811135739167,0.22824618463537283,1.1214427683316002,0.39370508846,1.89755530719,0.13320350807601233,0.36405698803296205,stairs down
-0.7208203124972001,-1.41723632812,0.55676269531,0.3182023661551044,0.5626822854189821,0.45621582030820007,0.24304199218,1.08947753906,0.04345776054714303,0.20794343400167103,-0.1235351562466,-0.3955078125,0.1728515625,0.01662648622665449,0.12862096950155996,1.015496706528,0.45867477688,1.55643237742,0.08858025259807827,0.29687935484820743,stairs down
-0.9521557617152001,-1.42590332031,-0.62133789062,0.032632418259953166,0.18019227555212625,0.37297363280900003,0.18835449218,0.67041015625,0.010750152956854228,0.10342341220473224,-0.1314062499966,-0.55871582031,0.07824707031,0.01413102679492165,0.1185764380513559,1.0404615979208,0.68748804645,1.51738693132,0.03783238306651075,0.19401861032173742,stairs down
-0.9834716796838001,-1.50988769531,-0.61596679687,0.055463820845421744,0.23491807453066407,0.363586425778,0.17932128906,0.64111328125,0.011324185971659172,0.10614878728370322,-0.14345947265279999,-0.37915039062,0.04040527343,0.009365246697000585,0.09653196601911504,1.0674856424863999,0.71501955882,1.59713330372,0.05652175314294501,0.23714793774610457,stairs down
-0.9688281249964001,-1.205078125,-0.75732421875,0.009965538834816528,0.09957766386415402,0.3662646484334,0.13525390625,0.64038085937,0.013434943338021947,0.11561906685893913,-0.1653393554658,-0.44689941406,0.07043457031,0.010476476109590844,0.10209845115888336,1.0601730419534001,0.80993611868,1.2693289845,0.009905050802754146,0.09927499961591728,stairs down
-0.9601904296842,-1.17504882812,-0.76904296875,0.011174704345554582,0.1054458667934728,0.39601806640180004,0.236328125,0.59228515625,0.00795994133806787,0.08899517757371761,0.0056591796876,-0.26281738281,0.24499511718,0.01606465749328253,0.12642916675283483,1.0506540400658,0.85595638712,1.25415447784,0.010027528887214017,0.09988689224707087,stairs down
-0.45129150390480005,-1.50146484375,1.22143554687,0.6954414943242391,0.8318439077450877,0.48561279296500004,0.08728027343,1.00317382812,0.041965766174734354,0.20434269584171752,-0.15088867187320001,-0.87670898437,0.40808105468,0.08591855700712357,0.2923849589532402,1.0762823719192,0.23202541742,1.70351493816,0.12369511738933531,0.3508228068446928,stairs down
-0.27000732421799994,-1.3134765625,1.1533203125,0.6280429406619898,0.7905078911425741,0.32736572265439995,-0.34313964843,1.1328125,0.15049194767637383,0.38696186884238604,-0.2119287109348,-0.78796386718,0.22387695312,0.05044271037740936,0.2240323566485929,0.9932842434032,0.45060137394,1.53218592048,0.06352278648305766,0.25140638923989655,stairs down
-0.9611645507770001,-1.29321289062,-0.73498535156,0.034198287749499505,0.18446489181075082,0.347883300777,0.23950195312,0.48669433593,0.003700119772186989,0.06067634772566699,-0.14597167968459998,-0.40771484375,0.06860351562,0.01230859456936248,0.11066639777509553,1.0398779870784,0.79011075103,1.35717920562,0.034952316553042005,0.18648741236415073,stairs down
-0.9944238281206,-1.66650390625,-0.53967285156,0.08004466279662538,0.2822134643893559,0.3471069335906,-0.18823242187,0.60729980468,0.02028007138881776,0.14205164916984833,-0.13948730468460002,-0.30151367187,0.16467285156,0.01098263829170126,0.10453575991134685,1.0765238041079999,0.58025119909,1.75766383072,0.08107137312043193,0.28401763370401806,stairs down
0.5088922119105499,0.15246582031,0.70324707031,0.02434564267238538,0.15564033686362752,0.710494995114,0.56176757812,1.19970703125,0.02051029274774599,0.14285566591496207,0.47576660155854994,0.04516601562,0.72802734375,0.023151768955081038,0.15177618426586442,1.02639920061895,0.8743061823,1.22844170619,0.00432223859966528,0.06557916899951503,Null
0.4737548828092,0.3330078125,0.60668945312,0.0037399692152295405,0.061002207903922565,0.6509643554642,0.50573730468,0.76245117187,0.00281301410348688,0.052905094584259515,0.6039990234342,0.55029296875,0.681640625,0.0008648310234679912,0.02933439735789115,1.009669989035,0.93177010778,1.09803142448,0.0009651657258770871,0.030989351352483995,Null
0.47507568359019997,0.37390136718,0.52270507812,0.0008578526254723503,0.029215806720763137,0.6540087890591999,0.54272460937,0.76782226562,0.0011925456272115,0.03444681261126263,0.6056372070274,0.55517578125,0.70629882812,0.0012181930745124487,0.03481525684437624,1.0114966600792001,0.97902147843,1.08369492798,0.00034932950970012087,0.01864357428583962,Null
0.3548901367152,0.18054199218,0.51953125,0.007038850766349456,0.08368785164238421,0.748920898434,0.60583496093,0.93603515625,0.00926387391505786,0.09600809624965267,0.5907299804644,0.4287109375,0.75061035156,0.006242080435658147,0.07880907329413192,1.022808901336,0.81722290771,1.25325981304,0.012146194482742421,0.10993390519002183,Null
0.361959332792412,0.20385742187,0.55163574218,0.009089588982799993,0.09509948820184712,0.7599465834999999,0.56787109375,1.01477050781,0.014020604142698385,0.11811074822173846,0.580458444562613,0.41162109375,0.75109863281,0.0065412485495292836,0.08067451861525425,1.0261353596368343,0.80608473459,1.30102072335,0.02212521940052846,0.14837128223982776,Null
0.2910644531212,0.076171875,0.47204589843,0.005881175323848962,0.07649685906774027,0.8102246093714,0.50476074218,1.22338867187,0.03142364346226404,0.17682342957015826,0.5860571289028,0.33129882812,0.80700683593,0.013728697389687608,0.11687623326724374,1.0484831337922,0.73789104867,1.41891124498,0.03628830008953993,0.1900180480614729,stairs down
-0.42867187499820003,-1.47387695312,0.28076171875,0.34349327017546305,0.5846159455784504,0.5694799804652,0.20642089843,1.11560058593,0.05014364245574409,0.22336724075715617,0.2918749999984,-0.232421875,0.89929199218,0.1299908729995765,0.3596399847550028,1.0360703935602,0.74030573357,1.53022419376,0.04103098138889287,0.20205401872258916,stairs down
-0.9439672851527,-1.39416503906,-0.71752929687,0.03134593381938853,0.1766046549508013,0.30264282226155,0.17907714843,0.45922851562,0.004314823029281069,0.0655228884752089,-0.19166137694969998,-0.50415039062,0.01574707031,0.012147164702533514,0.10993829578004585,1.01748063263695,0.74781646367,1.4794990917,0.03670479332135008,0.19110538808401853,stairs down
-0.97114990233985,-1.61096191406,-0.65539550781,0.04778920592408968,0.21806022079799248,0.30927978515265003,0.17395019531,0.57446289062,0.008364302662673578,0.09122763369374551,-0.14046447753665,-0.49194335937,0.00939941406,0.011677990093949365,0.10779424912062618,1.0358108995022999,0.73661634637,1.68190521834,0.0533713662604279,0.23044415685611505,stairs down
-0.9507275390588,-1.56030273437,-0.44873046875,0.08115465363065244,0.2841634747156981,0.347668457028,0.16418457031,0.4931640625,0.008927635361925066,0.09424965350130175,-0.09993896484,-0.35485839843,0.02795410156,0.004931058266582655,0.07004572060625647,1.0265382143544002,0.5659989833,1.60440724496,0.07588098615411229,0.27477551059608957,stairs down
-0.6798437499962,-1.26428222656,-0.06640625,0.08242584115909549,0.28638036237371445,0.7278564453085999,0.27355957031,1.22644042968,0.04869680608333248,0.22012115312462774,0.0809448242182,-0.32629394531,0.63293457031,0.03602346238674954,0.1893233875537193,1.0706554788018,0.81272973884,1.37992027323,0.018614893212591226,0.13609488875974832,stairs down
-0.916924438473,-1.36877441406,-0.33178710937,0.06059827602366388,0.24555098176050033,0.4062463378868,0.19323730468,1.02758789062,0.0507425854420834,0.22469729084898415,-0.11599731445029998,-0.28662109375,0.1162109375,0.007969480026494512,0.08904848469436209,1.0589369059020501,0.75226328014,1.4579552694,0.017040707260641802,0.13021330087336927,stairs down
-0.9736486816369001,-1.19274902343,-0.82336425781,0.006507817870645236,0.08046911694117197,0.31911071776935,0.20983886718,0.48059082031,0.005543054512541427,0.0742653299997968,-0.15236938476224998,-0.30383300781,-0.03942871093,0.0043596516886452875,0.06586238251234205,1.0408645499323002,0.88411672851,1.25841651061,0.0059992914648036855,0.07726121282687495,stairs down
-0.96719360351255,-1.41394042968,-0.65380859375,0.04334892785545821,0.20768289100496679,0.28300048827729996,0.17346191406,0.63098144531,0.009145307546875283,0.09539172400759359,-0.1710021972621,-0.38793945312,0.04357910156,0.007705718690721228,0.08756249252543935,1.02883574110965,0.67661979776,1.48561713298,0.04642257954370832,0.21491967486944924,stairs down
-0.988293457028,-1.51245117187,-0.65673828125,0.052076030166916275,0.2276305120498605,0.27858764648109996,0.1572265625,0.47082519531,0.005683097017134836,0.07519761653170373,-0.20898498534810003,-0.50073242187,0.00390625,0.011198425187605686,0.10555772383709142,1.054530396496,0.69926248978,1.55362730922,0.05355712162019422,0.23084483102745282,stairs down
-0.9569519042932499,-1.48803710937,-0.63513183593,0.06088538890964233,0.246132001099195,0.28920715331729996,0.18103027343,0.43310546875,0.004049600829705177,0.0634771835036547,-0.16843139648125,-0.37866210937,-0.00537109375,0.005229598252277649,0.07213494479803988,1.0179052200385998,0.68210647098,1.51959423042,0.06175837995012601,0.24789027421497475,stairs down
-0.98038452148,-1.3798828125,-0.73388671875,0.035903337072203334,0.1890074611935791,0.28301513671504996,0.16052246093,0.38879394531,0.0025105846048279947,0.049980312942236114,-0.20621154784765,-0.61047363281,-0.02783203125,0.01574477004913961,0.12516407711038305,1.0486061560097,0.77508967634,1.44785358671,0.03827900289569539,0.19516046700399373,stairs down
-0.98284179687115,-1.44421386718,-0.67883300781,0.028265132772105638,0.16770154175870033,0.27336059569985,0.12963867187,0.40979003906,0.004923220002749771,0.06999002716627578,-0.1903973388635,-0.34729003906,-0.02880859375,0.0065063842393449835,0.08046025303308621,1.04228205242825,0.72720986925,1.49322035629,0.030250800122171056,0.17349220766812612,stairs down
-0.9967071533163999,-1.16284179687,-0.82653808593,0.008474173323818283,0.09182484662224702,0.29587280273035,0.17065429687,0.53674316406,0.00793233283049448,0.08884070669654766,-0.13900695800440002,-0.30590820312,-0.00549316406,0.0062422628076335505,0.0788102245498348,1.0553107087069,0.8966341413,1.26665206137,0.009189580349017096,0.09562234282463493,Null
-0.9655047607378999,-1.09033203125,-0.84765625,0.0018643138213102228,0.043069620989784334,0.30445983886435,0.22521972656,0.48498535156,0.002747862284698119,0.0522888417664288,-0.141525878903,-0.28564453125,-0.04699707031,0.003593681379752424,0.05979726559679516,1.0251849244648001,0.91754209464,1.16569251946,0.002095989685082675,0.04566738153931383,Null
-0.9781762695278001,-1.11206054687,-0.89135742187,0.001553971138377562,0.03932176601687257,0.26908569335520005,0.05578613281,0.55346679687,0.006165978260039854,0.0783271879282006,-0.0655157470683,-0.302734375,0.25756835937,0.017276993917100653,0.13111296254571914,1.02816118391695,0.95634872076,1.14436912039,0.0012912323972868681,0.03584377540522809,Null
-0.9667352294882001,-1.07861328125,-0.89038085937,0.0018773827716696812,0.04322031765051401,0.28780761718405,0.12231445312,0.40881347656,0.005296741622294544,0.07259654202634634,-0.13811584472345,-0.28674316406,0.01831054687,0.006060890471030712,0.0776568478543622,1.0238561358999,0.93788080428,1.10965728526,0.0013805706310434478,0.037063024402876656,Null
-0.9682177734337999,-1.19799804687,-0.75915527343,0.008961262870664864,0.09442699061344452,0.3219512939413,0.1162109375,0.75207519531,0.021143892068607655,0.14504541567476242,-0.08966979980260001,-0.44104003906,0.06262207031,0.015289916530161068,0.1233428836516735,1.0446623340778498,0.89500858447,1.24168722407,0.0030026827454289473,0.054659576761092864,Null
-0.9515179443318499,-1.05004882812,-0.79296875,0.004242055197017298,0.0649680299919292,0.34115539550455,0.2216796875,0.58959960937,0.010200459603415946,0.10074451501396424,-0.11600158691065002,-0.22729492187,0.0,0.003304203308117976,0.05733831434195974,1.02511300219745,0.93954629892,1.11816023113,0.0020412941488468722,0.04506759010755554,Null
-0.992175903316,-1.17358398437,-0.78979492187,0.008304374990501387,0.0909002371589254,0.3120367431607,0.16284179687,0.49401855468,0.007983762310037475,0.0891282418680369,-0.11676696777029999,-0.36950683593,0.10949707031,0.011058976706321215,0.10489843574996535,1.0550795251424,0.83501583164,1.2503643816,0.009479448270687495,0.0971187470539754,Null
-0.8249066162069001,-1.1220703125,-0.41918945312,0.043721546057315014,0.20857358012708235,0.49935424804255,0.08032226562,1.07092285156,0.08224216172315053,0.2860610964716013,0.01700683593625,-0.345703125,0.34216308593,0.039585716123941565,0.19846356729465955,1.0415197663679,0.8699004977,1.31720340488,0.010123694492418461,0.10036471501457257,Null
-0.56942138671535,-0.77026367187,-0.3251953125,0.012578665760788284,0.11187391309856083,0.8284539794885001,0.59716796875,1.08129882812,0.012009112708768236,0.10931178868367489,-0.10699890136489999,-0.50024414062,0.31787109375,0.029206896228582767,0.17047246624437581,1.03182980870975,0.7345295297,1.28412167958,0.01093308930192812,0.10429968291139949,Null
-0.7045892333949,-0.75024414062,-0.57873535156,0.0011079491828248228,0.03320255166264633,0.72071044921485,0.6435546875,0.81591796875,0.0010560444910731198,0.03241549426767629,-0.2736859130818,-0.3017578125,-0.1357421875,0.0010587608061431205,0.03245715640829314,1.0455724648763,0.9804259667,1.10207304384,0.0007621907999112753,0.027538697244272808,lift up
-0.6338018798791499,-0.68859863281,-0.58825683593,0.0006203421392759742,0.024844323870445627,0.6982775878876502,0.60803222656,0.80017089843,0.0023187482162200955,0.048032847876624964,-0.39857177734015,-0.517578125,-0.26147460937,0.0035041071961755556,0.05904732559730947,1.02662630154655,0.98301265691,1.09332914429,0.0006083345882407068,0.02460270138215524,lift up
-0.6684661865195,-0.75866699218,-0.61218261718,0.000946303698520216,0.030685048150974358,0.6287731933555,0.57409667968,0.74694824218,0.0010412918248512608,0.032188279943591344,-0.4263262939415,-0.53784179687,-0.17272949218,0.004757152861289652,0.06879947017952394,1.0149378187613,0.97243035232,1.11895434175,0.0005719887457227968,0.023856420561228015,lift up
-0.5822113037074499,-0.61218261718,-0.55004882812,0.00022606513271366204,0.014997826744235103,0.7355047607384,0.62915039062,0.90808105468,0.0039205736847467655,0.062457752251606304,-0.38158630370825003,-0.5146484375,0.06030273437,0.02288113276774381,0.15088647091076485,1.0254640749089001,0.96112823144,1.08276524764,0.0008657549857092412,0.02935006321595739,lift up
-0.5700823974578999,-0.62670898437,-0.5205078125,0.0005779988468224826,0.02398142724252187,0.65596252441025,0.50500488281,0.74096679687,0.0027823112563537225,0.05261558419396248,-0.50682067870805,-0.56652832031,-0.43286132812,0.0009111061074769487,0.030108978344333837,1.00779096100595,0.93772169511,1.04901754277,0.0007592077723255293,0.027484754564374443,lift up
-0.5020367431606,-0.64770507812,-0.41149902343,0.004262221754740843,0.06512227457611673,0.6917224121054001,0.57653808593,0.80261230468,0.0028992279075323465,0.0537096990123263,-0.57414672851175,-0.66284179687,-0.38195800781,0.005650616050120892,0.07498241773822906,1.03564064820215,0.99689787775,1.09023948375,0.000363523547432616,0.019018568024313842,lift up
-0.5463903808562001,-0.625,-0.48852539062,0.001686587991103762,0.04096529081000455,0.7010321044886999,0.57421875,0.78759765625,0.002872989165381716,0.05346610346336085,-0.473174438473,-0.62060546875,-0.27807617187,0.01693341368076527,0.12980272189889333,1.01740310402975,0.97558551746,1.0431220767,0.00015975762297149092,0.01260788780314266,lift up
-0.66339050292655,-0.77429199218,-0.60974121093,0.002498548084399267,0.04986035844212585,0.73009094237885,0.65222167968,0.80261230468,0.000862970214043228,0.02930282175786168,-0.2578100585902,-0.322265625,-0.17224121093,0.0025663336857268504,0.05053218793302162,1.02241029904375,1.00059387334,1.09730976378,0.00016197282629795673,0.01269499752526431,Null
-0.43504272460559995,-0.71301269531,-0.19641113281,0.01434048011529361,0.11945198916182662,0.81202453612925,0.61376953125,1.06567382812,0.011598077610740644,0.10742479798764781,-0.4467742919888,-0.75158691406,-0.23254394531,0.01766715268965616,0.1325851308639392,1.0377047106803,0.82620651316,1.26661966821,0.014884324408704566,0.12169594400250586,Null
-0.48446594237935003,-0.703125,-0.36889648437,0.0076634615807272075,0.0873220720827419,0.76983581542515,0.64245605468,1.02819824218,0.008296053912469722,0.09085468421004705,-0.48553710937074995,-0.68041992187,-0.28747558593,0.00969743967664084,0.09822908163195682,1.0396407904242502,0.81728533821,1.41934761807,0.00781549135230373,0.0881839775443488,Null
-0.54090576171465,-0.65002441406,-0.40356445312,0.004149052216205821,0.06425190234634919,0.7813055419880501,0.69311523437,0.95483398437,0.00221422790849219,0.04693779680545018,-0.3759204101529,-0.64685058593,-0.18408203125,0.011578803810952365,0.10733550107908195,1.0298280729061,0.94474615518,1.15664802608,0.0016483030564913527,0.04049767328142317,Null
-0.47580017089454996,-0.68957519531,-0.357421875,0.005620085189275402,0.07477957450620473,0.8060437011684001,0.52978515625,0.98083496093,0.0089443650661171,0.0943379204815673,-0.42346801757365,-0.6171875,-0.28686523437,0.0075060299517450135,0.08642048253733768,1.035076478338,0.8899972527,1.2384433941,0.0060243462576699686,0.07742237742656588,Null
-0.5239428710903999,-0.68029785156,-0.37915039062,0.0043661187102464905,0.06591121389183527,0.83784057616745,0.65551757812,1.09594726562,0.011888710276960165,0.10876243251038184,-0.35169006347195003,-0.51403808593,-0.15075683593,0.007395255550306199,0.08578041310552584,1.0565993796952,0.87422286161,1.27312221017,0.007345174804072119,0.08548946677838012,Null
-0.5737066650357,-0.64440917968,-0.5048828125,0.001783719868099208,0.04212839029394207,0.7448089599568499,0.68688964843,0.81298828125,0.0011235935211387827,0.033436141427100836,-0.4083703613241,-0.48913574218,-0.34619140625,0.0006233794171195483,0.02490507016721596,1.0266221950727001,0.97272856569,1.07493296375,0.0004652353795988124,0.021515324833727662,Null
-0.57827148437135,-0.71533203125,-0.4716796875,0.0025178262935099337,0.05005234422124886,0.7073437499965,0.60217285156,0.79675292968,0.002003352941538211,0.04464679357838052,-0.45998107909784997,-0.55322265625,-0.39086914062,0.0017894540565887027,0.04219605178575075,1.0252907970534,0.91960252697,1.11126441974,0.0013804472670411268,0.03706136844081612,Null
-0.5819049072232,-0.66540527343,-0.54858398437,0.000637712846651445,0.02518976542999533,0.7021874999965999,0.66076660156,0.73193359375,0.00017592082671444087,0.01323031453068553,-0.4613244628873,-0.49353027343,-0.41491699218,0.0002871687552823504,0.016903636043938554,1.02250020996695,0.99691782503,1.05713708887,8.993497045080897e-05,0.009459666780524298,lift up
-0.6050329589804,-0.62243652343,-0.54333496093,0.00019315521771618555,0.01386324066110102,0.71415710448905,0.67736816406,0.7548828125,0.000560099071820764,0.02360717214029796,-0.46461364745675,-0.49353027343,-0.43237304687,0.00031290479305139194,0.017644836895991275,1.0450479261585,0.97378194541,1.08856292031,0.000760958964659095,0.02751643454075763,lift up
-0.6193957519497,-0.71325683593,-0.55383300781,0.001101993464604377,0.033113192194069045,0.6395849609343,0.56518554687,0.70434570312,0.0012690273600916412,0.03553424015356432,-0.48758789062119995,-0.57971191406,-0.30895996093,0.002462960032423854,0.049503992084090905,1.0172721090518,0.97580239278,1.0995490564,0.00043139494125450325,0.020718058947406987,lift up
-0.6221771240199501,-0.68041992187,-0.53039550781,0.002382267201007897,0.048686300588593266,0.6757489013643,0.58251953125,0.74536132812,0.001702081240235419,0.04115301731385248,-0.43326904296519997,-0.61267089843,-0.30139160156,0.011051337688883214,0.10486220005530496,1.0226669735804002,0.93422483717,1.0644436687,0.0006786771740764725,0.025986223046185263,lift up
0.27178100585824994,-0.79833984375,0.75427246093,0.3378396479752779,0.5797848305495769,0.5887719726518,0.36791992187,0.92260742187,0.008137414227709997,0.08998181569945923,-0.4743933105425499,-0.75903320312,-0.26245117187,0.012151638873020688,0.10995854072629185,0.9975839343102999,0.74098213091,1.25387509625,0.006738726477994157,0.08188426494512964,lift up
0.7147741699177,0.52551269531,1.03735351562,0.015602813670113807,0.12459855377075305,0.5824841308554999,0.05554199218,0.95874023437,0.03995360570195471,0.19938364444819676,-0.19372436523210002,-0.59350585937,0.71447753906,0.07991316165476231,0.2819815523159068,1.0073627659571,0.83033760054,1.2013346802,0.00777034899598504,0.08792893295727587,lift up
0.7081872558555,0.51635742187,0.89965820312,0.00939910299663814,0.09670629494327114,0.6078588867149001,0.3720703125,0.89135742187,0.016012546758463624,0.12622394394357714,0.2198229980448,-0.15112304687,0.72827148437,0.04773405068241189,0.21793434889663407,0.9928630308774999,0.8300577408,1.17258067182,0.006378633003276516,0.07966642855218335,lift up
0.6198999023409,0.50708007812,0.84130859375,0.005529952282881427,0.07417750684315981,0.7656201171837,0.52770996093,0.90905761718,0.007295716324074694,0.0852011604525098,-0.1395727539034,-0.265625,0.31494140625,0.017786437176731302,0.13303196980744006,1.0095030511343,0.88998186581,1.16680831418,0.001299740098345545,0.0359616656712925,Null
0.5651873779255001,0.33532714843,0.75891113281,0.009742933223822902,0.0984592228168788,0.8186450195277502,0.64270019531,1.00231933593,0.006841289703486231,0.08250504987556095,-0.1676525878873,-0.34387207031,0.26391601562,0.013495073274780901,0.11587751252252093,1.0181664059542002,0.8542606585,1.23985478156,0.011045125525932004,0.10483272341355225,Null
0.5777514648402,0.41528320312,0.77087402343,0.005641970748210969,0.07492503516495615,0.7988647460902,0.60583496093,0.93237304687,0.0059747532683402,0.07710304469992414,0.12254638671940002,-0.09826660156,0.69201660156,0.0584020885677134,0.24106032051101822,1.0265073256036,0.901978299,1.19240479445,0.00296551112865069,0.05432019489110322,Null
0.48292724608950005,0.39526367187,0.6630859375,0.004516188828801492,0.06703437837898912,0.815432128902,0.58984375,1.00512695312,0.010605679079529562,0.1027260954389483,0.029346923828599963,-0.33959960937,0.69067382812,0.10354754735738812,0.320982569029225,1.007069834991,0.85603106755,1.18185675039,0.0029104919014449906,0.05381393352968881,Null
-0.10818969726629998,-1.25256347656,0.568359375,0.4132701075502728,0.6412517111185915,0.7399462890591999,0.14404296875,1.13879394531,0.07565328778927445,0.27436293727529615,-0.10369628905940001,-0.54370117187,0.357421875,0.029372808166173596,0.17095597130648207,1.0306595745789,0.76383531387,1.42666938502,0.02354171403806167,0.1530490296208093,Null
-0.9368066406212,-1.80688476562,-0.12707519531,0.10882760498433078,0.3290645331229258,0.4659741210901,0.20715332031,0.93383789062,0.02126192795573894,0.14544971060803197,-0.1149169921853,-0.38891601562,0.09619140625,0.01280240347590223,0.11286448271499196,1.0667214989631,0.26742387766,1.92782770721,0.1127911546876912,0.3350032819454949,stairs down
-1.0695288085906,-1.7607421875,-0.44653320312,0.082111480002557,0.2858337324434333,0.46609497069989997,0.11560058593,0.9326171875,0.04939587403026808,0.22169549986437873,-0.13644287109019998,-0.3759765625,0.08569335937,0.010382402368487332,0.10163901985283455,1.1942776216951,0.55572698468,1.85877667345,0.09510987047632673,0.3076269187245243,stairs down
-0.4774780273409999,-1.42883300781,0.1494140625,0.11823212486306782,0.34298828586229074,0.4204711914034,-0.12487792968,0.97241210937,0.07562951481447906,0.27431982655361725,-0.6964855957007999,-1.4287109375,0.14526367187,0.11883903475045728,0.3438674738568697,1.0763425870680001,0.71162953074,1.53477108712,0.04271083490794848,0.20614868598516156,stairs down
-0.9607617187461,-1.34912109375,-0.31372070312,0.030880019389469042,0.17528724794611186,0.3690112304655,0.1083984375,0.68298339843,0.012280030412271633,0.11053791322532859,-0.2386071777301,-0.48974609375,-0.10095214843,0.00589598095453029,0.07659308748025268,1.0697122753652,0.75254427969,1.4682330226,0.020796132882034996,0.14384767018490366,stairs down
-0.8959582519497001,-1.19470214843,-0.43359375,0.04232274368652724,0.2052099655672078,0.34892822265269996,0.00146484375,0.74963378906,0.03238125457823863,0.17949748829815818,-0.3088159179649,-1.01208496093,0.18249511718,0.048970767714340814,0.22073947058867635,1.0610057328351998,0.7309837158,1.29924808682,0.0172689367137854,0.13108238642249564,stairs down
-0.2011254882799,-0.93395996093,0.40002441406,0.1333321426599905,0.36423273047145355,0.12320312499884999,-0.76501464843,0.73315429687,0.09052140151857195,0.30011463561609103,-0.90831909179305,-1.27734375,-0.44226074218,0.02341854388853913,0.15264812861314886,1.04861020249765,0.80340719682,1.54519535638,0.027262729051841617,0.16470098787372955,stairs down
-0.4089221191381,-1.23876953125,0.26245117187,0.1314676301837697,0.36167705488854396,0.3432080078092,-0.1845703125,0.67260742187,0.03150265070637453,0.17704558015619212,-0.8514184570275001,-1.18713378906,-0.43505859375,0.03453980360197727,0.18538366860100536,1.0748083770512,0.67472012952,1.65576431962,0.05148935859640829,0.22634467478477652,stairs down
-0.03080200195309999,-0.84448242187,0.67663574218,0.16497379063513926,0.405152960845609,0.1280664062498,-0.33630371093,0.91577148437,0.07643038911288558,0.27576844846233073,-0.8813610839809001,-1.21057128906,-0.6083984375,0.02198948869010214,0.14791734599651127,1.0131296420079,0.63719246215,1.46598711786,0.029941866000908438,0.1726040459285468,stairs down
0.17431640624799996,-1.07885742187,1.08862304687,0.40050697985203926,0.6312720847247874,0.3747058105443999,-0.76306152343,0.91918945312,0.07170641574751935,0.2671102462819084,-0.6250964355430999,-1.06408691406,-0.20422363281,0.06631584691556461,0.25687403076408244,1.033990162285,0.5327188857,1.3095605325,0.02837904348988013,0.16803912720682268,stairs down
-0.9132543945275,-1.1748046875,-0.53051757812,0.02712416492521766,0.16428190436134946,0.4664086914026001,0.13037109375,1.8095703125,0.08990620260308806,0.29909308181579963,-0.09608642577979999,-0.62243652343,0.50122070312,0.07115178342292358,0.2660752233970855,1.0945719204867,0.79863426075,2.14134836504,0.05020784807739184,0.2235101985078195,stairs down
-0.7032116699192001,-1.27221679687,0.716796875,0.3188411756026144,0.5632468106652725,0.48154418944919997,0.00305175781,1.8095703125,0.05161227583738735,0.22661468279482777,0.004345703125500009,-0.62243652343,0.79711914062,0.07772225800284072,0.278089278313326,1.0519118981926001,0.19291701916,2.14134836504,0.06615732017881558,0.25656682088282873,stairs down
0.45865722655980007,-0.35900878906,0.85070800781,0.08904524540653035,0.29765755354013396,0.7068725585900001,0.25085449218,1.11437988281,0.03370304428149733,0.18312435408784336,0.18501098632589996,-0.79809570312,0.82104492187,0.19503392522837112,0.44052100472307704,1.0191194237496,0.71392162444,1.40526076596,0.021963049854586934,0.14782839580173357,stairs down
-0.36886352538779993,-1.07238769531,0.38366699218,0.11494264496314201,0.33818328128150615,0.1657507324193,-0.37084960937,0.52270507812,0.05305857516135239,0.22976788784672594,-0.9043835449182,-1.63220214843,-0.21569824218,0.06274770890467558,0.249867905822561,1.0641823711115,0.4477396789,2.00867761535,0.0789490124426251,0.280275342084194,stairs down
-0.4052001953105999,-1.18334960937,0.42761230468,0.17626207797191706,0.41878487028790506,0.2687255859346999,-0.21862792968,0.61206054687,0.040202984257638595,0.2000049232802793,-0.7673193359339001,-1.08459472656,-0.49938964843,0.023978823477417126,0.15446335927989538,1.0193161360489,0.70526385832,1.37645136571,0.025543601189235526,0.15942359669537426,stairs down
-0.7290869140596,-1.61767578125,0.67932128906,0.28200872905094443,0.52971566467841,0.22194702148180004,-0.16662597656,0.75415039062,0.028694381274722774,0.16897014342288155,-0.4270190429649,-1.03930664062,0.16198730468,0.07251144234829156,0.26860544509847545,1.0502135699188,0.66894319631,1.74146269787,0.04173206946934839,0.20377293520485407,stairs down
-0.9745190429646999,-1.22717285156,-0.70178222656,0.01643638443712231,0.12788355060341694,0.31496215820019996,0.13806152343,0.5458984375,0.010630236215656333,0.10284495629139064,-0.17548339843359997,-0.44763183593,-0.076171875,0.00663074516173534,0.08122555900655078,1.0472979732477001,0.74069442141,1.31013471486,0.016461088986175182,0.12797962158579898,stairs down
-0.9614807128868,-1.19348144531,-0.78540039062,0.010938734677297854,0.10432660736318115,0.3337976074187,0.17077636718,0.66967773437,0.011910951453573479,0.10886412033496441,-0.1514807128875,-0.38610839843,0.005859375,0.009112870949227884,0.09522240594776918,1.0380376247264,0.84020713219,1.26818937543,0.013158838488450642,0.11442484125402311,stairs down
0.07262695312369996,-1.11364746093,0.6591796875,0.3204564251217267,0.5646717125871616,0.507657470699,0.08715820312,1.28552246093,0.06717578066495933,0.2585341404179234,0.4564672851544999,-0.49853515625,1.11022949218,0.18677142989464612,0.43108882233847456,0.9956486728371999,0.42669333313,1.48723456855,0.05182764027662913,0.2270869923074547,stairs down
0.2898156738244,-0.08984375,0.67565917968,0.04939859328378739,0.22170160197294123,0.6951745605428999,0.36486816406,1.41333007812,0.07372823571854038,0.27084976378049086,0.3995446777320999,-0.68688964843,0.95886230468,0.20622482528866184,0.4529831135508459,1.0144527954737002,0.73272463835,1.43225615775,0.025615241911790675,0.15964700342390306,stairs down
-0.79842346191025,-1.50036621093,-0.06799316406,0.15475047257380348,0.39239867508814863,0.5233349609335499,0.158203125,1.0703125,0.048650591882769434,0.22001667873903466,-0.25022155761395,-0.54284667968,-0.01721191406,0.01969677001343194,0.1399938790210657,1.0592546165025,0.64332024062,1.57078124874,0.0695835014798474,0.2631265550499382,stairs down
-0.9255822753863001,-1.47546386718,-0.56555175781,0.03526521767038208,0.18732029143162834,0.3582263183553999,0.21875,0.66174316406,0.00923680992433477,0.09586775200615219,-0.1659069824179,-0.39733886718,-0.02368164062,0.005891076252965109,0.07656122302902615,1.0112520446435,0.64317463374,1.61464863204,0.04026553871657195,0.20016046318638728,stairs down
-0.9597753906212,-1.37097167968,-0.72692871093,0.023906136122178356,0.1542290680824061,0.387421874996,0.22143554687,0.76525878906,0.012155890500687376,0.10997777524656488,-0.09599365234130001,-0.33935546875,0.06591796875,0.0102794064885351,0.10113362178866346,1.0486766491525001,0.81025177512,1.52913404257,0.027001308970589406,0.16390943360812538,stairs down
-0.9591967773396501,-1.26916503906,-0.74536132812,0.012736069383409748,0.11257170619872783,0.39099487304294994,0.18774414062,0.69653320312,0.017032619383819263,0.13018239622506633,-0.1286315917935,-0.36022949218,0.02111816406,0.00894705730292416,0.09435211718032371,1.0557056171878,0.80753046421,1.35461618836,0.015503473965581887,0.12420127453353277,stairs down
-0.94616699218315,-1.13391113281,-0.75659179687,0.01201710898661488,0.10934817530110783,0.38084045409765,0.21520996093,0.6298828125,0.012605941789577033,0.11199514311178475,-0.11819946288739999,-0.29125976562,0.01245117187,0.006401677465513731,0.07981020660408142,1.03322329750785,0.80874393745,1.25992351991,0.01765001375713386,0.13252080473777766,stairs down
-0.9322430419888501,-1.07885742187,-0.74951171875,0.0064496968675362264,0.08010897816848336,0.387859497066,0.22473144531,0.63745117187,0.01007263079322663,0.1001112762842453,-0.1163171386682,-0.2431640625,-0.02722167968,0.0032187555468666316,0.056592064542056585,1.0217896159609499,0.85090226642,1.2194508347,0.008673481461807022,0.09289840716878835,stairs down
-0.99328796386415,-1.5537109375,-0.63684082031,0.056910651484426526,0.23796238826126367,0.38062316894174997,0.21203613281,0.68664550781,0.012512705595228678,0.11158020463887192,-0.13791198730184998,-0.48852539062,0.50964355468,0.02617271168648808,0.16137486832854625,1.0863023581951998,0.67692747645,1.69325305732,0.0653084561545562,0.25491550340021185,stairs down
-0.5978717040992501,-1.11694335937,0.08166503906,0.11232664746421349,0.33431274912406855,0.2205438232398,-0.42517089843,0.61633300781,0.05413587791121438,0.23208877293324273,-0.65860473632445,-1.0283203125,0.01440429687,0.08479462490419788,0.29046626616472504,1.0338428800734498,0.78269223604,1.40948247267,0.021125743809656546,0.14498315450633656,stairs down
-0.34787292480265003,-1.05590820312,0.18469238281,0.1271280112313719,0.3556576600822975,0.319772949215,0.03100585937,0.6142578125,0.015951002117287325,0.12598113790048449,-0.8785711669884,-1.13305664062,-0.58923339843,0.020631594274265086,0.1432774800968169,1.05326302385905,0.61917192398,1.63428805723,0.04893132008190775,0.22065054607115345,stairs down
-0.07699707031300002,-0.90161132812,0.68054199218,0.17846977803857117,0.4213993701328685,0.21644165038975005,-0.47351074218,0.96118164062,0.13397181081619788,0.36510539815526816,-0.80021118163715,-1.01965332031,-0.15759277343,0.029675650403458355,0.17183501433480042,1.00653878495365,0.66362314836,1.34603264903,0.02050231108072092,0.142827866767369,stairs down
-0.3804736328098,-0.99182128906,0.22094726562,0.10250787930148383,0.3193670927083384,0.49491821288645,0.0908203125,0.89428710937,0.03866086507972343,0.19613148843142147,-0.8041253662067,-1.24328613281,-0.40844726562,0.03560688206527789,0.18822552338870382,1.0911265118545501,0.7574314949,1.44000578769,0.021765337420967125,0.14716151240681882,stairs down
0.3902398681606,-0.74584960937,1.09106445312,0.12418682552630819,0.3515194040144536,0.6271740722622999,-0.34765625,1.08654785156,0.09299387470374013,0.3041856428732649,-0.4748309326142,-1.01940917968,0.4873046875,0.1392446109500412,0.37222088589343155,1.03983877565,0.3553507263,1.46229532961,0.0447008959478213,0.2108966369292839,stairs down
-0.6922131347636999,-1.37963867187,0.91650390625,0.3879938366379022,0.6213323325360693,0.39315856933204996,-0.15270996093,1.12548828125,0.05544719811332808,0.23488286894271673,-0.1323376464819,-0.42016601562,0.39697265625,0.030001340916541778,0.17277538659183797,1.0317795077541498,0.13973990692,1.74108441674,0.05804236022396078,0.24031676683669198,stairs down
-0.7274572753860999,-1.12817382812,-0.2392578125,0.04253431497355726,0.2057222481859691,0.35735046386335,-0.01538085937,0.9111328125,0.04771173932997978,0.21788341064277905,-0.4859808349571,-0.99182128906,-0.12646484375,0.06936209871233291,0.2627076097465988,1.021362287659,0.84234959452,1.27996366755,0.008743721691955485,0.09327380706015868,stairs down
-0.5047045898413,-1.29296875,0.19140625,0.12774759154132853,0.3565232861730379,0.16566406249895,-0.3544921875,1.03283691406,0.09750499505992082,0.31147627531582756,-0.77961486815915,-1.05358886718,-0.51000976562,0.024057623563820622,0.1547169526781132,1.05556291733085,0.79310128556,1.59524183948,0.023940938632002563,0.15434129045347053,stairs down
-0.35978515624850005,-1.09423828125,0.17211914062,0.12378354333582464,0.3509481808175468,0.27068786620705,-0.13757324218,0.58374023437,0.02358583468508018,0.15319238072324218,-0.8382067871052999,-1.17700195312,-0.56140136718,0.01773560244682475,0.13284172700846159,1.01618567515685,0.60689256672,1.45533349785,0.037139725319153875,0.19223430155036875,stairs down
-0.38367065429485,-1.0654296875,0.470703125,0.15189433845156508,0.38876068057264646,0.3607220458954,-0.03796386718,0.65979003906,0.03209616451654073,0.17870557823962302,-0.8451562499955,-1.10327148437,-0.56958007812,0.021449385120524536,0.14608948694181217,1.0748827142689,0.66373759904,1.5102464569,0.040856775362894726,0.20162463015733037,stairs down
-0.9523840331996002,-1.58117675781,-0.30822753906,0.0314491582141934,0.17689520180921367,0.45519714355115,0.24389648437,1.45568847656,0.04714897730813185,0.21659462694534043,-0.16811706542605,-0.60571289062,0.04992675781,0.012551317244487837,0.1117522288738144,1.08571837475965,0.66102645446,2.15042284353,0.05468587948882518,0.23326476393013382,Null
-0.97603027343415,-1.15148925781,-0.74743652343,0.005159811314669236,0.07165202200982113,0.3258923339806,0.20434570312,0.55297851562,0.005661033444439952,0.07505150416359256,-0.14767700194995,-0.41381835937,0.05627441406,0.014242579995031432,0.1190435512535487,1.04871607694525,0.87582326374,1.21000151608,0.005811158290368352,0.076040137420421,Null
-0.6416430664024501,-0.74743652343,-0.412109375,0.004225149891466299,0.06483844648053319,0.7238659667934999,0.45458984375,0.9599609375,0.01065584480902577,0.10296876023814525,-0.26385681152065005,-0.45812988281,0.06994628906,0.031384755464591386,0.1767139827157671,1.0240628272572498,0.87582326374,1.16777211706,0.0026511826884013144,0.05136075130836101,Null
-0.6408355712846501,-0.78234863281,-0.46459960937,0.006118546918622062,0.07802534321634831,0.7059686279262999,0.51440429687,0.9541015625,0.008386671213303267,0.09134953671057534,-0.3681646728477,-0.642578125,-0.16369628906,0.0131819217495196,0.11452515942260025,1.03000122555165,0.84263029684,1.26518648109,0.011309888362550424,0.10608175583359125,Null
-0.67839477538685,-0.96899414062,-0.423828125,0.02094071851760008,0.14434685630456964,0.6376214599575,0.44604492187,0.9228515625,0.01579150301423085,0.1253496928562639,-0.40519592284815004,-0.69873046875,-0.19873046875,0.014636270990618821,0.12067762690600825,1.03168736939925,0.78743333988,1.27183268357,0.017786085675955077,0.13303065529258773,stairs up
-0.75961303710525,-0.99157714843,-0.55859375,0.009440880886507649,0.09692098060830333,0.6172558593713999,0.39855957031,0.9306640625,0.015645936002757287,0.12477061482073212,-0.29627685546480004,-0.56091308593,-0.12036132812,0.014581725974556366,0.12045255225475127,1.0336181977830001,0.82665160299,1.32946315558,0.016985284941001717,0.13000137890152053,stairs up
-0.7362030029254,-1.02038574218,-0.49145507812,0.013493942321390846,0.11587265686858092,0.6413128662074,0.41162109375,0.87182617187,0.015308809366832236,0.12341906384346818,-0.28799926757445,-0.54797363281,-0.06103515625,0.01339507635957138,0.11544739485052714,1.02767245783255,0.803640833,1.36903572496,0.022207829473113713,0.1486498917784609,stairs up
-0.7465167236280001,-0.99291992187,-0.56323242187,0.012369701891783703,0.11094076519622886,0.6111425781217,0.42321777343,0.79016113281,0.009718638712499849,0.09833638959681888,-0.33124755858995003,-0.55554199218,-0.14013671875,0.009094871821611976,0.0951283210327183,1.0256858376077,0.78827956986,1.31776956433,0.019601279818617184,0.139654120667899,stairs up
-0.7452331542930001,-1.00085449218,-0.59045410156,0.010970655061112278,0.10447871451069216,0.61663452148,0.43420410156,0.80517578125,0.008436734339390357,0.09162178053112374,-0.31415039062204997,-0.55200195312,-0.13806152343,0.010705499038105188,0.10320838891734849,1.0245829210399,0.83219592833,1.2976574261,0.014566047414487672,0.12038777835567543,stairs up
-0.7756335449180001,-1.04931640625,-0.63024902343,0.010209386371386332,0.10078858784371075,0.58801269530845,0.32849121093,0.83581542968,0.012638887867772843,0.1121413992619763,-0.2802551269492,-0.54162597656,-0.1494140625,0.009213187549237466,0.09574508661801544,1.0198640370463499,0.82038997102,1.29739265566,0.017776645677660966,0.13299534747228062,stairs up
-0.63201843261355,-1.04064941406,-0.09655761718,0.035259162361074015,0.18730420857329566,0.6848376464807501,0.43249511718,1.02783203125,0.018531113472315643,0.1357882833861378,-0.3556182861284,-0.63146972656,-0.14953613281,0.013367463511660257,0.11532834081049617,1.02273375797135,0.62591740511,1.32383787253,0.015831032748808656,0.1255064842351367,Null
-0.6796771240198499,-0.84973144531,-0.50012207031,0.006311363577486366,0.07924523177831544,0.6896051025353,0.47741699218,0.90710449218,0.007765174435763843,0.08789965053164332,-0.30570556640220004,-0.53857421875,-0.12109375,0.008301329139611568,0.09088356558758856,1.0239040976806,0.90113162085,1.24548629974,0.004882874632961558,0.0697026560454962,Null
-0.7082719945160199,-0.84240722656,-0.61328125,0.0027448522733009534,0.05226084855646476,0.6676231877686567,0.55895996093,0.849609375,0.0043086455948014935,0.06547678632207114,-0.30318378808676616,-0.40270996093,-0.19396972656,0.003190898867149369,0.05634734908056751,1.0234975726355722,0.94852804634,1.11359886189,0.0019461793030886544,0.04400564530822933,Null
-0.7247559820553768,-0.82861328125,-0.61120605468,0.00217898475708964,0.04656216366260765,0.6841654561830149,0.5673828125,0.84008789062,0.002449224020394341,0.04936513305968494,-0.22618095359211057,-0.32531738281,-0.04028320312,0.007560167940270591,0.08673048568179986,1.02735177700593,0.90929543222,1.13527977042,0.00119287796668407,0.034451177121289214,Null
-0.6890698242150001,-0.93908691406,-0.46643066406,0.014132321785404337,0.11858187119655902,0.69237487792585,0.51306152343,0.95434570312,0.010580954401626078,0.10260628455225317,-0.2926739501913,-0.56958007812,-0.05249023437,0.013071158165448458,0.11404298476724123,1.0321714044174999,0.8138850035,1.31537980945,0.012136622545058165,0.10989057936116668,Null
-0.6703295898402,-0.8134765625,-0.55432128906,0.0049322547684662495,0.07005421825003773,0.67742431640205,0.48999023437,0.89807128906,0.009559099225022148,0.09752591311491032,-0.37617248534764997,-0.62719726562,-0.18371582031,0.013758678966174996,0.11700378443171879,1.03329262867615,0.85831253958,1.27363057223,0.010217415600090943,0.10082821292718863,Null
-0.7403868110575125,-1.01940917968,-0.44909667968,0.02007297095383146,0.14132623757355875,0.6142869636158209,0.40502929687,0.82727050781,0.0099731584293624,0.09961697006902856,-0.3593337025765173,-0.63061523437,-0.10485839843,0.01881468273658285,0.13682498803154958,1.0413770470217412,0.80904708354,1.36709426016,0.01946723260734651,0.1391775150799416,stairs up
-0.7587011718714,-1.02233886718,-0.59008789062,0.011691165353780756,0.10785503941407584,0.6180541992146,0.39489746093,0.90026855468,0.01571293826676735,0.1250374886801295,-0.27519287108959994,-0.50073242187,-0.14208984375,0.006081907527452297,0.07779137477776721,1.0232447407021998,0.84546298522,1.31223229107,0.019737044607757954,0.14013693083808837,stairs up
-0.7847483265903518,-1.05261230468,-0.58715820312,0.015389755275094884,0.12374336273696133,0.5774600541737185,0.37963867187,0.81469726562,0.012912800757116335,0.1133486317125208,-0.30699334072371853,-0.46179199218,-0.18774414062,0.0042964826304413345,0.06538266028133333,1.025714924352613,0.77126882897,1.32815151188,0.023999681275505842,0.15452857296325845,stairs up
-0.8181329345674,-1.12426757812,-0.63452148437,0.012430159350297737,0.11121154865186551,0.5792871093719,0.3271484375,0.83825683593,0.020453030883315123,0.14265611003002482,-0.22855651855135,-0.51110839843,0.01745605468,0.009648148929154691,0.09797912116624093,1.0357428101332,0.77909749092,1.33670451358,0.026842863923374975,0.16342781159814293,stairs up
-0.751508789059,-1.51733398437,-0.07958984375,0.06840297550392525,0.26088495668858647,0.56843078612865,0.107421875,0.82312011718,0.024545588876246655,0.1562781524457767,-0.28058044433265,-0.52270507812,0.03051757812,0.015418191198139716,0.12385919522647085,1.0198870928613,0.50353127951,1.54401013445,0.03784842423477499,0.19405973851781083,stairs up
-0.9586776809273133,-1.34228515625,-0.72924804687,0.025955867783888885,0.16070698215485932,0.27959385202527365,0.13159179687,0.43090820312,0.004663677166603943,0.06812103047254012,-0.21896316755711442,-0.34338378906,-0.05541992187,0.006174988453052842,0.07838537566067738,1.0279255742842786,0.77626109807,1.37369295333,0.025286781384487273,0.15862211857738312,stairs up
-0.9684082031204,-1.13537597656,-0.80053710937,0.005526425251419922,0.07415384767604997,0.30859130858999995,0.17907714843,0.4873046875,0.006546287973870878,0.08070660774683523,-0.21261718749580003,-0.45349121093,-0.03833007812,0.009834869758546515,0.09892267389104371,1.0463911393774,0.9004359782,1.22273358353,0.005138432694784167,0.0715034302066009,stairs up
-0.741661186789045,-1.095703125,-0.30627441406,0.045203165023624564,0.2120754899572114,0.5703824297225628,0.22277832031,0.91967773437,0.033140658933009014,0.18158778306502693,-0.3028067583983417,-0.873046875,0.34838867187,0.07931650543018068,0.2809233525821748,1.0545950697650253,0.71416901184,1.3636324411,0.01564492074151321,0.12476499128098717,stairs up
-0.5973657226522,-0.85339355468,-0.26550292968,0.020779633576088773,0.14379059568764688,0.7940429687464,0.50305175781,1.21423339843,0.022165010921644027,0.14850651792778594,-0.0222338867186,-0.56555175781,0.32531738281,0.05465276217767804,0.23319412163858172,1.0334128214065998,0.75295301072,1.33439416581,0.017097234905231094,0.13042909464803065,stairs up
-0.26145996093639995,-0.76220703125,0.81164550781,0.18819021857368845,0.4327230840627988,0.833835449214,0.12548828125,1.33068847656,0.06832142887977592,0.2607294032812123,0.060668945312,-0.28723144531,0.49108886718,0.042047819299050326,0.2045423677445704,1.0165346544632001,0.68454473559,1.38305464741,0.031203572018872458,0.17620316160267413,stairs up
0.10627197265419999,-0.45532226562,0.8115234375,0.1087590911801569,0.3289609334317012,0.8352832031208,0.27221679687,1.28149414062,0.06492196121364198,0.2541600901156076,0.0656909179688,-0.62255859375,1.32971191406,0.24637600764850795,0.4951203162972263,1.0333836258324,0.44465146442,1.62251705974,0.0637006179849964,0.2517580483223355,stairs up
0.030063476560999995,-0.57434082031,0.56164550781,0.06680350210063431,0.25781676553345234,1.0183569335906,0.18017578125,1.7685546875,0.10658212695849507,0.32565198651889504,0.012102050781799996,-0.90551757812,1.20690917968,0.13737735077699065,0.3697167348431846,1.1101265116396,0.28528842736,1.86770926651,0.1155069442623112,0.33901240322589915,stairs up
0.14092285156280002,-0.22668457031,0.75817871093,0.08135178350171486,0.28450839106115355,0.8669897460902,0.26403808593,1.42590332031,0.06395654396203238,0.2522632776331549,-0.0044482421866,-0.67517089843,0.89831542968,0.11068732124854183,0.33186425634933797,0.9959169907550001,0.65533067251,1.43087049433,0.03458821585057877,0.18551354336362044,stairs up
0.6490258789024,0.09997558593,1.00769042968,0.04529246774151652,0.21228755357488327,0.63548583984,0.24194335937,1.18054199218,0.06347509200214657,0.25131199044640873,-0.1753955078116,-0.90307617187,0.40319824218,0.08262009138871564,0.28671761531474144,1.0129753042132001,0.65414940609,1.33021861719,0.020253441422982032,0.14195835380796412,stairs up
0.049626464843000005,-0.39672851562,0.47631835937,0.03026194740692283,0.17352417027575212,0.9449609374971999,0.67590332031,1.23413085937,0.018737768192405788,0.13654332408229908,-0.37474609374719997,-1.00708007812,0.18957519531,0.05068279501149121,0.22456487044155807,1.0548748840692,0.82216105396,1.52781561174,0.02238358914823577,0.14923696325808358,stairs up
-0.17727050780939999,-0.40966796875,0.04040527343,0.01263177574566198,0.11210984286374533,0.9738256835902002,0.63781738281,1.37744140625,0.03279605048994324,0.18064348933048632,-0.22615234374739998,-0.73559570312,0.09350585937,0.043488831831055536,0.20801775806863282,1.0419980941554,0.65784005132,1.39825775014,0.03378715989090869,0.1833527313444066,stairs up
-0.2461035156208,-0.52172851562,-0.03771972656,0.015610779853290582,0.12463035727311436,0.9777246093712,0.68530273437,1.28845214843,0.02834776312864539,0.16794649241053583,-0.16493896484060003,-0.33825683593,0.00231933593,0.007234875095473468,0.0848451573161138,1.0309207872825998,0.71326728172,1.3510436181,0.03201708103445788,0.1784852812679118,stairs up
-0.2989111328088,-0.57678222656,-0.123046875,0.015139891538131396,0.12273627043560001,0.9386132812466,0.65466308593,1.34020996093,0.02617867306862744,0.1613932455317889,-0.2533471679642,-0.46862792968,-0.09643554687,0.008416627573570189,0.09151253704111988,1.0259781865982,0.7133321466,1.46059549887,0.03154052402993129,0.17715197263869695,stairs up
-0.109736328123,-0.53308105468,0.427734375,0.07335428673838974,0.2701620167690081,0.8700854492147999,0.47509765625,1.20434570312,0.016902530498747112,0.12968430069308073,-0.17286865234160004,-0.61828613281,0.98425292968,0.2076080174925964,0.45449970011555935,1.0398575091944,0.76859186414,1.36263177698,0.014116776620915268,0.11851663485692923,Null
0.7240275672379601,0.30895996093,1.0029296875,0.020679645390122,0.1434460232359578,0.5388748396651244,0.0302734375,0.88684082031,0.04397780179768398,0.20918653580922617,-0.18913428462940296,-0.81848144531,0.56567382812,0.129407396741386,0.3588364235235189,1.0173156288188558,0.85045974969,1.21143936709,0.008584757358967559,0.09242319580792911,Null
0.04098188697427137,-0.71411132812,0.87878417968,0.22576831384685683,0.4739554828324311,0.8408399418938693,0.30407714843,1.49133300781,0.08193432945036977,0.2855216264166765,-0.007101547776884448,-0.57409667968,0.88146972656,0.15266072936863176,0.3897352819864668,1.0601457872764823,0.42831419919,1.66563862943,0.0430992325872366,0.2070812727626747,Null
0.0873046874976,-0.37097167968,0.26818847656,0.02217401032374184,0.1485366630570484,0.5319116210896,0.1474609375,1.07434082031,0.03555395560649126,0.1880855811285352,-0.7901684570281999,-1.02624511718,0.26086425781,0.09011226227983844,0.2994356374388981,1.0275655562706,0.65686162194,1.14710200763,0.006159121836860009,0.0782836268173346,Null
0.11735511893333334,-0.01599121093,0.25390625,0.004232552723185231,0.06489603413884765,0.5186561090989054,0.40966796875,0.62890625,0.002872014511389148,0.05345770180225906,-0.8843896970192537,-1.01586914062,-0.7265625,0.0046718474274360005,0.06818067472098642,1.0361106939967661,0.93972074222,1.16228868399,0.003129544834053941,0.05580300134632234,Null
0.08906348146633165,-0.07238769531,0.29602050781,0.004376378130508922,0.06598777372064364,0.48538162001065316,0.36511230468,0.64025878906,0.0037840926087202103,0.061360223825967855,-0.9081166329658793,-1.05554199218,-0.78662109375,0.002845674384057726,0.05321066164577409,1.0377889495721107,0.93491495089,1.21121937947,0.0021592242248205063,0.04635055395387911,Null
0.04169338852218906,0.00646972656,0.06311035156,0.00021039781729882402,0.014468968933164506,0.4101107013713433,0.19177246093,0.46716308593,0.006742266790133542,0.08190679565373213,-0.936708668567413,-1.00646972656,-0.90954589843,0.0005974604330485496,0.024382124457953493,1.0270178354087562,1.00048344072,1.04916071812,9.967969697382324e-05,0.009959105285285732,Null
0.026558837887199996,0.00598144531,0.05395507812,0.00015417407953845441,0.01238560491622279,0.1594836425742,0.11206054687,0.23791503906,0.001019080678096662,0.031843135440879224,-1.0143865966766001,-1.03894042968,-0.98742675781,0.00012376491110352135,0.011097120642220834,1.0277620324501,1.00078650182,1.05474069955,0.00011689533457413859,0.010784751174749833,Null
-0.02396911620825,-0.08520507812,0.07958984375,0.0012029942400342672,0.034597388179371226,0.3300146484334501,0.11083984375,0.3955078125,0.006530817273898868,0.08061118525074157,-0.9662829589806999,-1.08483886718,-0.86242675781,0.0014766645776030881,0.03833120471254553,1.02526064278665,0.88756327806,1.12437422885,0.0011979714491893413,0.03452508641471292,Null
-0.021538085935949997,-0.07446289062,0.06176757812,0.0017956514211866295,0.04226905681560326,0.24281433105080003,0.03552246093,0.36889648437,0.019474105720775348,0.13920034192548333,-0.98452697753505,-1.04345703125,-0.94653320312,0.0009311137333637114,0.030437775291517165,1.0249555517879,0.96359392058,1.0583730728,0.00027340842631028834,0.016493677096958606,Null
0.027874357133467337,0.01037597656,0.05065917968,0.000100177878329495,0.009983710327615114,0.03831780974809046,-0.0009765625,0.07604980468,0.00043924393600237345,0.020905422264153446,-1.0221597489360803,-1.04248046875,-1.00646972656,6.365471549805139e-05,0.007958319078539772,1.023519208847789,1.00740595313,1.04278706457,6.458634142138466e-05,0.008016344986456123,Null
0.0031137039399004975,-0.01171875,0.01489257812,3.9178150758423394e-05,0.0062436555466726315,0.05053650205666667,0.01416015625,0.07067871093,0.00016944326421726428,0.012984616394131577,-1.0232929590296518,-1.03698730468,-1.00805664062,3.8965209502410703e-05,0.006226664656035133,1.0246471057434325,1.01003600435,1.03885157315,3.6960616106864235e-05,0.006064382280549358,Null
0.0089599609353,-0.03881835937,0.0458984375,0.0002738210423387335,0.016506118172575884,0.1013391113241,0.01086425781,0.19128417968,0.0045843650213055745,0.06753845716478166,-1.0143554687465501,-1.03747558593,-0.97412109375,0.00022851072962066067,0.01507873257182305,1.02180089964305,0.97579633794,1.05501871912,0.00025235995718661536,0.01584607703504821,Null
-0.00723205566145,-0.02502441406,0.00695800781,3.6488450570719786e-05,0.00602544673180887,0.15719116210605,0.13012695312,0.18493652343,0.0001554314799576729,0.012436009108949885,-1.00941894530875,-1.02709960937,-0.99047851562,8.425692218192403e-05,0.009156180293714972,1.0216992248052,1.00132949933,1.0422064249,9.39308729600206e-05,0.009667534256221723,Null
-0.024935913082,-0.03930664062,-0.00036621093,6.231949220946595e-05,0.00787450917507997,0.1986853027298,0.17504882812,0.22155761718,0.00010487337057970925,0.010215136011175314,-1.0055700683558502,-1.025390625,-0.99206542968,5.434270929765529e-05,0.0073532982906425745,1.0253945175314,1.01179561543,1.04543085269,5.5600969195425667e-05,0.007437940867568694,Null
-0.05257120563386934,-0.06811523437,-0.03918457031,6.168662615777944e-05,0.00783432467490086,0.21780472184849245,0.18017578125,0.24145507812,0.00031149793226287534,0.0176049031812262,-0.9973733413121608,-1.01391601562,-0.9716796875,7.712131259790086e-05,0.008759781293701875,1.0224112477344722,0.98957680231,1.03756194647,7.989549796277528e-05,0.008915941512167376,Null
-0.050390746459104484,-0.06713867187,-0.0283203125,7.608592806820585e-05,0.00870099943182636,0.23770612270273628,0.22119140625,0.26672363281,9.793931719719283e-05,0.009871780837955717,-0.9967010649845772,-1.0185546875,-0.97717285156,9.31931194392871e-05,0.009629614326591311,1.0259717627192038,1.0072764738,1.04674501466,0.00010479342122780795,0.010211369199240226,Null
-0.0274615478477,-0.05163574218,0.02075195312,0.00029300301178455257,0.017074483790897745,0.14637084960615,-0.00610351562,0.24389648437,0.010890179769044984,0.10409480712408165,-1.0130206298797,-1.068359375,-0.98388671875,0.0002181647227517632,0.01473342794932681,1.0293470881614,0.98612708885,1.08642798948,0.00017916748041292785,0.013351840435343107,Null
-0.019132080074349998,-0.04650878906,-0.00122070312,8.814908602863319e-05,0.009365273119268333,-0.0014880371085,-0.05932617187,0.04736328125,0.0007041699306574561,0.02646977674639831,-1.02661010741775,-1.05078125,-0.99890136718,7.521147555119178e-05,0.008650746683000018,1.0271720886872502,0.99987850345,1.05147057651,7.76446778628364e-05,0.008789565090123755,Null
0.11597229003605002,-0.03295898437,0.30383300781,0.009052597292583517,0.09490697712033926,0.09397094726219998,-0.00537109375,0.28161621093,0.007163456095683921,0.08442534462592084,-1.0091442871061,-1.07861328125,-0.904296875,0.0010945923050004179,0.03300180818493762,1.0282174585079,0.95611431804,1.10171289296,0.000702657974783743,0.026441344234169037,Null
0.09272399901964999,0.05883789062,0.16320800781,0.0004891684453162862,0.022061790568530578,0.27695251464514997,0.2314453125,0.33020019531,0.0006833367457729543,0.026075276835425727,-0.9877227783159499,-1.01342773437,-0.95935058593,0.0001561209540784305,0.012463560859884239,1.03058296820625,1.00506294348,1.05588501656,0.00011804103161916316,0.010837473250765943,Null
0.0597790527305,0.02661132812,0.11352539062,0.0003487188597571072,0.018627272088481493,0.16707519530874998,0.02001953125,0.29467773437,0.00884613975207206,0.09381848993301746,-1.00506469726195,-1.04113769531,-0.96984863281,0.0003910831455369893,0.01972632073675434,1.02512303231655,0.97564778785,1.06405240836,0.0003050074136933488,0.017420745581773533,Null
0.03343933105135,-0.01049804687,0.07092285156,0.0005472256126201698,0.023334298458643855,0.25631164550415003,0.23400878906,0.29284667968,0.00013015764404994718,0.011380107900617525,-0.9961254882777502,-1.0205078125,-0.97644042968,0.00010066524225452766,0.010008092527712512,1.0294622195849,1.00860958958,1.05038290024,8.950533962815349e-05,0.00943704471378687,Null
0.010754394529,-0.0205078125,0.033203125,0.00013798819710101717,0.011717433853686227,0.2186743164029,0.15478515625,0.27490234375,0.0012119558528424065,0.03472601436356027,-1.0049377441371001,-1.02160644531,-0.98449707031,6.266136715768985e-05,0.0078960787940535,1.0291669217114,1.01478931084,1.04523804774,5.524913674758822e-05,0.007414370577726088,Null
0.013574218748299999,-0.03125,0.04711914062,0.00034732525065028877,0.01859001410427215,0.2622094726522,0.24243164062,0.28723144531,0.00017062442986793546,0.013029631910326392,-0.9907824706989001,-1.01257324218,-0.9677734375,9.666240844383467e-05,0.009807094187455094,1.0252358111123,0.99932512219,1.04850166539,9.149934592229398e-05,0.009541585255746684,Null
0.029036254878949997,0.00646972656,0.04968261718,0.00013529650492197,0.011602586883853107,0.2541986083945,0.23840332031,0.275390625,9.218021516684562e-05,0.009577020104970616,-0.9984606933555,-1.01513671875,-0.98120117187,5.2792910657028585e-05,0.00724768556876907,1.0308252842430499,1.01168974168,1.04820617335,6.22054583264398e-05,0.007867301381973847,Null
0.0172265624977,-0.02111816406,0.04382324218,0.0002974578123406831,0.017203793862953013,0.24443664550405003,0.07019042968,0.32336425781,0.0062449371452679035,0.0788271048532265,-0.9954528808556499,-1.04150390625,-0.96325683593,0.00029583338968499186,0.017156754434815662,1.0283775343505501,0.9868838718,1.05354915221,0.0001682136304283864,0.0129372548199471,Null
0.013726806639,-0.0654296875,0.05920410156,0.0009228366626796587,0.030302186049297835,0.0823022460889,0.01037597656,0.14587402343,0.0020181772037756052,0.044811676131971755,-1.0206750488241,-1.04528808593,-0.99597167968,8.744260624504632e-05,0.009327668155215487,1.0255046186738,1.00192648868,1.04947972435,9.369999324976303e-05,0.009655645668908641,Null
0.0086120605461,-0.08178710937,0.06274414062,0.001111015714697124,0.03324846817710011,0.11336059570040001,-0.06860351562,0.32275390625,0.009335914560917249,0.0963806774624077,-1.0196960449180001,-1.12268066406,-0.94836425781,0.000490880903599063,0.022100373279224667,1.0311364665464,0.97955697055,1.12268882019,0.0003472620572115121,0.01858832286478408,Null
0.09439697265229999,-0.00634765625,0.15734863281,0.0008953442825472018,0.029847404596287194,0.3718847656207,0.31176757812,0.44458007812,0.0015371044915887576,0.03910778655371349,-0.9551586914022999,-1.00244140625,-0.89147949218,0.0006468847828210375,0.02537026525101644,1.0305886806125,0.98515946299,1.10318461492,0.0004905541625129066,0.022093016808492724,Null
0.0731219482386,-0.00256347656,0.10009765625,0.0004719261364653865,0.021669483283711672,0.34147216796525,0.31481933593,0.38659667968,0.00010790648772893766,0.010361802704659695,-0.9672705078083998,-0.98327636718,-0.94445800781,7.21700766586584e-05,0.008474032468392196,1.0286609997262,1.00266255625,1.04569985492,6.792604452062968e-05,0.008221095687195626,Null
0.026468505856400003,-0.0380859375,0.06140136718,0.0003521340740378814,0.018718263906348048,0.18872192382660002,-0.08618164062,0.41979980468,0.04075816722689587,0.2013811718874468,-0.9858605956993,-1.041015625,-0.93408203125,0.001168997459950128,0.03410502122342658,1.0247304171754998,0.9792839582,1.06852789182,0.0002343064018263675,0.015268754691108102,Null
-0.07028564452790001,-0.10498046875,-0.00537109375,0.0006975461430118857,0.02634498837154472,0.18262695312119998,-0.02990722656,0.26599121093,0.003391286440183603,0.05808898353373628,-1.0056152343713,-1.03308105468,-0.96496582031,0.00018836235880702952,0.013690162417334367,1.0264310206204,0.96575343534,1.0523490342,0.0002510998057586587,0.015806464080554684,Null
-0.08167968749809999,-0.23388671875,0.07214355468,0.006083775189230339,0.07780331813800866,0.1683984374975,-0.04772949218,0.29736328125,0.012492857829584895,0.1114916747584185,-1.0017077636678,-1.06274414062,-0.92761230468,0.0008085122944133585,0.028363175649797956,1.0281142512586,0.93611269666,1.08049277129,0.0007209596369387564,0.026783480706473958,Null
0.026195068355600003,0.0,0.05200195312,0.00012692826926346187,0.011238043776260375,0.0422631835913,-0.01635742187,0.08093261718,0.0008248143399481603,0.028647692197599783,-1.0225134277304,-1.05065917968,-1.00561523437,8.971614903635146e-05,0.009448151580662204,1.0241868122631,1.00806693628,1.05208782944,8.411379925617332e-05,0.009148400420832729,Null
0.09404418944995,0.00122070312,0.33801269531,0.011401723555867795,0.10651157185061376,-0.014860229493099997,-0.55297851562,0.15319824218,0.013545774555870327,0.1160949856070062,-1.0149444580034,-1.09155273437,-0.92944335937,0.0009126930436592805,0.030135188375734177,1.0316082232595003,0.97175115581,1.12578153616,0.000696233893932438,0.02632019613268062,Null
0.13052734374570002,0.08325195312,0.20544433593,0.000664260243628268,0.025708732804440727,0.0353881835917,-0.17224121093,0.15783691406,0.009058506194746501,0.0949379463848506,-1.0141113281211,-1.10046386718,-0.93566894531,0.0007442424644663539,0.02721252013584964,1.0277683935854,0.94032565102,1.12353582601,0.000822411890320579,0.028605940482161675,Null
0.1271228027308,0.09045410156,0.16186523437,0.0004397181095672248,0.020916967251955736,0.0639160156215,-0.03283691406,0.15393066406,0.002039506806741667,0.045047855361914385,-1.0117492675738,-1.02917480468,-0.97094726562,9.644132613707039e-05,0.009795872575038176,1.0229155106703,0.97788701833,1.03829193942,8.913608502288952e-05,0.009417558314009799,Null
0.0630480957001,0.04626464843,0.09790039062,0.0001185355159548362,0.010860149095434282,0.04370361327799999,0.01708984375,0.07458496093,0.00017913411609053016,0.013350597196757812,-1.0213574218711,-1.03515625,-1.00695800781,4.8993496441697995e-05,0.006982014677690781,1.02438094316,1.00925639314,1.03843328598,4.488894491759193e-05,0.006683150469127862,Null
0.4729357910119,0.02001953125,0.77856445312,0.055240467354159675,0.23444458837300738,0.0658789062483,-0.14270019531,0.20385742187,0.009850934186240346,0.09900343183601841,-0.8415954589800999,-1.14318847656,-0.45092773437,0.029494579226278045,0.17130997148486907,1.0131035089228002,0.81151357706,1.15390590236,0.004045769202813268,0.06344714616749283,Null
0.3186767578093,0.00451660156,0.56591796875,0.026044976920971782,0.1609805952168364,0.38799499511359997,0.16918945312,0.68762207031,0.027964781546234645,0.16680814619946915,-0.8640881347621501,-1.03344726562,-0.75842285156,0.0025220956320087607,0.05009476174061233,1.02684134751865,0.96473635334,1.08584520922,0.0005923001946741242,0.02427629901160293,Null
0.1604125976523,0.08605957031,0.23413085937,0.0013175323680725175,0.03620697040946888,0.4827380371059,0.30297851562,0.60595703125,0.007287926738223883,0.08515566396037766,-0.8913391113243999,-1.0029296875,-0.82177734375,0.0017433853529899158,0.041649350849982836,1.0311640683406,0.98361152226,1.08588954078,0.00025265299722649996,0.015855274587353176,Null
0.07151733398099999,-0.04370117187,0.12707519531,0.0006623911063319854,0.025672536898411997,0.5461767578088,0.53381347656,0.58288574218,8.623955835914459e-05,0.009263280227184584,-0.8720239257776001,-0.90393066406,-0.84545898437,0.00010495173272654789,0.01021895171056773,1.0317882968723,1.00644070761,1.08304872426,0.00011229334884078118,0.01057033027376994,Null
0.143937988278,-0.0537109375,0.291015625,0.0057345449084013735,0.07553722382944296,0.6258654785113,0.49621582031,0.80297851562,0.006302280670152627,0.07918818893497859,-0.8125903320275001,-1.02551269531,-0.68383789062,0.009087130538168108,0.09508782722029811,1.041530178422,0.90300007685,1.24338016594,0.009007048382777567,0.0946679097733951,Null
0.17854248046560003,0.03955078125,0.35095214843,0.007153170426242869,0.08436471166377359,0.5556970214812,0.45031738281,0.6572265625,0.003278044257133974,0.05711089244485945,-0.8408520507777999,-1.00537109375,-0.7353515625,0.004006435110378488,0.06313796745878501,1.0297698283046,0.93886397003,1.17924271339,0.0016566136386785247,0.04059963756593317,Null
0.048628540035699996,-0.01306152343,0.13916015625,0.00106089650943899,0.032489875759870106,0.34713134765215,0.16174316406,0.48986816406,0.011824033068469993,0.10846618322374786,-0.95765258788685,-1.02563476562,-0.88891601562,0.0014360375125999996,0.037800229166461405,1.02651893938315,0.97002973168,1.07641501198,0.00047398578932755087,0.02171671845332331,Null
0.0319335937479,-0.06652832031,0.12805175781,0.001987634891101684,0.04447130216944604,0.3625134277307,0.18688964843,0.478515625,0.011415195613392857,0.10657447928714403,-0.9616601562453999,-1.13171386718,-0.91394042968,0.0021075350794643464,0.04579298422320852,1.035322475509,1.00210144848,1.17339268635,0.0007700314242123902,0.027679979535601685,Null
0.030743408201599997,-0.04992675781,0.18994140625,0.003586482574627506,0.05973734310926766,0.3417858886680999,0.0107421875,0.44799804687,0.01626827252421353,0.1272278710094312,-0.9569433593706,-1.06823730468,-0.91259765625,0.0009799498049645093,0.03122579151822555,1.0264387534772,0.94221863576,1.1098124085,0.0006606639456275445,0.02563904494905001,Null
0.0487158203105,-0.07629394531,0.17370605468,0.004196923485681511,0.06462150468886578,0.12066406249570001,-0.0185546875,0.31384277343,0.004267884103428835,0.06516551759106722,-1.0178051757778,-1.19006347656,-0.89916992187,0.004622551969538024,0.06781916550423142,1.0302760822273,0.90337372493,1.19514772114,0.0044357187101866785,0.06643447987781453,Null
0.036295166014299995,-0.1005859375,0.1728515625,0.003471153182097741,0.05876901748529791,0.04911743163880001,-0.171875,0.27087402343,0.008906875918621507,0.09414001029864189,-1.0376367187467,-1.29711914062,-0.84582519531,0.01748146599888388,0.13188653710250134,1.0451899787663002,0.84708217219,1.29843200149,0.01779691172483796,0.1330711357365442,Null
0.18646362304340003,-0.04064941406,0.42065429687,0.011284007048035803,0.10596030866695143,0.12950683593780002,-0.236328125,0.97448730468,0.14402177186271045,0.3785520611532804,-0.8780139160123,-1.2470703125,-0.18200683593,0.06317259189962574,0.2507124427309654,1.0161809539150999,0.76975596482,1.25056412603,0.007247625968257529,0.08491989071128296,Null
0.20563964843449997,0.02685546875,0.38049316406,0.008371847957787766,0.09126877186638827,0.8792504882781,0.77502441406,0.96069335937,0.002381855033730866,0.0486820886832335,-0.481625976558,-0.72399902343,-0.35021972656,0.0074919008369579865,0.08633910662482672,1.0314827175976,0.98175597327,1.18254518171,0.0015381372350848485,0.03912092213776951,Null
0.0984472656225,-0.11535644531,0.35571289062,0.011514318791804408,0.10703619573698135,0.5204406738239999,0.25463867187,0.85681152343,0.04804678070331213,0.21864708276077127,-0.8402636718710003,-1.07507324218,-0.58374023437,0.024789077349196432,0.15705136727341934,1.0338058221991,0.94537237466,1.12467322637,0.0017762264255937613,0.04203980605885085,Null
0.0221832275352,-0.00329589843,0.05346679687,0.00019255084866583345,0.013841535117988333,0.2850122070276,0.24755859375,0.31469726562,0.0003557946154834979,0.01881530340988634,-0.9885797119108,-1.021484375,-0.93054199218,0.00022005206639822138,0.01479702017523225,1.0293568710099001,0.96915370466,1.05616677001,0.00017666353526042837,0.013258213212349778,Null
0.02908386230015,0.01721191406,0.03869628906,2.57288387477894e-05,0.0050596634822931115,0.2759326171844,0.22900390625,0.31762695312,0.00035535400235505257,0.01880364944215025,-0.998422851559,-1.0400390625,-0.97534179687,0.00032146482609264095,0.0178845604352519,1.03649396532715,1.0138095255,1.06811630161,0.0002132317164379397,0.014565903949146102,lift up
-0.0406237792964,-0.78869628906,0.24291992187,0.03550200165599744,0.18794810892296165,0.23848876952860004,-0.28369140625,0.74914550781,0.02503592914030645,0.15783139578235034,-0.9772369384728,-1.09033203125,-0.55810546875,0.01483122651557051,0.12147868283362581,1.0402668478252999,0.67592661181,1.16301569498,0.006388357177078295,0.07972713083507335,lift up
0.2210498046851,-0.48767089843,0.77770996093,0.06659031115471778,0.25740504967646655,0.4290686035139001,-0.61633300781,1.29150390625,0.3796365624230502,0.6146042463333091,-0.17935424804629996,-0.91723632812,1.27111816406,0.2688529125546465,0.5172123819011618,0.9678115484868001,0.4336331152,1.41977050163,0.04017690731873739,0.1999400479697444,lift up
0.45362487792675,-0.13244628906,0.75524902343,0.071015236154232,0.26581978852873395,0.5060766601521,0.28674316406,0.80969238281,0.016620742789424187,0.12859875223141579,0.62618713378515,-0.04504394531,1.052734375,0.08618553363764173,0.2928388737334125,1.0084987290065501,0.74895224301,1.18474576929,0.009931820057699417,0.09940905872912649,Null
0.5368371581992,0.26623535156,0.7314453125,0.010338658021012172,0.10142467515800635,0.8389874267537,0.62097167968,1.05224609375,0.012015531332351588,0.10934099723200731,0.26262268066025,0.05493164062,0.44689941406,0.00805756046823799,0.08953922417520045,1.0376061175385,0.81141451622,1.29005087328,0.014771804013514881,0.12123508152942905,Null
0.5216241455039,0.3525390625,0.61767578125,0.005388196448704433,0.07322059455140276,0.8408093261683,0.75708007812,1.00732421875,0.002762878538766265,0.0524315186321399,0.11923034667625,-0.04174804687,0.28894042968,0.010149321435646343,0.10049166546768001,1.0048171028208999,0.84477698555,1.09387830254,0.0021756541025890735,0.04652715155773163,Null
0.44402954101189995,0.21789550781,0.83972167968,0.017838203426348665,0.1332254195310224,0.8973254394494999,0.65478515625,1.10852050781,0.013123815800980609,0.11427246703373349,0.2013159179651,0.03198242187,0.35498046875,0.006999449328601803,0.08345329281675345,1.03358469934205,0.84579124608,1.26099014503,0.012419705428545194,0.11116477365335867,Null
0.43293640136355,0.0126953125,0.72351074218,0.021634490597264164,0.146718499666122,0.9054827880826499,0.49926757812,1.3134765625,0.043356134870500135,0.20770015454050011,0.23539428710625004,-0.0458984375,0.712890625,0.031334446864885325,0.17657229293000898,1.0536797872324002,0.66014565227,1.55800911208,0.04858877436325486,0.2198768530142238,stairs down
0.59597412108975,0.26513671875,1.02392578125,0.030409818791866168,0.17394760618619284,0.66849609374675,0.25622558593,1.16223144531,0.057526360768284,0.23924616812906863,0.40329040527,0.09509277343,0.75024414062,0.03060405974681382,0.17450226201422075,1.0058356467039,0.52657936646,1.52249715589,0.07131409173591206,0.2663785300605747,stairs down
0.5973565673789,0.36376953125,0.97155761718,0.02207763826982688,0.14821352866212228,0.6523461914028,0.31982421875,1.080078125,0.032812974255317824,0.1806900921025866,0.4866510009732499,0.28161621093,0.77001953125,0.013080248565760533,0.11408263374822537,1.016309655847,0.62903329501,1.53325574748,0.05423649145398536,0.23230434562598143,stairs down
0.5714990234341,0.4140625,0.89953613281,0.013551876197468199,0.11612112993112346,0.6683898925749,0.35827636718,0.95764160156,0.01319564702967654,0.11458476685200418,0.51118774413735,0.27392578125,0.70935058593,0.009643746343346768,0.09795676399121213,1.02240517326285,0.64670738683,1.38576785514,0.025694539646919177,0.1598939240518056,stairs down
0.5361297607391,0.4287109375,0.69140625,0.002969715678709185,0.05435868928069954,0.7029388427696,0.60144042968,0.83813476562,0.0028719578462015672,0.05345650621739658,0.49679626464439997,0.40698242187,0.69604492187,0.0036550030183321335,0.060305290010416776,1.01702364552235,0.91565137506,1.17767251581,0.0034942343720525642,0.05896408398501839,stairs down
0.60243713378485,0.55700683593,0.70849609375,0.001161546080799066,0.03399615199394,0.7142810058556001,0.58642578125,0.80529785156,0.0013997532000129755,0.03731962531983555,0.3869512939413,0.31262207031,0.47802734375,0.0014036658117439836,0.0373717471184485,1.0128402507004999,0.91421841652,1.12170293917,0.0009637449285714833,0.03096653361176588,stairs down
0.5800616455035,0.44226074218,0.68591308593,0.004389853285414352,0.06609012043405035,0.73356323241805,0.59204101562,0.92553710937,0.004347729885078143,0.06577226798319145,0.3735803222615,0.22448730468,0.61938476562,0.009407921998054146,0.09675165315416515,1.0153228428552,0.94847308411,1.11956563339,0.0013297368274582625,0.03637427859519651,stairs down
0.5651306152308,0.23840332031,0.77075195312,0.013401733533558356,0.11547607919344406,0.6523986816369499,0.45617675781,0.88439941406,0.01327300936585784,0.11492016497999187,0.48215209960604993,0.23376464843,0.76220703125,0.014789240083441457,0.12130661104418114,1.00316473591755,0.79287083025,1.28388385918,0.01244670845102943,0.11128555570591488,stairs down
0.5463580322224,0.34802246093,0.81469726562,0.01251671646360956,0.11159808636930793,0.6660491943322,0.4140625,0.94848632812,0.013076682177118716,0.11406708011618918,0.5091363525347,0.36108398437,0.71630859375,0.006054377900001008,0.07761511457506845,1.0051110950814999,0.70038333001,1.43193749007,0.02270319429190449,0.15029863046762923,stairs down
0.52713867187115,0.28552246093,0.82373046875,0.017181058589162267,0.13074843515781157,0.6686480712851499,0.28137207031,1.19213867187,0.03094306267369297,0.17546608606885977,0.5437133789021,0.36303710937,0.77404785156,0.01101653854446919,0.10469697155002547,1.01822079400725,0.70580961794,1.59185569982,0.04287540922157318,0.20654547241579832,stairs down
0.49126403808194996,0.15441894531,0.77209472656,0.0190520715740567,0.13768373620797197,0.6566247558558999,0.28527832031,1.18859863281,0.056216429452774566,0.23650654812395935,0.5621795654256999,0.29516601562,0.89001464843,0.024255303347809593,0.15535130134978126,1.00245639255835,0.55345088496,1.50696034637,0.08306498017096581,0.28748853067576624,stairs down
0.5320831298797,0.27526855468,0.86755371093,0.01716293528418556,0.13067945748190352,0.6191864013634999,0.28588867187,1.17980957031,0.05014451985358205,0.22336919495381216,0.6226104736291,0.28869628906,0.984375,0.03029524208281968,0.17361960106049543,1.03592193486425,0.58544294466,1.59192809517,0.07852109267578226,0.27951473523305237,stairs down
0.48272521972259996,0.30603027343,0.68786621093,0.0072504124716502956,0.0849362137682864,0.6054107665976,0.37634277343,0.88146972656,0.013827230453762093,0.11729490313518863,0.67417785644165,0.46826171875,0.85632324218,0.01011894316490776,0.10034116029368616,1.0354768863158,0.85593121365,1.33806701945,0.012954610304281085,0.113533419100984,Null
0.58556945800375,0.47570800781,0.64892578125,0.0017409693771449678,0.04162048210027417,0.6295153808552499,0.49938964843,0.86059570312,0.004921613924228539,0.06997860997910288,0.5212237548790499,0.26977539062,0.78820800781,0.012450912291868817,0.11130434731136728,1.0138219527505499,0.95075494765,1.15801661438,0.0020486269048836125,0.04514846365447217,Null
0.4898187255825999,0.29406738281,0.76306152343,0.01517801924221533,0.12289072034130263,0.65193115233965,0.38110351562,0.9990234375,0.020868256098203836,0.14409689385171637,0.5944628906217999,0.3388671875,0.86486816406,0.015889935373690666,0.1257397538442883,1.01622820140975,0.70515210088,1.34595913936,0.037466846201860415,0.19307903037577934,Null
0.5696386718709501,0.3017578125,0.83984375,0.017116024709846894,0.13050074553924074,0.6107604980428999,0.32348632812,0.83508300781,0.02051804888660551,0.1428826743946672,0.49605102538635004,0.05895996093,0.88012695312,0.044976721419549726,0.21154630181700643,0.9909305299072999,0.59699671637,1.44165788433,0.04405793787912317,0.2093744210492952,stairs down
0.47851745605069995,0.20031738281,0.9833984375,0.025838934518552868,0.1603425702861224,0.43244445800434994,0.03234863281,0.85144042968,0.03798173095059643,0.19440118902888287,0.7237878417931001,0.3505859375,1.13659667968,0.045133379342641666,0.2119143988640896,0.9899366482407999,0.61947087526,1.4229545425,0.06863388139761295,0.2613249165131884,stairs down
0.4373999023399,0.19970703125,0.69384765625,0.013425857391783971,0.11557996411500157,0.42406860351199993,0.10607910156,0.67443847656,0.02325514990940588,0.15211467437383827,0.84241821288725,0.54125976562,1.16345214843,0.03553859630280397,0.18804495026798765,1.0457376156045,0.71038961783,1.47520502956,0.05940969382373848,0.24313092225099586,stairs down
0.42857299804345006,0.2216796875,0.68884277343,0.013582524089561846,0.11625236113350144,0.43238220214479994,0.23010253906,0.69543457031,0.010809797877838902,0.10370992666302348,0.8131427001915499,0.51147460937,1.12963867187,0.02220357250297192,0.14863564390971992,1.0232543261124498,0.73444083101,1.48215224335,0.031300234523307116,0.17647587186550626,stairs down
0.50660705566065,0.29846191406,0.89819335937,0.018326891717173745,0.13503798450283488,0.454047851559,0.12573242187,0.69091796875,0.01577387273007171,0.12527970053612578,0.7520788574174,0.3896484375,1.10314941406,0.028126235869414498,0.16728898556111643,1.01986620380015,0.63723164361,1.5545609437,0.05047392943674022,0.22410167288433286,stairs down
0.4769879150356499,0.32666015625,0.6923828125,0.009704407432072348,0.09826436482729631,0.5033453369101499,0.32250976562,0.7138671875,0.008471322883057726,0.0918094018532004,0.7433032226524,0.60217285156,0.95495605468,0.00792090258401318,0.08877667526492031,1.0214183987846,0.83939556316,1.24612362745,0.01612490899022173,0.12666603508940597,stairs down
0.4895672607387,0.34326171875,0.72814941406,0.008340993849661135,0.09110043293208232,0.5514733886677999,0.24475097656,0.76574707031,0.013662047288814098,0.1165921826383314,0.6862744140582001,0.54479980468,0.85961914062,0.006462461361396774,0.08018821019694722,1.01516028747,0.80677232752,1.24085665132,0.012607375196915266,0.11200151035111397,stairs down
0.47743347167624994,0.23010253906,0.7978515625,0.019179312829092153,0.13814273873405974,0.54595886230065,0.26354980468,0.8193359375,0.01567297200433903,0.12487836940125914,0.6918206787065999,0.43688964843,1.05322265625,0.024097268290841283,0.15484437977978754,1.0076998804337998,0.63928386985,1.50625318234,0.04806573570071511,0.21869020787911728,stairs down
0.5586468505819,0.35009765625,0.7939453125,0.009755668415093692,0.0985235508546978,0.6423693847624,0.38623046875,1.01904296875,0.026537794652062394,0.16249647897355216,0.5558837890596,0.32629394531,0.7822265625,0.015927204384866948,0.12588712548526404,1.02401525574065,0.75058866287,1.44984870647,0.03727018815209755,0.19257164176310348,stairs down
0.5577496337847999,0.40026855468,0.85290527343,0.009243780910333562,0.09590392070078206,0.6265264892539499,0.33935546875,1.06274414062,0.03428752907482066,0.1847054179753441,0.56081115722275,0.3857421875,0.81066894531,0.01050262202246452,0.10222577420764392,1.01579686896125,0.77627263483,1.46461906744,0.04025098808818958,0.20012429424672218,stairs down
0.5307928466763,0.31884765625,0.82287597656,0.01735715051349063,0.1314167598174722,0.63096679687125,0.36535644531,0.98291015625,0.02253316433600987,0.14973476054119772,0.5791662597625,0.3740234375,0.89440917968,0.015704372406735882,0.1250034021325108,1.01392522614975,0.71786305393,1.48333142388,0.04277995063559698,0.20631541600767256,stairs down
0.5312329101524,0.30908203125,0.70959472656,0.010936189542445523,0.10431446972847677,0.673366699215,0.51794433593,0.76513671875,0.003518586955546835,0.0591691982434197,0.5317797851520001,0.36901855468,0.720703125,0.01109366836854885,0.10506283846682472,1.0203391485064,0.88338189625,1.19319214718,0.002763397999935855,0.052436447342818486,Null
0.5693261718708,0.28527832031,0.66748046875,0.006997785879765702,0.08344337571291609,0.7188500976526001,0.607421875,0.9169921875,0.003996880024567026,0.063062632552441,0.40328124999639997,0.22473144531,0.66845703125,0.00855852278044409,0.0922807139468582,1.0095073649624,0.84941925903,1.24622270162,0.003883238494580948,0.062159651721257606,Null
0.40775451659819995,0.19445800781,0.62634277343,0.009723963590283213,0.09836332534197793,0.7226458740198498,0.48876953125,0.89672851562,0.01011879282019949,0.10034041486907701,0.5872351074182499,0.431640625,0.7578125,0.005784311532653592,0.07586428655823715,1.026427167019,0.9216089107,1.20644746014,0.005321585262536878,0.07276659491981327,Null
0.4906420898405999,-0.0478515625,0.74560546875,0.05889492934002169,0.24207530789678156,0.4956054687464,0.20739746093,0.84814453125,0.022107937827308886,0.1483151986081411,0.6115429687460001,0.21752929687,1.15673828125,0.06093985744453081,0.2462420722730138,0.9955152870623999,0.76992158623,1.20747071818,0.010574440012537578,0.1025746938210146,Null
0.3903906249956,0.01489257812,0.77270507812,0.05373787690640051,0.23123405355152277,0.6644140624964,0.27978515625,1.13159179687,0.07621997782921468,0.2753885944262554,0.44911621093579995,-0.23278808593,0.87622070312,0.12337968957901373,0.35037521477855516,1.0198872430134,0.81809008043,1.26719968463,0.007494598579684413,0.08635465005884739,Null
-0.022055664062,-0.12341308593,0.12219238281,0.0032123269983764377,0.056535523022119075,1.0208349609336,0.9697265625,1.05529785156,0.00024184955422808666,0.015512585421423027,-0.047841796871,-0.07409667968,-0.02294921875,0.0001659691872737663,0.012850655288248825,1.0238311810478,0.97128733472,1.05698146716,0.00025232666721573555,0.015845031835867572,Null
-0.07952392577839999,-0.21203613281,0.05078125,0.004410247832648355,0.06624346453413434,1.0118969726522,0.98059082031,1.08337402343,0.0003346409689627153,0.018247404311789162,0.013139648437,-0.033203125,0.1005859375,0.001305947207757825,0.03604743363568391,1.0179117618464,0.98819009262,1.09011045904,0.00030996514260819055,0.017561757226859435,Null
0.0613281249982,-0.07702636718,0.39685058593,0.008327282852420482,0.09102552629981536,0.9974755859334001,0.72546386718,1.18823242187,0.010420920525188998,0.10182738297021608,0.1694189453092,-0.01440429687,0.38549804687,0.010923443511510214,0.10425366321598806,1.0230731198999998,0.73054869107,1.23225035282,0.010317731126760226,0.10132197427570401,Null
0.0989770507788,-0.11169433593,0.40124511718,0.01154878192758764,0.10719625934681537,0.9410302734334002,0.45568847656,1.17712402343,0.018573847751574182,0.13594476272669098,0.3341333007776,0.02551269531,0.94287109375,0.02970255157464856,0.17191288147423775,1.0259954111664,0.61149771534,1.33070585027,0.013908508947013652,0.11763913635469525,Null
0.2755761718718,0.01342773437,0.6328125,0.024397910084776705,0.15580731861614466,0.4687036132778,0.27111816406,0.62036132812,0.010372524219618158,0.10159065704345094,0.8205346679646,0.5634765625,1.02893066406,0.011969234889519969,0.10913014576675122,1.0054052714312,0.84012922713,1.16388039156,0.0045916140324651945,0.06759183354742546,Null
0.33665039062100005,0.25537109375,0.39245605468,0.0009618244937629702,0.030935665037205122,0.5984716796834,0.51025390625,0.63916015625,0.0005852483864085167,0.0241313518990643,0.7482153320272,0.69445800781,0.841796875,0.0009007315480191244,0.02993706549211243,1.0166513566412,0.97782463909,1.05205289478,0.00018452705308074653,0.013550070767909029,Null
0.30989990234,0.27258300781,0.38256835937,0.0010602062371612916,0.032479304271727946,0.6273852539029999,0.60815429687,0.6640625,0.00028110222001330324,0.016724135520655072,0.7283593749965999,0.65356445312,0.76293945312,0.000999317720290392,0.03153285796893361,1.0111502815502,0.98961404786,1.03569573073,6.192623057470156e-05,0.007849624157998144,lift up
0.32094970702700004,0.27404785156,0.3876953125,0.0011425439376898034,0.033716927766351344,0.6290624999968,0.56408691406,0.67065429687,0.0009749505028667743,0.03114603907967176,0.7580737304646001,0.65881347656,0.83923339843,0.0032306867688409557,0.056696854718729775,1.0382172036822,0.99073737346,1.08678962701,0.0008347763287788618,0.028820174307851915,lift up
0.2886376953086,0.24768066406,0.33288574218,0.0004005457528113291,0.01996354237221622,0.6021044921838,0.57385253906,0.69909667968,0.00044572602561265265,0.02105937785131815,0.7681445312463999,0.66906738281,0.79956054687,0.0006511455564418415,0.02545368006123343,1.0183128656558,0.91558921503,1.05606646636,0.00041848988320071506,0.020405818625693788,lift up
0.2098730468712,0.03369140625,0.30017089843,0.007799750021188023,0.08809512626179772,0.6030908203086,0.56311035156,0.66979980468,0.00065267160311345,0.02548348965698934,0.7553247070277999,0.69177246093,0.81579589843,0.0010177567316088012,0.03182244409140752,0.9935420399730002,0.94423981959,1.0423472049,0.0005805916195810116,0.024035154700627715,lift up
0.2936889648396,0.27685546875,0.32458496093,0.00015469307275422462,0.012406434112606793,0.6050610351522,0.583984375,0.61486816406,3.4172097641070465e-05,0.00583105797886328,0.7650781249968,0.74145507812,0.79174804687,0.00014767050144350022,0.012121557199315718,1.0188101380166001,1.0016009063,1.03594627462,5.7645574884453255e-05,0.007573463343149618,lift up
0.304819335934,0.20275878906,0.32556152343,0.0004917286388711452,0.022119448358329134,0.613647460934,0.55712890625,0.69836425781,0.0005559561839706836,0.023519702443926243,0.7524438476524,0.71826171875,0.80041503906,0.00024450094258318927,0.015597385610103808,1.0180304670081997,0.93134507103,1.09418300504,0.0005522319823582796,0.02344079398071849,Null
0.3300048828087999,0.13562011718,0.59497070312,0.012947383238528773,0.11350174589994698,0.6789624023392,0.51818847656,0.87133789062,0.005272908072926334,0.07243302791242198,0.6770458984334,0.53332519531,0.89636230468,0.009395016353915701,0.09668526915795458,1.0232958916561998,0.89346149563,1.21762168446,0.008670416384017303,0.09288199126901413,Null
0.420346679683,0.17443847656,0.63171386718,0.015594701814787502,0.12456616035550573,0.6437890624958,0.49267578125,0.77416992187,0.00431022382857248,0.065487958507115,0.6382739257778,0.39184570312,0.88293457031,0.01624177197722983,0.12712420350721446,1.0160183527012001,0.89317110093,1.09373241137,0.002233129193572309,0.04713770834061037,Null
0.4502612304652,0.30578613281,0.55090332031,0.0029089553930795407,0.05379972691486587,0.7340844726515999,0.66564941406,0.79467773437,0.001166616786004067,0.03407027593187421,0.5257397460902,0.38513183593,0.66772460937,0.0032239966716196616,0.0566381204513494,1.0124030818276,0.97250783316,1.04926495539,0.00032215093835496203,0.01790363604587591,Null
0.37287170409799997,0.16796875,0.70776367187,0.019086404298627204,0.13780773663744017,0.69752197265305,0.42004394531,0.87915039062,0.01005875150752126,0.10004227981200577,0.6226147460897999,0.47033691406,0.85070800781,0.010317079511884404,0.10131877473758248,1.02052539674265,0.81159597318,1.2432250542,0.011067508387720923,0.1049388910070157,Null
0.33415527343419993,0.09606933593,0.6162109375,0.01311079401471603,0.11421576092922749,0.5503100585898,0.24035644531,0.80334472656,0.01705673831786382,0.1302745356018378,0.7940722656212,0.51245117187,1.1416015625,0.019768193714614895,0.14024746966003282,1.0293953426442,0.7064504398,1.44726520286,0.03525924255273874,0.1873044215708082,stairs down
0.3209912109346,0.18859863281,0.45153808593,0.0039763811005121864,0.06290070901833798,0.5377758789024,0.31164550781,0.869140625,0.020792996590056737,0.14383682284834595,0.8081445312472002,0.59741210937,1.07775878906,0.019889169266647508,0.1406759518194715,1.0269222195388,0.78046809168,1.37175729785,0.035378739750612745,0.18762155007317172,stairs down
0.29183837890159997,0.08471679687,0.50122070312,0.00624511817592717,0.07882824738028579,0.479018554684,0.1640625,0.83459472656,0.024084295244066554,0.15480269302517388,0.8565795898398,0.63806152343,1.19604492187,0.025314581004906512,0.15870730323423046,1.0322975649772,0.67942936698,1.48268243763,0.03827590015902065,0.19515255739606782,stairs down
0.2541577148394,0.08312988281,0.46899414062,0.008059345543677158,0.08954914190520628,0.4303393554646,0.13073730468,0.64965820312,0.013494124730066462,0.11587344003876009,0.8715234374962,0.6494140625,1.17919921875,0.020037940543123852,0.14120110070537067,1.0120577030620002,0.72928333484,1.39421967089,0.026596850669752953,0.16267718468305317,stairs down
0.248959960933,0.08288574218,0.49938964843,0.011571257102439642,0.10730051638704934,0.45842041015160007,0.14624023437,0.75756835937,0.012945357812767802,0.1134928677217382,0.8797045898396,0.71044921875,1.12231445312,0.007878001137609914,0.08853593130431206,1.0317699527554,0.84680886696,1.39716459127,0.013762721150039722,0.11702097053216369,stairs down
0.2665844726526,0.07080078125,0.4775390625,0.0085572399744326,0.09227379787653935,0.5237915039027999,0.3173828125,0.69311523437,0.008298754242691022,0.09086946941342602,0.8279663085906,0.66552734375,0.99670410156,0.008700578206627795,0.09304340554598513,1.0218635720736,0.85313724886,1.2260914949,0.012237847650243213,0.11034789717974691,stairs down
0.2812011718716,0.10510253906,0.46032714843,0.007641838423439067,0.08719879145562667,0.5862084960903999,0.43212890625,0.71948242187,0.0051212707895107856,0.07138392280873357,0.7745605468704001,0.615234375,0.9345703125,0.006511738551900793,0.08049335288793286,1.015936793993,0.85451340131,1.23947682711,0.009758236039579836,0.09853651536045882,stairs down
0.23567138671485005,0.11108398437,0.39978027343,0.005104170756015709,0.07126464693124937,0.5666033935506999,0.25183105468,0.88732910156,0.013952665993558815,0.11782573005753463,0.8000115966761001,0.52099609375,1.06591796875,0.01433525720388263,0.11943023452151141,1.0125218972214,0.70740328532,1.44338432775,0.024591870034451114,0.15642541572352894,stairs down
0.2492114257775,0.076171875,0.46081542968,0.0076251049196748855,0.08710326856712387,0.533182373043,0.13952636718,0.86560058593,0.024495083050322827,0.15611728807236952,0.8362670898401001,0.54235839843,1.18200683593,0.024416331220493904,0.15586612705906128,1.0288827679254502,0.63955912658,1.52223861666,0.04360453233644945,0.2082942862268843,stairs down
0.2674707031212,0.05358886718,0.48046875,0.006518741133277326,0.0805366216550641,0.4400073242144,0.18029785156,0.73327636718,0.02419413406648963,0.15515528800578207,0.8905493164032001,0.57250976562,1.26708984375,0.040963400482574026,0.20188755157305058,1.0351383191184,0.67943372044,1.45464566351,0.05832327832655598,0.2408976171217208,stairs down
0.26194152831655004,0.119140625,0.43298339843,0.004387967915531702,0.06607592659928457,0.3886285400353,0.16101074218,0.61413574218,0.01195999858625097,0.109088031393548,0.9013616943322501,0.64343261718,1.27709960937,0.02769169605211592,0.16599167922475916,1.0208389127547501,0.71120185967,1.43476101391,0.03553129277470583,0.18802562673963436,stairs down
0.29803710937000005,0.12829589843,0.47302246093,0.007993704254395561,0.08918371899132478,0.5246142578090499,0.37219238281,0.69934082031,0.00536687245931774,0.07307556429492112,0.8158630371058,0.68334960937,1.00732421875,0.007455937789083075,0.08613163240144506,1.0215182360301,0.84871178052,1.21217301619,0.006926290214871191,0.0830160151042968,Null
0.38768615722294997,0.16870117187,0.62109375,0.014121596079087743,0.11853686388078734,0.58074768065995,0.40515136718,0.75756835937,0.007058914129631795,0.08380703764591393,0.71758911132425,0.56359863281,0.85900878906,0.0063953089639171975,0.07977049842578152,1.01325610470545,0.92459318326,1.17190814289,0.0032689086842257586,0.05703125582349235,Null
0.34089904784835,0.10766601562,0.48291015625,0.009265253726285434,0.09601524596465921,0.58899291991825,0.47058105468,0.701171875,0.0027868687672627525,0.05265865952933514,0.7538305664021999,0.64758300781,0.91577148437,0.004353172150137246,0.0658134202833021,1.0221082186557,0.92285785975,1.20326918815,0.0033506238598170262,0.05773968081413285,Null
0.42361938476155003,0.38732910156,0.45703125,0.00031335653221497287,0.01765756918587318,0.6093371581999,0.57336425781,0.69555664062,0.000572941768994738,0.023876286565330133,0.68658813476125,0.61450195312,0.75817871093,0.0009186204818651492,0.030232885728223555,1.01181892594635,0.97777453167,1.04391503,0.00016761567138086228,0.012914239932104327,Null
0.41690734862945,0.35314941406,0.4697265625,0.000725253472625483,0.026863119797639955,0.56667846679335,0.51965332031,0.619140625,0.0007221741757341445,0.0268060311283762,0.72620910644115,0.66345214843,0.79760742187,0.0012821859747016383,0.03571799329229079,1.0123314486442498,0.97989192271,1.04644294619,0.0002179818987189436,0.014727253281768087,Null
0.440178833004,0.40307617187,0.50915527343,0.0005446215965903121,0.023278713207721784,0.56761901855055,0.52526855468,0.61340332031,0.0005419037266392269,0.023220555721300704,0.7104876708948501,0.63024902343,0.75439453125,0.0011879601936262598,0.03438052344944923,1.0113644825005,0.98022514143,1.03882173028,0.00014721845898527927,0.01210298998968242,Null
0.37138183593375,0.154296875,0.43298339843,0.006306950327216411,0.07921752063514945,0.56008972167635,0.49194335937,0.61804199218,0.0008896712078894311,0.02975269486701976,0.7566864013635499,0.69970703125,0.88500976562,0.0023062099519592905,0.04790280683007515,1.0165985992720998,0.99141778901,1.05217657368,0.00018279365645344466,0.013486277773024602,Null
0.27621887206625,0.09997558593,0.46569824218,0.008071726422430387,0.08961789882784708,0.57086059570045,0.41003417968,0.759765625,0.006638590413526579,0.08127359633644217,0.79796569823965,0.62646484375,0.98364257812,0.008948914530946277,0.09436190946717614,1.0237398958699,0.80740520642,1.2653049547,0.014497991345741262,0.12010620878627615,Null
0.3289532470659,0.15270996093,0.57556152343,0.009489788763227298,0.09717170277097732,0.6042700195272999,0.44873046875,0.81372070312,0.009214417832632382,0.09575147906674455,0.74156311034785,0.57043457031,0.916015625,0.009479281467552284,0.09711789258532397,1.01640372310125,0.80579752423,1.25562720281,0.018326014246249547,0.13503475173087223,Null
0.4105688476529001,0.24072265625,0.58544921875,0.005894517113796593,0.07658357871128517,0.6676501464811,0.439453125,0.92199707031,0.007867033875414127,0.08847428273818927,0.63753479003575,0.40966796875,0.82531738281,0.010616584875180328,0.10277889837317983,1.0196005545973001,0.8267529836,1.19721716554,0.005472421625568587,0.07379064654440116,Null
0.5946246337855999,0.36340332031,0.69250488281,0.004510906589969019,0.06699516443012267,0.55300598144155,0.2294921875,0.80163574218,0.029537182422936913,0.17143365046227718,0.5544384765582,0.39111328125,0.84289550781,0.012838100045085775,0.11302172156209772,1.005150864636,0.86444584584,1.11345618362,0.0031352686837274974,0.05585331091626404,Null
0.50776306151975,0.31018066406,0.62548828125,0.009299517740810162,0.0961926200501167,0.56092895507455,0.259765625,0.79370117187,0.011532297132841936,0.1071197257613075,0.6373181152306999,0.50561523437,0.87573242187,0.007133287579194927,0.0842473806198089,1.00215205492165,0.8528862647,1.16670830757,0.0021663668789678567,0.04642774003301278,Null
0.59777465819915,0.52429199218,0.65783691406,0.0008032663248995013,0.02827100976751633,0.5164013671835499,0.39758300781,0.69311523437,0.0016875508202843187,0.04097698215075016,0.6579357910121498,0.4892578125,0.73278808593,0.004016094829257782,0.06321403606092157,1.0304300417923,0.8871827277,1.08319247763,0.0015806286403794506,0.039657603270716615,lift up
0.62524536132425,0.5498046875,0.70275878906,0.003019095663708747,0.05480876011542501,0.4915722656218,0.36584472656,0.72546386718,0.006943996204133515,0.08312205617712333,0.10099914550770002,-0.63696289062,0.66052246093,0.314049584728936,0.5589985123462238,0.98164228601255,0.85324844962,1.03923013955,0.0015546905610221953,0.03933086711753358,lift up
0.4779406738246,0.17602539062,0.68664550781,0.01874173070768128,0.1365577608711525,0.7000219726525999,0.52490234375,0.82397460937,0.005485159721729358,0.07387647746827614,0.5136132812463999,0.03540039062,0.74975585937,0.043228955867862386,0.2073953015102393,1.0235388587681,0.91511088346,1.11243817045,0.0017521851502304026,0.04175433180496666,Null
0.49569702148175,0.2998046875,0.8017578125,0.011608136621279713,0.10747137264487373,0.70897216796555,0.48937988281,0.91125488281,0.008057028055228281,0.08953626592030818,0.52133911132435,0.32312011718,0.68200683593,0.009564613036359451,0.09755403616036423,1.0194102737917001,0.83543610019,1.20580373153,0.010088305090293603,0.10018913895648637,Null
0.5308453369096,0.35864257812,0.65014648437,0.0038330760997848084,0.06175686779043999,0.55256530761325,0.45788574218,0.6865234375,0.003384571081173597,0.058031441699889975,0.6561462402307001,0.52844238281,0.82214355468,0.004153059917135503,0.06428292633001259,1.0136550995681999,0.9117954784,1.13584433675,0.00147766045348571,0.03834412798875835,Null
0.5748461914028501,0.54064941406,0.71423339843,0.0019413523398198911,0.04395049007827776,0.49461608886279995,0.41979980468,0.71948242187,0.0035644081365492743,0.05955322070103789,0.6457427978477,0.13488769531,0.75439453125,0.018309758826328633,0.1349748496283548,1.00755522968145,0.94070463033,1.07431292727,0.0006089255824452502,0.024614649185658203,Null
0.5584259033166,0.25219726562,0.72021484375,0.013319760177261794,0.11512237565467229,0.6062835693318,0.42236328125,0.74108886718,0.010520465849734357,0.10231257752830629,0.5416156005824999,0.13903808593,0.94384765625,0.03497739499828047,0.18655430314867857,1.0109065168159002,0.80550788984,1.30763414983,0.009405288356284503,0.09673810993865387,Null
0.49655334472315,0.2763671875,0.80432128906,0.01854154706862096,0.13582650453161876,0.5143707275356,0.2705078125,0.78857421875,0.012297982836811803,0.11061868252075571,0.7045178222617001,0.26147460937,1.00891113281,0.035638680887844144,0.18830955228932209,1.0328638662892,0.8711553988,1.26906459741,0.006860185770155568,0.08261891333892495,Null
0.5237951660116,0.43371582031,0.58093261718,0.0008881828158714049,0.029727796786712057,0.6167944335902,0.40441894531,0.73498535156,0.00983071823816586,0.09890179294115467,0.5760363769492,0.45715332031,0.75610351562,0.006446802554634152,0.08009100162852867,1.0007510879463002,0.87221930791,1.08282736125,0.002202805913083484,0.04681657701624572,Null
