avg_accX,min_accX,max_accX,var_accX,std_accX,avg_accY,min_accY,max_accY,var_accY,std_accY,avg_accZ,min_accZ,max_accZ,var_accZ,std_accZ,avg_magnitude,min_magnitude,max_magnitude,var_magnitude,std_magnitude,Label
-0.7052929936588774,-0.72265625,-0.68493652343,5.725146331556021e-05,0.007547142771468538,0.5944232551380101,0.58422851562,0.61499023437,7.870143454008846e-05,0.008848722880097528,-0.4342620226764285,-0.46118164062,-0.38720703125,0.00031749933747071235,0.01777299757755512,1.0197012648514796,1.00834228577,1.02986637408,2.1295306737228067e-05,0.004602896611163294,Null
-0.7096545410112499,-0.71667480468,-0.69677734375,1.6150461067637533e-05,0.004008704125063278,0.5874432373007,0.57263183593,0.59741210937,2.5318087877655958e-05,0.0050191132123381796,-0.43763183593390004,-0.45043945312,-0.41955566406,5.02535086822511e-05,0.0070712262825368445,1.0199583209360998,1.0113407003,1.02879099566,1.5716573730009427e-05,0.003954489962227668,Null
-0.7045849609339,-0.78588867187,-0.65600585937,0.0007451287226470991,0.02722871791021134,0.5920532226529001,0.40490722656,0.74768066406,0.0030340311215341963,0.05494416225520711,-0.4435620117151,-0.54931640625,-0.35424804687,0.0010516931723362284,0.03234864303915308,1.0234506635854999,0.9411855336,1.17466960837,0.0010750571106720457,0.032705990661019355,Null
-0.9575659179645,-1.47082519531,-0.40307617187,0.08120604848754075,0.28425344016406034,0.4464147949183,0.09985351562,0.99536132812,0.054872856803664105,0.23366320317851885,-0.14413574218679998,-0.68273925781,0.14782714843,0.054945069676057216,0.2338169034259006,1.1353596192965,0.60143824941,1.48881305995,0.03821221960607524,0.19499014977184068,Null
-0.9976794433557999,-1.45654296875,-0.56591796875,0.06424759395602887,0.25283661915602484,0.2947363281216,-0.03979492187,0.70556640625,0.02651089623930874,0.1624141057855265,0.12099731445050001,-0.04516601562,0.35729980468,0.012420311733088751,0.11116748703835716,1.0707769794620001,0.65327812708,1.49585649287,0.05323989254860899,0.23016014660637046,stairs up
-0.9579553222617,-1.30187988281,-0.58874511718,0.03270067229782317,0.18038062239701372,0.36003906249599993,0.09143066406,0.82092285156,0.018423751167430037,0.13539435886178156,0.1086010742174,-0.12414550781,0.39465332031,0.018846505616047192,0.13693893926844533,1.0479251133182002,0.68508881701,1.39744024041,0.03072839256947011,0.17485637136410773,stairs up
-1.0898986816365,-1.41540527343,-0.82543945312,0.02116815270339231,0.14512860482990714,0.3298742675744,0.10510253906,0.58459472656,0.01559202337249993,0.12455546256843748,0.0533361816398,-0.20983886718,0.25146484375,0.015274264181280656,0.12327973418358044,1.1526968310718,0.85176679802,1.46601321014,0.022718794579535136,0.15035025974915195,Null
-0.9922290039025,-1.09020996093,-0.91101074218,0.0014597303963525298,0.03811078252110244,0.2695788574181,0.1171875,0.40673828125,0.0051891644680934195,0.07185554011871981,0.0154980468758,-0.2265625,0.26037597656,0.012476713788626772,0.1114196132630321,1.036746953455,0.95084774283,1.13504592795,0.001625207156314695,0.040212947175420025,Null
-0.8584997558557,-1.09533691406,-0.68872070312,0.01784997611047707,0.1332693746887284,0.44976562499619993,0.26721191406,0.6826171875,0.02572666145449916,0.15999383784142018,-0.1717675781224,-0.37878417968,0.01037597656,0.027135254533801615,0.16431548393603265,1.0185525412916,0.9148472083,1.15347643642,0.0017327662247398484,0.04152231199748094,Null
-0.7188635253876001,-0.8369140625,-0.63562011718,0.0017084381254474851,0.041229794261192325,0.6403552246054,0.51550292968,0.85827636718,0.004037771181495757,0.0633844012797177,-0.3430993652307,-0.42663574218,-0.19116210937,0.003337803214973258,0.057629108954576,1.0248440744771,0.89181922854,1.20767582962,0.0032864037217062462,0.05718366640132228,Null
-1.0807250976526002,-1.56616210937,-0.58374023437,0.07896226330022453,0.2802988619022978,0.38167602538650003,-0.14074707031,0.87622070312,0.0570901304914681,0.23833732363818041,-0.07899780273490001,-0.67236328125,0.13500976562,0.050724169827991474,0.22465651332389966,1.1973925030215,0.58599128476,1.64086892267,0.07233955014891814,0.2682868845064431,Null
-1.0699523925745,-1.62072753906,-0.58630371093,0.05306392080674773,0.22977946209945307,0.2564355468717,-0.17724609375,0.78247070312,0.034107781858349964,0.18422063659931862,-0.0126867675784,-0.28662109375,0.21411132812,0.010429192803290872,0.10186779098063538,1.1158930855032,0.58775925039,1.78671271502,0.06292842096742877,0.25022745425430765,stairs down
-0.8361584472617,-1.36791992187,-0.38647460937,0.0504721974293948,0.22409782783920024,0.5334619140586,0.19104003906,1.09326171875,0.05698529927550582,0.23811840075711976,0.034270019529700005,-0.265625,0.30883789062,0.016231021874475227,0.1270821260646156,1.0417847860018,0.78258788946,1.39993894414,0.022785459859023624,0.15057068957711692,stairs down
-0.8417700195275001,-1.33923339843,-0.33288574218,0.09618625167009218,0.3093627650699769,0.6250769042941,0.09130859375,1.10717773437,0.07878241277071633,0.27997946479494307,0.023887939451700008,-0.26940917968,0.34313964843,0.01597512148491172,0.12607634939784368,1.1201369249542,0.73657436958,1.45409993311,0.035327509606587995,0.1874856582743199,stairs down
-1.1107092285114,-1.4189453125,-0.77709960937,0.018385218991337004,0.13525270014450846,0.3186010742153,0.04040527343,0.61499023437,0.029833353937852712,0.17229099560964714,0.054317626950100006,-0.06066894531,0.2041015625,0.003147505771709826,0.05596220369902597,1.1687812298226,0.78051080065,1.47262435595,0.023308265841189044,0.15228829407404595,stairs down
-1.0966564941366999,-1.52416992187,-0.68957519531,0.03467969160417616,0.18575869601758965,0.3216882324184,-0.00537109375,0.75036621093,0.03158071917353198,0.1772648176533187,0.0580993652323,-0.21899414062,0.24951171875,0.008223463654407263,0.09045632280905093,1.1608654520034,0.7005638738,1.56412615079,0.03619816950118175,0.18978192393817658,stairs down
-1.0230310058556,-1.57775878906,-0.49865722656,0.0607110339957707,0.24577932953320514,0.3340588378873,0.02160644531,0.79064941406,0.033408951188773565,0.18232363103237523,0.0387072753895,-0.22033691406,0.36181640625,0.022558512128269134,0.14981895596895536,1.0973289175317,0.50374869907,1.6573424605,0.07201040287060342,0.2676758316625735,stairs down
-0.9990161132774,-1.41076660156,-0.63439941406,0.026181329081271118,0.16140143257067072,0.27742431640199994,0.08227539062,0.51245117187,0.009426400655453982,0.0968466243716151,0.0107531738269,-0.20300292968,0.2431640625,0.011203693412818473,0.10558255038477893,1.0474930895277,0.66310497138,1.44540164775,0.02457152773006449,0.15636070507456204,stairs down
-1.0997375488243,-1.54919433593,-0.63220214843,0.055182239630860414,0.2343209944343573,0.2909033203086,0.01782226562,0.70202636718,0.032891154492819305,0.18090522026839137,0.0360412597643,-0.17810058593,0.2587890625,0.009747238426639895,0.09848097397216732,1.1543516974279,0.63348462473,1.59368090853,0.06045234019972705,0.2452551294035018,stairs down
-1.1261791992153,-1.384765625,-0.88671875,0.012978000323345269,0.11363586723270318,0.3423022460901,0.04345703125,0.662109375,0.033596504878534966,0.18283468586168844,0.092738037106,-0.01904296875,0.2060546875,0.0022622371722539865,0.047443924652084975,1.1943529666038,0.89498117118,1.43222419637,0.01624553746456113,0.12713893887097816,stairs down
-1.0629309081987002,-1.35717773437,-0.79382324218,0.020982815828815674,0.1444918743378727,0.251275634762,0.04223632812,0.61059570312,0.020557687322937456,0.143020623989419,0.0520263671851,-0.19921875,0.20861816406,0.006830584463464902,0.08244047271302839,1.1052747208017,0.84076361736,1.38286735404,0.022276710396845475,0.14888024329930835,stairs down
-1.0350720214804,-1.390625,-0.61437988281,0.026140775121889157,0.16127638155129756,0.2699719238242,-0.01123046875,0.56640625,0.015431374130212137,0.12391213523929395,0.0061791992186,-0.16528320312,0.15490722656,0.006244325391830425,0.07882324381089167,1.0777621261499999,0.61572286195,1.42289799789,0.030455581422130257,0.1740784406956232,stairs down
-1.0325756835903002,-1.46569824218,-0.61596679687,0.03303712307517387,0.18130619807330914,0.2832397460899,0.07885742187,0.49633789062,0.008424078849149787,0.09155303629538475,0.025299072264899997,-0.16650390625,0.21728515625,0.008509583021902831,0.09201649366713187,1.0787662263657998,0.63652332794,1.4937847686,0.033227838228915715,0.18182876295507028,stairs down
-1.0663671874965,-1.38037109375,-0.81018066406,0.01882930882593554,0.13687644896696385,0.3253881835892,0.10668945312,0.64965820312,0.0218862433468924,0.14756968567479548,0.05882080077870001,-0.08410644531,0.25866699218,0.005607959618883494,0.07469886090690457,1.1286150960774999,0.81929487959,1.43281438363,0.018890647568348927,0.13709921345692389,Null
-0.98699096679315,-1.23754882812,-0.79858398437,0.004918120690528644,0.06995377107115813,0.3135571289029,0.20458984375,0.55944824218,0.00549647772717768,0.07395265606144102,0.0423382568335,-0.06018066406,0.14379882812,0.0022422085419940923,0.047233436242603836,1.04014990260195,0.87481139909,1.29202598591,0.005570729830940095,0.07445049483909019,Null
-1.0289996337847,-1.53491210937,-0.61120605468,0.04827923504807766,0.21917536100765814,0.23898376464469998,-0.05883789062,0.56701660156,0.015719263022960527,0.12506265113072618,0.1636529540989,-0.05383300781,0.50500488281,0.020603489021512836,0.14317985743953396,1.08667898652995,0.64554226504,1.57911057431,0.0462749074071895,0.21457756842259526,stairs up
-0.9997192382782001,-1.53491210937,-0.67687988281,0.05730181273535574,0.2387787755887842,0.23694091796484998,0.01818847656,0.4619140625,0.009656458787582312,0.09802130632492305,0.09984497070075,-0.05383300781,0.30908203125,0.007931623852508757,0.08883673639461444,1.04055855420915,0.68935393573,1.57911057431,0.05617185952593853,0.2364127750954014,stairs up
-1.0026562499967002,-1.46691894531,-0.65991210937,0.04999750287108661,0.22304151038927972,0.2678112792933,0.09484863281,0.37158203125,0.0037033731898773775,0.06070301742028966,0.0677575683575,-0.1171875,0.26257324218,0.007881955960745018,0.08855815140878502,1.0472073193218001,0.69828772763,1.48618490403,0.04649776207422814,0.21509363836212592,stairs up
-1.0573925781207,-1.27758789062,-0.7919921875,0.014678568911990273,0.12085187655733907,0.2945306396454,0.08642578125,0.53173828125,0.013336119235140236,0.11519304943860344,0.02732299804575,-0.17053222656,0.21984863281,0.009797124423375901,0.09873266329467176,1.1071888689949,0.83066128161,1.36248746349,0.01855391577360491,0.13587180058693887,stairs up
-1.0727734374966,-1.36096191406,-0.83850097656,0.016128194008633398,0.1266789368387272,0.28450988769135,0.13659667968,0.48876953125,0.008766781714316503,0.09339672267132783,0.0394903564444,-0.16674804687,0.20959472656,0.01301448608643766,0.11379549049064058,1.1194157023678,0.8825385673,1.428348211,0.01806694717305083,0.1340768900190692,stairs up
-1.07533508300455,-1.53930664062,-0.6572265625,0.043607116553862374,0.2083004584034636,0.23114318847260001,0.05065917968,0.56677246093,0.015656833064208654,0.12481405729679494,0.07505554199049999,-0.11071777343,0.314453125,0.009628001229104304,0.09787676549089055,1.1144389735199,0.70195936434,1.56442653619,0.04219026542068944,0.20488854065951564,stairs up
-1.02014160155855,-1.63793945312,-0.58264160156,0.08800387352544659,0.2959119026971023,0.24336669921475,-0.00085449218,0.48168945312,0.011746936173737028,0.10811198588902315,0.08082031249715,-0.16284179687,0.24060058593,0.006407572899334522,0.07984694756118013,1.06180982188035,0.65476182957,1.69104830454,0.08625907552130468,0.29296378640319726,stairs up
-0.9852142333951501,-1.396484375,-0.67004394531,0.037407704175178,0.1929265809946937,0.20677734374634998,0.06237792968,0.40649414062,0.008021225485949801,0.08933711075762442,0.08826538085694999,-0.10571289062,0.28698730468,0.009229993027551793,0.09583236959615489,1.02016608929645,0.71703891669,1.44470689302,0.03501659432410379,0.18665881000500156,stairs up
-1.03976562499715,-1.24365234375,-0.76623535156,0.011053743110794842,0.10487361152950186,0.28852478026969997,0.07946777343,0.43469238281,0.006554983383799098,0.08076019110230054,0.051740112304650004,-0.15673828125,0.28625488281,0.014783400146344345,0.12128265805799535,1.08982031501535,0.79896650538,1.29893248289,0.011616070313636886,0.10750809254223005,Null
-0.8046759033168999,-1.10546875,-0.69506835937,0.01687509354611729,0.1295790032311821,0.5849560546834,0.25073242187,0.79992675781,0.019843130231679586,0.1405130406066326,-0.18541625976230003,-0.30004882812,0.02368164062,0.01228772268657302,0.11057252856446828,1.03456308492535,0.92475005555,1.17567684812,0.002508768559278154,0.04996223290128017,Null
-0.7612371826132001,-0.98583984375,-0.55749511718,0.0047042976668668236,0.06841619821747251,0.62639038085595,0.39611816406,0.7470703125,0.003086187850022658,0.055414410677842134,-0.26655212401965,-0.59289550781,-0.04455566406,0.007142399288447618,0.08430117016984628,1.02636446044285,0.82621817312,1.22326680255,0.004352971824055681,0.06581190595124413,Null
-0.6683471679649,-1.08068847656,-0.12927246093,0.0717543526810905,0.2671995151898391,0.61214294433205,-0.10095214843,1.19091796875,0.10313296347053953,0.32033934921140556,-0.27193054198995,-0.71057128906,0.17321777343,0.0728011827055649,0.2691415553050793,1.0578997057324,0.6368025274,1.40163312774,0.02276523604422773,0.1505038533194635,Null
-0.31616271972225,-0.74938964843,-0.03271484375,0.044061520066276935,0.2093829326042253,0.64725830077815,-0.44738769531,1.08142089843,0.14672259685832584,0.38208504795926546,0.311209106443,-0.78088378906,0.82568359375,0.23941463298238505,0.4880753628462239,1.01885632246755,0.76025749308,1.1835635153,0.005761639727469199,0.07571546426478447,Null
-0.8640661621056,-1.47399902343,-0.06860351562,0.13673830773787712,0.36885582034066877,0.4474212646453,-0.67761230468,0.98168945312,0.11015234250107087,0.3310612946095715,-0.059617919921200004,-1.05798339843,0.36608886718,0.05667843902234987,0.237476413201897,1.0990623495726,0.75317802242,1.93679127113,0.04468704773501828,0.21086396680405875,Null
-0.7493847656226,-1.39221191406,0.6591796875,0.32950845492840236,0.5725914011350156,0.34804870605134997,-0.14685058593,0.93530273437,0.04488976485076834,0.21134170441849498,-0.12783996581980003,-0.572265625,0.36608886718,0.07079763994566086,0.26541222983489765,1.03573707722375,0.39467119812,1.66477534199,0.06962519887672397,0.26320538156037077,Null
-0.9723413085903002,-0.99523925781,-0.95617675781,7.709731408648749e-05,0.008758528844278305,0.29614379882425,0.27697753906,0.35375976562,0.00037965672546893354,0.019436008896931204,0.017429199216,-0.01110839843,0.04125976562,0.0001588995671901273,0.012573983829883697,1.01681351611125,0.9971851279,1.05096170939,0.000156176632672959,0.012465783148667163,Null
-0.96795104980115,-1.0029296875,-0.93884277343,9.411091144365459e-05,0.00967679476306263,0.30361145019159996,0.26818847656,0.34289550781,0.0002225610595096044,0.01488113753084946,0.0305133056606,0.00915527343,0.05871582031,8.585305931176726e-05,0.009242499338123234,1.0150477423927,0.99050961944,1.05354844502,0.00011939938633145981,0.010899650884308292,Null
-0.9711779785119501,-1.00622558593,-0.9560546875,0.00014736466520414698,0.012108998384595079,0.28724243163715,0.20178222656,0.33154296875,0.0014836062124330448,0.03842119442925844,0.01558715820095,-0.02819824218,0.04760742187,0.0003349344318975946,0.018255403576423794,1.0138219069446002,0.987137453,1.02734406184,5.935353057013386e-05,0.007684839810775706,Null
-0.9914239501907,-1.04028320312,-0.93237304687,0.0006171348103394248,0.024780014856487228,0.26345947265264996,0.20446777343,0.37292480468,0.0013712568559053992,0.036937793269575164,0.000287475587399999,-0.05017089843,0.1279296875,0.003280449137414332,0.057131837811567554,1.0281080044066502,0.95855579782,1.07069624683,0.0005717118199080435,0.023850644871963176,lift up
-0.9991076660114,-1.04028320312,-0.97839355468,0.00037202199947282785,0.019239591718003365,0.23440368651905,0.21276855468,0.25476074218,0.00011165117761133141,0.010540062700158608,-0.03654357909815,-0.04797363281,-0.02624511718,2.958205140386022e-05,0.005425324059154524,1.0269275801234,1.00480429117,1.07134901103,0.00042922999268382814,0.0206660069370067,lift up
-0.98427246093315,-1.00378417968,-0.97253417968,6.408778865654469e-05,0.007985446118612408,0.2377233886676,0.18298339843,0.26867675781,0.00042803166350007427,0.02063713897764353,-0.057199707027799994,-0.08190917968,-0.03283691406,0.00019364506156333756,0.013880808198931388,1.0145094196285998,1.00223604189,1.02688717577,2.9614604340001993e-05,0.005428308329332628,lift up
-0.9695965576132,-0.99609375,-0.91955566406,0.00033146743163532183,0.018160674394888127,0.25080932616855,0.19946289062,0.30541992187,0.00030365336332184703,0.017382033727537115,-0.08567932128459999,-0.19604492187,-0.05737304687,0.0013625482783996246,0.03682031418942031,1.0060562435211,0.9614744547,1.02567487137,0.00020328072871026953,0.014221966286935088,lift up
-0.9655639648402,-0.9892578125,-0.92053222656,0.0004282394545981758,0.020642147594792187,0.24195922851244997,0.2236328125,0.27648925781,0.00012368477618787224,0.011093527496109291,-0.0637695312464,-0.1591796875,-0.0126953125,0.0007983799555958356,0.02818489055891217,0.9979863730958999,0.96499089806,1.02028988058,0.0002928073922225152,0.01706878306328259,lift up
-0.97905395507395,-1.17236328125,-0.86108398437,0.003232495298006435,0.05671272186658301,0.28678527831705003,0.12536621093,0.41040039062,0.003720457170092815,0.060842870447098,0.057626953122050004,-0.08361816406,0.14794921875,0.002674969500472636,0.051590645014094105,1.0249152099821501,0.90757726618,1.24222375708,0.003258194209315106,0.05693771367264873,Null
-1.01213073730095,-1.21142578125,-0.81091308593,0.009363471329231635,0.09652281581359651,0.30145080566045,0.14697265625,0.55358886718,0.0077792479429816515,0.08797926859929414,0.06054931640434999,-0.15161132812,0.23608398437,0.007722806384865944,0.08765952516949664,1.06448031941935,0.8351345484,1.25697463425,0.010623401945424826,0.10281189102286614,Null
-0.9788641357389,-1.02966308593,-0.9365234375,0.00028168127723165554,0.016741352121184754,0.2778466796834,0.21264648437,0.31896972656,0.0007465171094962464,0.0272540735294518,0.036022338865199996,-0.16687011718,0.15661621093,0.0035211986925418833,0.059191153892107676,1.0202186841324998,0.98115498817,1.07798222964,0.000353637370419656,0.018758176445687832,Null
-1.029041748043,-1.25427246093,-0.77380371093,0.01292083778420535,0.11338533236395404,0.30919860839470004,0.09057617187,0.67810058593,0.015627668924826255,0.1246977569172843,0.0617510986313,-0.11096191406,0.29968261718,0.011571239238230122,0.10730043355941751,1.08730697552905,0.78074624986,1.34766490214,0.016107120618690327,0.12659614929213636,Null
-0.9631884765583001,-1.34997558593,-0.68823242187,0.02186108903067854,0.14748485883481444,0.20390747069930001,-0.04064941406,0.57299804687,0.01696462445365113,0.1299222895864404,0.2809802246052,0.0751953125,0.51745605468,0.008243496931591566,0.09056643664699196,1.03515553451265,0.7071677229,1.48009710755,0.02366539531324659,0.1534505403596884,stairs down
-0.9926403808565,-1.4482421875,-0.646484375,0.03747788769370549,0.1931074785067553,0.2966400146453,0.05480957031,0.57775878906,0.01105765390888391,0.10489216195378705,0.13039794921615003,-0.11120605468,0.36584472656,0.015867846568734162,0.12565232722035233,1.05519296498425,0.69115388434,1.48940627561,0.041188971891110926,0.20244265121672203,stairs down
-1.0611596679642001,-1.42431640625,-0.70275878906,0.03918145019800995,0.19744757012184247,0.27940856933195,0.08642578125,0.55725097656,0.010908059705090475,0.1041802256023907,0.055634155270899995,-0.21032714843,0.21948242187,0.008978273625093104,0.09451657133523009,1.1073076178063501,0.7325139204,1.46150851692,0.04006676675729502,0.19966580308983445,stairs down
-1.06503479003525,-1.30090332031,-0.80847167968,0.019150437718284775,0.13803871025800463,0.31548217773005,0.08984375,0.70764160156,0.023421598365780033,0.15265808322506585,0.07176452636424999,-0.03466796875,0.19055175781,0.004285773349752979,0.06530194853910727,1.123909106339,0.81456967075,1.39225389684,0.022542810824614814,0.14976680797323463,stairs down
-1.08237670898195,-1.302734375,-0.82666015625,0.015824910850141816,0.12548221505811533,0.32451599120669994,0.09826660156,0.57214355468,0.015591692022493575,0.12455413908169052,0.0354040527326,-0.09973144531,0.16223144531,0.0037685574161100788,0.06123491348103244,1.1381720887583,0.8328417381,1.3678289489,0.018344114454671642,0.1351014207267943,stairs down
-1.0172601318328,-1.40869140625,-0.6513671875,0.03636649369245435,0.1902226622250674,0.27337646483995004,0.0458984375,0.49182128906,0.011812607397438946,0.10841376462632293,0.0485699462881,-0.14245605468,0.212890625,0.008212042240496546,0.09039348444049528,1.0632612933035501,0.67409644934,1.44794101889,0.03768494150935465,0.1936401735224586,stairs down
-0.9982373046838501,-1.29699707031,-0.70556640625,0.022275451236192647,0.1488760356135657,0.29638061523035003,0.103515625,0.49401855468,0.006799898217851988,0.08225508328828515,0.0299792480463,-0.17980957031,0.19384765625,0.00926071453120746,0.09599172338567227,1.0494549691455,0.73175043482,1.32372762073,0.022117178151733585,0.14834619058464196,stairs down
-1.02366821288655,-1.50268554687,-0.66381835937,0.04830779963255146,0.2192401893686208,0.3073699951138,0.0927734375,0.60498046875,0.016487799762647845,0.128083413304903,0.055260620115600005,-0.23156738281,0.21850585937,0.013738358169489548,0.11691734849303631,1.0829163580179,0.68237780738,1.53020440136,0.05111568785979609,0.22552186018321396,stairs down
-1.05883239745635,-1.72192382812,-0.63391113281,0.05337850866275261,0.23045957589008714,0.27401245116695,0.03332519531,0.54968261718,0.013599349863769906,0.11632434446172932,0.02178527831885,-0.23669433593,0.26123046875,0.013889565820215818,0.11755899791642807,1.1038571481361499,0.65561761359,1.75096900968,0.0564777589129609,0.23705562663306706,stairs down
-1.1132446289022,-1.55627441406,-0.71984863281,0.040979234567334356,0.20192656683680255,0.34477294921519996,0.00805664062,0.7490234375,0.04249571549228597,0.20562888151916922,0.069780273436,-0.22045898437,0.3681640625,0.012210616370041075,0.11022505744244758,1.1877768500376,0.72042082346,1.60160497748,0.04768298488729181,0.21781774483006508,stairs down
-0.8414300537073001,-1.37377929687,-0.45471191406,0.07946669643502974,0.2811927505339613,0.54896057128565,0.05102539062,0.95166015625,0.06431150657716074,0.2529623470880102,0.0713275146462,-0.41845703125,0.66345214843,0.06550494968081928,0.2552986974749679,1.0950887938379,0.80140142848,1.43951623434,0.02358505426689703,0.15318984625477808,stairs down
-0.78285705566015,-1.25134277343,-0.41625976562,0.06628574345225566,0.2568157213548158,0.4940673828086501,0.13684082031,0.95166015625,0.06722574287897336,0.25863026536849565,0.047739868163950004,-0.45593261718,0.60217285156,0.059655678746606086,0.24363374222975162,1.01984814356765,0.7735713785,1.27739266351,0.013110175250473111,0.11421306568961691,stairs down
-1.0174926757776002,-1.35803222656,-0.70056152343,0.03027450094881419,0.1735601579973645,0.28243408202759995,0.14892578125,0.49645996093,0.007566807407825325,0.08676965697054587,0.0333447265618,-0.19396972656,0.20642089843,0.008563847014130285,0.09230941327437649,1.0637064227734,0.73192883999,1.44848516564,0.03102914822583865,0.17570999540353263,stairs down
-0.990637207028,-1.33850097656,-0.65222167968,0.03985727087954018,0.1991431257290657,0.2722827148394,0.13977050781,0.46520996093,0.006453936549303686,0.08013530349700541,0.022832031249,-0.19665527343,0.16394042968,0.012157301183217135,0.10998415648310919,1.0361379336914,0.6778158639,1.41633916907,0.040819701339382,0.20153313085615746,stairs down
-1.035427246089,-1.51623535156,-0.62292480468,0.04841848311712092,0.21949120871127234,0.2535546874968,0.10510253906,0.48791503906,0.008987873427140572,0.09456708761511518,0.063574218748,-0.16149902343,0.22888183593,0.011271243717614208,0.10590036590600684,1.0759342818596,0.66574301412,1.59388778595,0.05139786549345287,0.22614348579162213,stairs down
-1.1079101562464002,-1.50048828125,-0.61633300781,0.038281525798730204,0.19516689824285405,0.29266357421499994,0.0546875,0.59387207031,0.02093245590751369,0.14431837591927135,0.038308105466799997,-0.25024414062,0.25573730468,0.011205575986678326,0.10559142061145373,1.1596532489895999,0.64603580228,1.55064346316,0.04005647732962131,0.19964016365193954,stairs down
-1.0897534179646002,-1.28698730468,-0.84704589843,0.013227556704222267,0.1147232274681163,0.32844238281000004,0.09228515625,0.63122558593,0.023076168256655774,0.15152817366870258,0.053393554683,0.00134277343,0.12487792968,0.0009834628608116388,0.031281712653043484,1.1482236444918,0.85685722684,1.35862382325,0.017056277976077172,0.13027277760989356,stairs down
-1.0465942382774,-1.37707519531,-0.56896972656,0.03074037504550113,0.17489046048962653,0.3134497070278,0.05969238281,0.5458984375,0.015717066885966652,0.12505391457901996,0.0374780273412,-0.17944335937,0.12817382812,0.004667926367459162,0.06815120494622136,1.1009720515852002,0.58627490183,1.41140110408,0.033914677437423865,0.1836984051379781,stairs down
-0.9963549804652001,-1.40905761718,-0.6923828125,0.03096417926033893,0.17552594783688602,0.28841308593440007,0.12268066406,0.46923828125,0.005533157545098677,0.07419900105374184,0.0232592773426,-0.23193359375,0.19641113281,0.010697443406836166,0.10316955069109289,1.0450764247578002,0.7384835627,1.48412985032,0.031377308487934776,0.17669301611975247,stairs down
-1.0208007812466,-1.44396972656,-0.71618652343,0.024847544018670037,0.1572364661857315,0.298725585933,0.0966796875,0.48291015625,0.006224261073039335,0.07869650416425204,-0.0147875976556,-0.30102539062,0.23706054687,0.01255943428254462,0.11178835856712405,1.0715647215244002,0.74843499694,1.50035466034,0.02678594421062498,0.16325444707441158,stairs down
-1.04179748534765,-1.38073730468,-0.61193847656,0.024173079887269487,0.15508776382369158,0.29617675780915,0.03576660156,0.63171386718,0.014765754740336512,0.12121025520406609,0.02510986328055,-0.21350097656,0.16333007812,0.006781625837133441,0.08214449286438973,1.0915132865678001,0.62265827652,1.46591862216,0.027923397975127866,0.16668467531615566,stairs down
-1.0316381835896002,-1.26782226562,-0.83471679687,0.011571227419943864,0.10730037876374969,0.2963134765598,0.1171875,0.55773925781,0.011007924774664408,0.10465603255804744,0.058952636716400005,-0.22924804687,0.33581542968,0.010264270514773764,0.10105913695554646,1.0839047775732,0.85535775078,1.33583158218,0.013451326991404505,0.11568954298659617,Null
-0.9758374023394001,-1.04895019531,-0.95617675781,0.00035928745964489774,0.01890743299199215,0.2960205078092,0.25891113281,0.34802246093,0.0004163309557310601,0.02035311526406719,0.032329101560199996,-0.08728027343,0.08081054687,0.0015297081959663016,0.03901358295499748,1.0211766700872,0.99383924821,1.0972379247,0.0004260865379510791,0.02059019439590903,Null
-0.9754492187460001,-1.07409667968,-0.90783691406,0.0005682506992291462,0.02377833984392099,0.2788720703098,0.07470703125,0.43994140625,0.0030415335132669215,0.0550120518223106,0.084326171871,0.05810546875,0.16271972656,0.0006476101563899454,0.025384485529708806,1.0198306394497998,0.95678356624,1.09320280147,0.000566118040429208,0.023733677553785505,Null
-1.02130615234,-1.19921875,-0.87878417968,0.005868208594165797,0.07641248295399757,0.2846069335902,0.0556640625,0.4365234375,0.009587872717197592,0.09767258240474451,0.0689941406244,-0.15295410156,0.36181640625,0.015267121731310071,0.12325090718795347,1.0731918261446,0.908831045,1.27547467409,0.007694920821516767,0.08750112123515437,Null
-1.03593994140245,-1.345703125,-0.75122070312,0.02139282022272438,0.14589673101756173,0.30092224120665,0.07897949218,0.48962402343,0.011219433368972041,0.10565669028569455,0.053474121091299995,-0.22204589843,0.27685546875,0.012062789452718761,0.10955581000319047,1.0902667374233999,0.76613937343,1.37869170791,0.02246768660306505,0.14951704976373004,Null
-1.0339404296832,-1.52001953125,-0.87829589843,0.019523645142284194,0.13937728264165855,0.24092285155859997,-0.43371582031,0.45935058593,0.02107346822245122,0.1448036632179551,0.0817285156224,-0.76879882812,0.521484375,0.041262241607479634,0.20262263052147517,1.0900811669854,0.88511018591,1.75773161384,0.02706461345196422,0.16410146368848877,Null
-0.9661547851522001,-0.98657226562,-0.94934082031,6.661152121528284e-05,0.008141158615897766,0.30631835937100005,0.24853515625,0.33959960937,0.0003317826716552833,0.01816930814029546,0.0887573242146,0.05053710937,0.11657714843,0.0002817593926790882,0.016743673304137677,1.0177319364006001,0.99968049041,1.0347379451,6.264041356455788e-05,0.007894758482482861,Null
-0.9660839843712,-0.97570800781,-0.951171875,1.9028174814933554e-05,0.004351210629337413,0.2933300781208,0.27783203125,0.30505371093,2.7733208542979055e-05,0.005253050780286077,0.0950122070276,0.0771484375,0.11267089843,7.757865603397935e-05,0.008785827380150912,1.0141456003778,1.00041672844,1.02593309857,2.0641854670834896e-05,0.004531958229891437,Null
-0.9829028320274,-1.03051757812,-0.95483398437,0.0005854598301912717,0.02413571070095752,0.29644287108999995,0.28381347656,0.31433105468,7.106204127129482e-05,0.008408729456043781,0.10315185546540001,0.091796875,0.12145996093,4.959734839684986e-05,0.007024910081621373,1.0318737698712,1.00862089899,1.07825265349,0.0005585628029121149,0.023574774418805247,lift up
-0.9734008789022001,-1.01928710937,-0.95764160156,0.00032669710155830856,0.01802952068277238,0.30021484374640006,0.29138183593,0.30993652343,1.932254388858256e-05,0.00438473843793899,0.0985522460896,0.08813476562,0.11267089843,3.219106688232998e-05,0.005659515133641603,1.0234319974491999,1.00657443212,1.06716590764,0.00031561298389930746,0.017721030415295012,lift up
-0.9650488281218,-0.97338867187,-0.95532226562,1.831955645894904e-05,0.004269421351501196,0.2984667968714,0.29309082031,0.306640625,9.059283002179844e-06,0.003002330192895003,0.09739501952759999,0.08642578125,0.107421875,3.3304325906829435e-05,0.005756544473666063,1.0148554053566001,1.0043886636,1.0219532053,1.6427427016379535e-05,0.0040429308528959085,lift up
-0.9647607421832,-0.97204589843,-0.95654296875,9.435169654259088e-06,0.003063983323386045,0.3015185546832,0.29370117187,0.31176757812,2.061359846752611e-05,0.004528855316212749,0.0975024414028,0.08410644531,0.10949707031,4.1939391556995316e-05,0.006459852521475265,1.015501941231,1.00683121629,1.02313109899,1.0944857456116556e-05,0.003300020177034676,lift up
-0.8332177734339998,-0.953125,-0.54565429687,0.018889630883390848,0.13709552410262668,0.45028808593360004,0.265625,0.76184082031,0.03547417372306694,0.18787443374352883,0.1669091796836,0.02941894531,0.4580078125,0.014533720088307604,0.12025411214534855,0.9962837082906,0.95536154849,1.07348787586,0.0008459318899522947,0.02901210489610385,lift up
-0.8909179687462,-1.03771972656,-0.56884765625,0.02324424796365078,0.15207901473849877,0.42961425780920004,0.24462890625,0.77526855468,0.025201702836717233,0.15835306856052284,0.12073242187120002,0.00109863281,0.35119628906,0.008634889521210177,0.09269150486211844,1.023181711691,0.89672770968,1.14698779151,0.0027881168047529494,0.05267044921708172,lift up
-0.9918017578092,-1.14099121093,-0.82385253906,0.004071990664827512,0.06365242109694944,0.279362792964,0.11535644531,0.34704589843,0.002425256811806758,0.04912362494510889,0.0371435546862,-0.06787109375,0.2001953125,0.003462640508102626,0.058696910528256194,1.033730786464,0.84737728292,1.18416099678,0.004426824323951277,0.06636784012103694,Null
-1.0504028320278,-1.29956054687,-0.77172851562,0.017507774296816693,0.13198573947715947,0.32593017577780004,0.01110839843,0.52734375,0.015587051004820609,0.12453560033097566,0.06853759765419999,-0.06677246093,0.19067382812,0.005256560106137157,0.07232065614751065,1.1104525581614,0.79087211343,1.35462309652,0.019425865185064152,0.13902782404662326,Null
-0.9810107421841999,-1.13696289062,-0.92724609375,0.0014303234713712244,0.03772495002003804,0.2550170898398,-0.36389160156,0.39477539062,0.01323916519675072,0.1147735569317557,0.0462207031228,-0.07958984375,0.14050292968,0.0020587532721707312,0.04525991058110784,1.0222273718542,0.95734043187,1.15608774799,0.0012542178382220527,0.035326289771655084,Null
-1.0489013671840501,-1.31909179687,-0.7998046875,0.016906475002387473,0.1296994318699027,0.28644409179325,0.10302734375,0.58996582031,0.011499811319485128,0.10696874432696545,0.08285949706705001,-0.19140625,0.31323242187,0.009324045468189358,0.09631939182142094,1.0987839992482,0.81796276888,1.38814200849,0.01998875559196539,0.14102769874746438,Null
0.09917480468559997,-1.31567382812,0.74011230468,0.39435493296329505,0.6264049475367182,0.45322753905899993,0.06298828125,1.01574707031,0.05891486649548576,0.24211627818675951,-0.5588647460913999,-1.07727050781,0.41577148437,0.18618090385586067,0.43040678356245893,1.0569862921418,0.65030741803,1.5972316756,0.04684831808177804,0.21590293303095526,Null
-0.3993798828116001,-1.76306152343,0.80590820312,0.6898427584845951,0.8284887112641741,0.423283691402,0.16040039062,1.17700195312,0.04870223292769339,0.22013341809696893,-0.23862304687459995,-0.80151367187,0.32434082031,0.1301770725417039,0.35989746759180646,1.0822748502636,0.55692888793,2.06491967796,0.0891195324874206,0.2977816898752902,stairs down
-1.09958190917585,-1.48168945312,-0.71166992187,0.031612308695794865,0.1773534526089523,0.28746704101189996,0.0830078125,0.61779785156,0.018400991608358855,0.13531070412320328,0.0189862060542,-0.28881835937,0.20715332031,0.021479684334943242,0.1461926328966974,1.1530760237389999,0.74641870741,1.51709171978,0.03451696675104309,0.18532237295396334,stairs down
-0.6203656005844,-1.56262207031,0.62634277343,0.4962520005329941,0.7026882242718524,0.07999389648184999,-1.14587402343,0.72827148437,0.2811947444528086,0.528950631657194,-0.009996948242399996,-0.35864257812,0.21557617187,0.019024669283994572,0.13758468642103525,1.0530602128350999,0.47052066479,1.65967097651,0.07528209666348953,0.27368903189600435,stairs down
-0.061418979323233855,-1.81958007812,0.6220703125,0.6115283462955304,0.7800550728711214,-0.4345939977820895,-1.26245117187,0.82495117187,0.35865310723867805,0.597384937390934,-0.16018175722835823,-0.67370605468,0.41918945312,0.06907413283013077,0.262164987036772,1.0794599790363681,0.23899094626,1.94107468842,0.0875895122188906,0.2952181286801061,stairs down
-1.1055098490463315,-1.35510253906,-0.90612792968,0.011177871597800334,0.10545947747246884,0.3461257704504523,0.08825683593,0.67932128906,0.027533517602537548,0.16551482778772472,0.053022068345979896,-0.00073242187,0.1181640625,0.00088413087315157,0.02965953479814317,1.1692054409241708,0.91333772992,1.42691004761,0.017720134209356895,0.13278210839118107,stairs down
-1.05403930663665,-1.45520019531,-0.66809082031,0.030713176066864623,0.17481307212714473,0.2979180908167,0.06665039062,0.61987304687,0.01814502744170983,0.13436629899086036,0.04521057128795,-0.20263671875,0.15771484375,0.006360273141782241,0.07955169247774262,1.10572960566825,0.68590688354,1.5186203234,0.03427383712900021,0.18466853533657326,stairs down
-0.5476196289034501,-1.23083496093,0.31909179687,0.1718342398558574,0.41349131630129565,0.6829010009729,0.15454101562,1.38525390625,0.07696165151008641,0.2767252125349911,0.05293701171755,-0.32653808593,0.50854492187,0.04510750729108615,0.21185365173777565,1.01325401263085,0.50512016811,1.50804214013,0.03496839181196146,0.18653029205172453,stairs down
-0.8831707763634501,-1.41369628906,-0.4228515625,0.06345778000990321,0.25127771709774366,0.49004882812125006,0.20275878906,0.90466308593,0.034320755663941965,0.18479489139481714,0.04988281250035,-0.32641601562,0.4970703125,0.03309535127068088,0.1814659045504898,1.05524752818125,0.58253571071,1.5178860336,0.03949642304097978,0.19823960483660896,stairs down
-1.088803419423433,-1.44738769531,-0.71118164062,0.02985690445826144,0.17236114018257206,0.31408691405915423,0.00402832031,0.63317871093,0.023734210580451623,0.1536754044432538,0.04268391926905473,-0.15270996093,0.23620605468,0.0075771406783875705,0.08682996868064712,1.1453346869411443,0.74860221029,1.56497013821,0.0352129725372113,0.18718382307003914,stairs down
-1.0577545932757286,-1.27856445312,-0.76574707031,0.02288525001115984,0.15089814032923785,0.30294171050190954,0.08935546875,0.58264160156,0.017078275474988282,0.13035511112041012,0.03582733000798995,-0.07385253906,0.12902832031,0.002746126397770974,0.052271663142006694,1.1079866185665328,0.77768309772,1.32515022128,0.026897906083990928,0.16359321723954495,stairs down
-1.0054180908166002,-1.35217285156,-0.74951171875,0.024631968346925437,0.15655289363403926,0.31777893066105,0.15698242187,0.5224609375,0.008913937749960047,0.09417732243597844,0.006361083983349999,-0.10803222656,0.09582519531,0.0023213922660496504,0.04806022580803593,1.0599777461041,0.79016914758,1.38633139129,0.024145315713655927,0.15499867462364847,stairs down
-0.8390643310510001,-1.22766113281,-0.45361328125,0.0497187955106373,0.2224189774571498,0.49999145507365,0.20458984375,0.93310546875,0.04854901404684399,0.21978687171123248,0.017750854491250002,-0.16882324218,0.31018066406,0.01054589776452095,0.10243616683426975,1.02218924937705,0.79517446717,1.25589209316,0.017823393837645463,0.13317010501031093,stairs down
-0.9715570068325,-1.31982421875,-0.71716308593,0.02451953089702025,0.15619517675823139,0.27082519530829996,0.18493652343,0.39013671875,0.0025653371859117413,0.05052237623055929,-0.0011767578138,-0.16650390625,0.12414550781,0.006656552534758047,0.081383473580846,1.01371764027925,0.74870485496,1.33719964108,0.023336631154450265,0.15238093056113686,stairs down
-0.9796543405978607,-1.43981933593,-0.71716308593,0.0270835472889153,0.164160906651226,0.2665705894318408,0.18591308593,0.47290039062,0.0030620446846187123,0.05519792234732576,-0.010224147815373135,-0.16198730468,0.12072753906,0.00604853533564407,0.07757862540702723,1.020438616474826,0.74870485496,1.47380807085,0.0257341570636941,0.1600191439532671,stairs down
-0.8063155131089446,-1.30383300781,-0.31762695312,0.07939536963187188,0.2810629785745164,0.46593992913432153,0.17749023437,0.89904785156,0.06422188215159269,0.25278282996616935,0.12643539965286435,-0.15759277343,0.53247070312,0.033599274358021895,0.18283991299319324,1.0194743714141206,0.80332152155,1.33570898343,0.020330796196448005,0.14222739325263867,stairs down
-0.9412219238243,-1.21252441406,-0.3544921875,0.0421700959810629,0.20483956039094983,0.40600097655824996,0.17175292968,1.03796386718,0.04447334942482612,0.21035917540649848,0.043054809567599994,-0.03698730468,0.24731445312,0.0040209644997598465,0.06325234918373425,1.06128026783825,0.78790736863,1.32192421341,0.016567337121187402,0.12839197963884452,stairs down
-0.9944281005820002,-1.22546386718,-0.76708984375,0.01272512289398343,0.11252331882553729,0.2987463378868,0.16479492187,0.45434570312,0.004695350667055308,0.06835110762613895,-0.0090649414057,-0.10864257812,0.08312988281,0.002603772183478294,0.05089944324411518,1.0413965399244,0.79148803544,1.28471061261,0.013704689387563949,0.11677399513858437,stairs down
-1.00791687011275,-1.43981933593,-0.65014648437,0.04080546147827494,0.2014979755999637,0.2734436035118,0.08081054687,0.44409179687,0.0068403946319667615,0.08249965247688579,0.013541259764749998,-0.17175292968,0.19458007812,0.009917198039932058,0.09933585480445818,1.0516754360727498,0.66441399864,1.50702590387,0.04231678705268996,0.20519552411645464,stairs down
-1.0217467350704974,-1.40905761718,-0.65563964843,0.049461167121237694,0.22184474675529975,0.2547279471748259,0.07629394531,0.63928222656,0.009630853942902414,0.09789248820348305,0.04163690823119403,-0.19482421875,0.1962890625,0.01620402920084847,0.12697799864601636,1.0660917789270148,0.69740326108,1.43982359985,0.049200892340340766,0.22126028062314662,stairs down
-1.0081274414024002,-1.52905273437,-0.63171386718,0.04763294709406675,0.21770342753065788,0.29406982421570005,-0.00146484375,0.59594726562,0.018790270509255146,0.1367344841534456,0.0493298339819,-0.15234375,0.40441894531,0.012129428366813307,0.10985800482886643,1.0658552684542,0.63737887699,1.57321864559,0.04758177044429582,0.2175864462508507,stairs down
-0.9863433837854,-1.16271972656,-0.85559082031,0.0026444169650464166,0.05129517404416506,0.2963024902308,0.16479492187,0.44909667968,0.0036398433545835177,0.06018009752244175,0.057943115231249995,-0.07275390625,0.27270507812,0.0035801819086125454,0.05968484731545757,1.0343051806611,0.8876574249,1.25867407179,0.004074124956897665,0.0636691002929457,Null
-0.9699835205035999,-1.00158691406,-0.94421386718,9.485246511245522e-05,0.009714844455105441,0.2994610595669,0.26904296875,0.39721679687,0.0008058607993446058,0.02831662930766801,0.0684307861288,0.02868652343,0.15771484375,0.0007098492781333071,0.02657630583325381,1.01812337698695,0.99548279968,1.08365650201,0.00025630924636242517,0.01596958672385147,Null
-0.6392955874897512,-1.18920898437,0.10144042968,0.1742656749171668,0.41641167311882443,0.34206348627636807,0.01000976562,1.20556640625,0.09541260452479661,0.30811996843769535,-0.39779253148174126,-1.11376953125,0.16748046875,0.1763990297031171,0.4189527689252886,1.0445874876605472,0.68432570371,1.60156252326,0.03682337547406302,0.19141623390156262,Null
-0.7664526367150001,-1.6435546875,-0.20153808593,0.10873631424038395,0.3289264852047977,0.6052355957000001,0.06701660156,1.17504882812,0.053693617736617925,0.23113881034550393,-0.22599853515420001,-0.84497070312,0.14379882812,0.07162518230957543,0.2669589039497045,1.0907080340775999,0.53053730955,1.68878771957,0.04831751923121667,0.2192622439798074,Null
-0.3836485896272362,-1.38391113281,0.96398925781,0.8764611601081734,0.933839832450107,0.35335613614608047,-0.55700683593,1.1826171875,0.12104046121132518,0.3470334532687738,-0.08099334563296484,-0.40100097656,0.17626953125,0.028418625525130282,0.16815415059310138,1.121122977076633,0.76362414588,1.46960697638,0.042669278788634066,0.20604577234745444,Null
-0.3361804199214001,-1.27697753906,1.03662109375,0.7252497286591503,0.8494842435359555,0.27605224609225,-0.46948242187,0.73559570312,0.11735328063663582,0.3417111561442685,-0.24030334472485,-0.86376953125,0.21716308593,0.10370463650519145,0.3212259536878449,1.0784256273689998,0.77029974077,1.36746972032,0.02567044080674272,0.15981892441982273,Null
0.10812499999910002,-1.26989746093,0.89453125,0.7975428158614771,0.890817097827702,0.12419982910140001,-0.26037597656,1.02551269531,0.14677501229225268,0.3821532902263062,-0.22761474609144997,-0.57214355468,0.60681152343,0.1176108270949298,0.34208591458792215,1.0473349821916,0.48447246493,1.4696768109,0.03882767121890757,0.19655414740679739,Null
0.3262702600261194,-0.8359375,0.87487792968,0.4924174408150768,0.6999768587611104,0.22561812519343286,-0.32568359375,0.70788574218,0.12321040801650747,0.35013914507228083,-0.4735878711870149,-1.02294921875,-0.15270996093,0.04275973102113111,0.20626923192984087,1.0123633876547762,0.67173219981,1.34168437835,0.011933052239489293,0.10896643437493657,Null
-0.9118554687464001,-1.1640625,-0.66271972656,0.015196151673505106,0.12296410417328132,0.31461303710559996,0.09411621093,0.56860351562,0.009027602593158312,0.0947758649667336,-0.17001953124660002,-0.61120605468,0.17053222656,0.0494536451952349,0.22182510446128212,1.0124939667739,0.71325836103,1.26642508589,0.007571235896421955,0.0867950443109504,Null
-1.0016967773398,-1.025390625,-0.97106933593,0.00029127127562404123,0.017023951340564888,0.24651489257409998,0.19165039062,0.26733398437,0.0002524784986219079,0.015849798299309627,-0.0612048339809,-0.08361816406,-0.04284667968,9.904431789187074e-05,0.009927189748484281,1.0335866161982,1.00330056944,1.05392103955,0.00025160264719694585,0.015822282830266973,lift up
-0.9873832050847738,-1.01782226562,-0.97387695312,0.00011778221501338715,0.01082544893231612,0.2516562303666332,0.2412109375,0.26989746093,4.264869127958297e-05,0.00651416734878889,-0.06772878061834169,-0.08361816406,-0.05297851562,6.183496687382504e-05,0.00784373880219581,1.0212362589756783,1.00568222411,1.05354844502,0.0001420055980259027,0.011886631232436013,lift up
-0.9816086802276118,-0.99401855468,-0.96875,2.0604207742851114e-05,0.004527880215577486,0.24101052355059702,0.22802734375,0.25439453125,3.0522064040170014e-05,0.005510917616449509,-0.07462200714890546,-0.08801269531,-0.05871582031,6.463993248045029e-05,0.008019871618459204,1.0135829495967166,1.00379125329,1.02734080557,1.6674148185964218e-05,0.004073228722382285,lift up
-0.9741235351523001,-0.98803710937,-0.93103027343,0.00023407042926569898,0.015261064088698746,0.2354040527303,0.22436523437,0.24584960937,2.5423703777640427e-05,0.0050295710809921184,-0.06836303710519999,-0.08288574218,-0.05493164062,4.46640831111299e-05,0.006666390529782533,1.004528022989,0.96261380687,1.02025994023,0.00023248550531845632,0.01520930891894382,lift up
-0.9667517089814,-0.99621582031,-0.93017578125,0.00039412857148174863,0.019802977771646867,0.2376879882771,0.21142578125,0.25952148437,0.0001597215841729935,0.012606465652677142,-0.0751989746053,-0.09704589843,-0.04614257812,0.00011839502869481541,0.010853711510416211,0.9984902627181,0.95832550349,1.02841641809,0.00044764983562314614,0.02110477638936339,lift up
-0.9926434326139001,-1.111328125,-0.93176269531,0.0010866370748966788,0.03288166494449749,0.22061645507450003,0.12219238281,0.36169433593,0.003770980491966172,0.06125459647656118,0.039907226560950006,-0.06811523437,0.21362304687,0.004875392673819666,0.06964923338020719,1.0221159105334001,0.94322927932,1.13331514585,0.0010668845583322619,0.03258143851245062,Null
-1.028127085619598,-1.22119140625,-0.83227539062,0.008320128103506874,0.09098526482098367,0.27538633106608035,0.14306640625,0.48779296875,0.009421955963937639,0.0968225668506885,0.052360189618894465,-0.142578125,0.220703125,0.007925794743625529,0.088802965205763,1.0727997119929649,0.85218441852,1.28615260706,0.010316036803188284,0.10131237546453908,Null
-0.9898153276548757,-1.16748046875,-0.86059570312,0.0032982556032733834,0.05728740150693084,0.31148396202238804,0.19140625,0.419921875,0.003440254925239752,0.058507599755025674,0.027932238221094526,-0.07849121093,0.10974121093,0.0015597010813366225,0.03939468713499704,1.0401612128117415,0.88311374217,1.21842938876,0.0038777218751484092,0.062116259759549514,Null
-1.1374572753869001,-1.41662597656,-0.671875,0.02576373641052372,0.16010908071833746,0.35254150390260003,0.05395507812,0.69372558593,0.027511833894227736,0.16545172928910898,0.0580468749984,-0.11181640625,0.24951171875,0.008359588414105687,0.09120192142732059,1.202851791059,0.68789367891,1.54291112285,0.036119152434984834,0.18957467307847298,Null
-1.0833386230429,-1.39477539062,-0.70104980468,0.017870641322462157,0.1333464964513498,0.2978643798783,0.08203125,0.52722167968,0.014810396558364542,0.1213933465045458,0.07022338867064999,-0.07189941406,0.2099609375,0.006674564469957204,0.08149350678187446,1.1333451437262,0.74813207833,1.46108151812,0.02064344440943057,0.143318621216447,Null
-1.00426330565995,-1.41723632812,-0.73889160156,0.03412117340115529,0.18425679779630794,0.26345336913694994,0.08605957031,0.48889160156,0.007426224999357237,0.08595983872926037,0.0612066650376,-0.076171875,0.29089355468,0.008253074635026525,0.09061903366209217,1.0476709315169002,0.76592500803,1.43344081094,0.03380483474952195,0.1834006831387886,stairs up
-0.9468748773125629,-1.50390625,-0.58752441406,0.05027809422736907,0.22366367717520214,0.29676397121994974,0.11694335937,0.56237792968,0.011518078197327706,0.10705231621684505,0.1560561597023618,-0.078125,0.43737792968,0.018002699888061146,0.13383659461999892,1.0190899291066837,0.73520096532,1.56101103409,0.05009975981505762,0.22326666170310175,stairs up
-0.9871540733788559,-1.33337402343,-0.66564941406,0.024369585365688763,0.15571879670563699,0.29662296427696516,0.1201171875,0.45202636718,0.005402978968479157,0.07332188265517099,0.118552744089801,-0.09558105468,0.46411132812,0.017072538001994136,0.1303364876079765,1.048365107228756,0.71620241924,1.40954188122,0.02417602345155313,0.15509914483295373,stairs up
-1.0331634521449,-1.2685546875,-0.88635253906,0.009821520818913349,0.09885551686587239,0.30989685058229993,0.18530273437,0.45983886718,0.005010443257595965,0.07060730161469128,0.026891479491,-0.15307617187,0.16027832031,0.0077006958827377505,0.0875339500041216,1.0840590882202,0.91041876318,1.34067422914,0.011479214496087629,0.10687290780926283,stairs up
-1.0460046386680504,-1.22399902343,-0.84777832031,0.008302175565812359,0.09088819883782107,0.3014508056602,0.20678710937,0.47106933593,0.005380716601995407,0.07316975481020441,0.016718139648550002,-0.15319824218,0.20886230468,0.011780387985763986,0.10826581198991289,1.0958516888026,0.88346168819,1.2972428478,0.009771686878321013,0.09860440377553838,stairs up
-1.0289453124957497,-1.2568359375,-0.77844238281,0.013468226080610629,0.11576219136750814,0.28256774901965004,0.1953125,0.41223144531,0.002988983233595707,0.05453474413094581,0.0468981933588,-0.16943359375,0.27685546875,0.010819366587251135,0.10375581792995937,1.0748508025371,0.84637383169,1.28107917042,0.012671733409639133,0.11228701947505303,stairs up
-0.9947890085156282,-1.49230957031,-0.74658203125,0.04586105460160641,0.2136131949126606,0.21558721340683412,0.05407714843,0.33374023437,0.005690904004853462,0.07524829896609879,0.09506394275738694,-0.04284667968,0.22277832031,0.004934539239380649,0.07006955515618585,1.0277117383746734,0.78697492146,1.52000237052,0.04535933652905558,0.21244152175266484,stairs up
-1.0120734219488556,-1.23962402343,-0.79931640625,0.015434207111760877,0.1239250580459915,0.24665247978487564,0.12072753906,0.39807128906,0.004726841081325028,0.06858078782742204,0.0662301286516418,-0.06201171875,0.38671875,0.008387575714921363,0.09135560454897564,1.0500236609993034,0.83533856513,1.26342970401,0.015450256382764817,0.1239894730837537,stairs up
-1.0024072265591502,-1.37780761718,-0.74951171875,0.02087938937740883,0.14413532679576435,0.24878234862925003,0.072265625,0.44738769531,0.007000035592237297,0.0834567877064299,0.051910400390099996,-0.09008789062,0.38671875,0.00828752202410867,0.09080795347318497,1.0424923945067002,0.81351834449,1.38348160197,0.018696798159280912,0.1363939667598406,stairs up
-1.04472839355105,-1.24291992187,-0.86633300781,0.008011269850627037,0.08928165265816881,0.2964691162071,0.15649414062,0.51721191406,0.009070390273835754,0.09500020169697838,0.0242010498038,-0.1572265625,0.17724609375,0.008792108775662198,0.0935315360281434,1.09330253240185,0.89707087361,1.30245035784,0.010423132326678665,0.10183818863788413,stairs up
-1.07303955077735,-1.30749511718,-0.83850097656,0.011960328589681959,0.10908953637601339,0.28926452636395,0.13159179687,0.4853515625,0.008815028798933717,0.0936533696934555,0.01041259765545,-0.20166015625,0.20825195312,0.013567393897714745,0.11618759369324322,1.1206251724608,0.8623660488,1.34089039218,0.013634699811985292,0.11647543222896992,stairs up
-1.0483117675747,-1.30578613281,-0.79614257812,0.019039618116929558,0.13763873011018704,0.267496337887,0.13537597656,0.42663574218,0.004399276724651892,0.0661610182889338,0.0479034423823,-0.17663574218,0.341796875,0.015175206043082002,0.12287933110522124,1.0924557939573998,0.84970749913,1.34726797398,0.0178572474750803,0.13329651622493702,stairs up
-1.03465759276965,-1.29663085937,-0.77099609375,0.019963050873600747,0.14093699166376705,0.25155700683250004,0.10437011718,0.43432617187,0.0055197764127809384,0.07410922702819828,0.05601501464789999,-0.14001464843,0.21789550781,0.00921689968808766,0.09576437327966608,1.07366200373665,0.81626869941,1.34111033148,0.01880509939820414,0.1367884275120272,stairs up
-1.02371276855095,-1.28698730468,-0.80725097656,0.01799935357011499,0.1338258450459567,0.24974792480064997,0.09887695312,0.47436523437,0.006896348616302848,0.08283638616707838,0.060785522458100004,-0.07653808593,0.19287109375,0.004399902601319818,0.06616572442219022,1.06074120318905,0.85863583594,1.32690616667,0.0181245877380826,0.13429059832837215,stairs up
-0.9941058349576001,-1.24035644531,-0.7333984375,0.016558909592576592,0.12835932005356568,0.27105163573880003,0.111328125,0.41003417968,0.005178953205003757,0.07178480646333692,0.0371551513667,-0.06677246093,0.22387695312,0.006461418968022778,0.08018174276718276,1.0368934176535998,0.80654592627,1.28644386533,0.016086664710603868,0.12651573572900268,stairs up
-1.00033691405915,-1.140625,-0.83459472656,0.006596830657944415,0.08101756911099402,0.34502197265285006,0.19091796875,0.56274414062,0.007526938394017135,0.08654076323933739,0.0381347656236,-0.12512207031,0.27258300781,0.010596838727585937,0.10268327290239636,1.0665899336606999,0.91045919787,1.25785548569,0.008192242958796642,0.0902844490707157,Null
-0.35134887695234995,-1.11804199218,0.447265625,0.3880056762399107,0.62134181241786,0.09562622070230002,-0.65588378906,1.23034667968,0.26212470529778975,0.5106996003242031,-0.36390075683385,-0.91442871093,0.19287109375,0.1509536164674563,0.3875549617604179,1.0095000750221,0.54345079334,1.52131832622,0.043218436978179266,0.20737006725486773,Null
-0.01977294921944999,-0.47839355468,0.24877929687,0.06057595696700627,0.2455057579409722,-0.8037353515584,-1.01586914062,-0.30444335937,0.03681755964512886,0.19139872477867562,-0.45953247069955,-0.83959960937,-0.20812988281,0.04363073385995882,0.20835685779608748,0.99790427948765,0.85525029149,1.12521472179,0.002068095169783432,0.04536248112630651,Null
0.42701477050479997,-0.14965820312,0.6416015625,0.016174860994562067,0.1268620774289514,-0.2923162841759,-0.64685058593,-0.05358886718,0.018320470688404356,0.1350143264063571,-0.8601947021449,-0.95007324218,-0.677734375,0.004771646898904571,0.06890419917835232,1.0219543374135,0.90544559689,1.1411617858,0.0024174128184604004,0.04904412048725207,Null
0.4479815673788499,0.17150878906,0.65808105468,0.024037154277584072,0.1546511186710143,-0.43601989745835,-0.61022949218,-0.26098632812,0.007355279799328982,0.08554825188355597,-0.7794653320268,-0.8896484375,-0.63427734375,0.005294956088638126,0.07258430483372377,1.0165949032746,0.9516367628,1.10749433842,0.001412859675006053,0.037493937865087236,Null
0.6146191406226,-1.16064453125,0.81530761718,0.16283170359663585,0.40251403090905125,-0.1588891601537,-0.37646484375,0.93896484375,0.09942030720221158,0.31452059656912856,-0.54768432616875,-0.70739746093,-0.02307128906,0.027566771457886358,0.16561683972530367,0.9877070581354499,0.55244044384,1.49307836033,0.015844251276762582,0.125558870735519,Null
-0.99700195312145,-1.30114746093,-0.89929199218,0.005361596339870014,0.07303963552873648,0.34709045409745004,0.12548828125,0.93896484375,0.01321998690499313,0.11469039615620902,0.017357177733799998,-0.19409179687,0.19665527343,0.00732977971155026,0.08539982911571023,1.06351976630695,0.95324976682,1.54147004847,0.00954116812968944,0.09743439992651975,Null
-0.9641455078078499,-0.98315429687,-0.95544433593,2.8257118397217293e-05,0.005302436497048428,0.31811157226235,0.28771972656,0.34838867187,0.00019665248278789849,0.013988181453425567,0.04162841796525,0.02514648437,0.0576171875,6.741254773959089e-05,0.008189962454180907,1.0162496511897998,1.0032192581,1.03442913645,3.2125437882146234e-05,0.005653743069218437,Null
-0.9755731201132,-0.99548339843,-0.95275878906,0.0001147917164002667,0.010687270831146059,0.27477233886369995,0.20739746093,0.34680175781,0.0014074647063253604,0.03742228457475216,0.00794616699055,-0.0576171875,0.07080078125,0.0012237592253719683,0.034894704888351016,1.0148707092661002,0.99570866041,1.03070371781,7.600151256679233e-05,0.008696062614997571,Null
-0.9755889892542501,-1.08044433593,-0.88146972656,0.0014957618530547412,0.03857827165373622,0.2769622802695,0.16650390625,0.4228515625,0.0023424408150731868,0.04827762018780359,-0.0009216308592000022,-0.09680175781,0.18298339843,0.004600994513173271,0.06766084200338779,1.0173372860127001,0.90904314304,1.1363644654,0.0019142489768330777,0.04364261371582724,Null
-0.8488049316363001,-1.13073730468,-0.48693847656,0.041192852251352635,0.20245218692347058,0.44755920409775,0.17956542968,0.85827636718,0.04754065929638193,0.21749242745415304,0.14284790038755002,-0.12060546875,0.49609375,0.028982925293284237,0.16981758055872134,1.02741777293075,0.93059172854,1.16107907824,0.002738844534961682,0.052202972255292836,Null
-0.7741815185519499,-1.03173828125,-0.4736328125,0.043316745368362414,0.20760578421980588,0.5525482177696,0.21838378906,0.89099121093,0.0516393587423074,0.22667413162642944,0.11155273437335002,-0.14111328125,0.46960449218,0.034321313142911584,0.1847963922191043,1.02189312882715,0.94589091961,1.08713484695,0.0012866949884490421,0.035780742215705874,Null
-0.97655944823895,-1.03173828125,-0.95458984375,0.00010484328783437513,0.010213670809028616,0.25463806151970003,0.16638183593,0.31860351562,0.0006356776206189814,0.025149537421509098,-0.11479675292665,-0.15258789062,-0.07287597656,0.00023353283691378805,0.015243528880453473,1.0161600302925498,0.98875431755,1.08713484695,0.00011097506877491536,0.010508101323790172,Null
-0.9519689941363001,-0.98754882812,-0.91833496093,0.0005338015134033881,0.02304631219601894,0.255687255856,0.23596191406,0.28942871093,0.00010452950269462254,0.010198375124555353,-0.1150811767536,-0.140625,-0.0673828125,0.00020972463316791095,0.01444562252040636,0.9926008184916999,0.96342213722,1.02620772004,0.0004543179390076329,0.021261381641666535,lift down
-0.97711120605055,-0.99096679687,-0.96557617187,3.251178742403587e-05,0.005687638216950485,0.25438842773035,0.23913574218,0.27355957031,8.991776250087612e-05,0.009458761741812283,-0.10518005370760002,-0.12683105468,-0.08715820312,0.00010364022348540105,0.010154901396270377,1.0152955615523,1.00734850086,1.02671921171,2.0280307389870596e-05,0.004492093704824204,lift down
-0.9751367187470001,-0.98828125,-0.96545410156,2.363185787211448e-05,0.004849092552504428,0.2533129882776,0.24279785156,0.26330566406,2.7020977974276535e-05,0.005185158925665167,-0.09734863280900001,-0.111328125,-0.08264160156,4.4799474021113874e-05,0.006676486849459699,1.0122310126728002,1.00472803286,1.02306793907,1.9295094842118463e-05,0.004381622914846492,lift down
-0.9767083740198,-0.99816894531,-0.96496582031,3.692158764251228e-05,0.006061103835465923,0.2590374755821,0.24792480468,0.2724609375,3.154903463418757e-05,0.005602793005369432,-0.0967504882777,-0.11145019531,-0.07421875,7.481256920962761e-05,0.008627775284717346,1.01514828623335,1.00364018042,1.03466348975,3.702748687882224e-05,0.0060697899011768214,lift down
-1.0014764404252,-1.03649902343,-0.97204589843,0.0004788949557653864,0.021828890970146866,0.25358032226189997,0.22985839843,0.26452636718,5.330109566973996e-05,0.007282485165888857,-0.09689208984,-0.12060546875,-0.07849121093,9.153794404023597e-05,0.009543597556479148,1.0376235794328,1.00740120501,1.07377084584,0.0005063535586999074,0.02244597493775683,lift down
-0.9791137695278,-0.98950195312,-0.96850585937,1.7930664609428367e-05,0.004223862129187129,0.24549316405879998,0.22985839843,0.25842285156,4.310274843245672e-05,0.006548834605507642,-0.086809082028,-0.10607910156,-0.07421875,4.734346614690088e-05,0.006863435642312557,1.0131915020066,1.00276817202,1.02347580641,1.7386186475807658e-05,0.0041592373752202,lift down
-0.9802807617158001,-1.00048828125,-0.97119140625,3.7783480170473824e-05,0.006131440513421088,0.2487939453084,0.23400878906,0.25866699218,3.291113292694969e-05,0.005722462517335954,-0.09058837890259999,-0.10290527343,-0.06823730468,5.916330084662264e-05,0.007672514864266444,1.0154566737638,1.00770741291,1.03530655975,3.216656906206506e-05,0.005657361241493664,lift down
-0.9821923828086,-1.04870605468,-0.94750976562,0.0003792901973456928,0.01942662467746171,0.2512597656208,0.06628417968,0.33703613281,0.0020534437745066015,0.04520151054593274,-0.028027343748,-0.13562011718,0.18212890625,0.009079453333509454,0.09504765155879395,1.0196475683683999,0.98725198214,1.09570087425,0.00039431291977690076,0.019807608517385843,Null
-1.0205371093714002,-1.171875,-0.88012695312,0.007004167901849179,0.08348141746724197,0.27475097655860004,0.06005859375,0.48583984375,0.007172203279697269,0.08447687413309504,0.045532226561,-0.11804199218,0.21240234375,0.00619109311857206,0.07848654440717338,1.0633942877104,0.89787630715,1.24136335396,0.00855828163109609,0.09227941386322634,Null
-1.0122778320280001,-1.22253417968,-0.84216308593,0.004616135981822442,0.06777208349986984,0.2670190429648,-0.01135253906,0.43896484375,0.011035481343771735,0.10478694545148683,0.0289038085922,-0.21081542968,0.21350097656,0.006246763431367745,0.0788386302152118,1.0548664681206,0.84760276344,1.28142283018,0.005916213025155559,0.0767243896035008,Null
-0.9851293945276001,-1.0224609375,-0.92260742187,0.0004914697630617491,0.022113625081529267,0.2712329101526,0.20776367187,0.38146972656,0.0014831447182543317,0.03841521826910606,0.04074462890319999,-0.02709960937,0.15197753906,0.0018628244363560458,0.04305241356967418,1.0241560112416002,0.9519333347,1.07416896357,0.000633222768597832,0.02510092936038112,Null
-0.9766992187468001,-1.07202148437,-0.91259765625,0.0011185950609869744,0.033361685893881915,0.2952221679654,0.1552734375,0.44067382812,0.00316544286565123,0.05612143664699768,-0.006999511719,-0.17822265625,0.14904785156,0.005953593834686771,0.07696639439075562,1.0245817710672,0.95821336413,1.12969340036,0.0015729884623076867,0.03956164202856282,Null
-0.9712573242156001,-1.11022949218,-0.80517578125,0.006637003679271507,0.08126388288086626,0.3309082031212,0.21215820312,0.51000976562,0.005625373754072545,0.07481475045271609,0.0120996093748,-0.15454101562,0.12609863281,0.004588873925012102,0.0675716623695691,1.0307268150112001,0.87452368885,1.18794449844,0.007393625328114436,0.08577095779734457,Null
-0.9039160156209999,-1.10021972656,-0.52978515625,0.023312596004742333,0.15230243932622556,0.42733642577779996,0.19738769531,0.81762695312,0.037516333236095364,0.19320649981280363,-0.0172094726542,-0.29418945312,0.2802734375,0.017678984738359823,0.13262952090190186,1.0331633085636,0.6977442106,1.1788340633,0.010719298782685835,0.1032748870189283,Null
-0.7370166015591999,-0.90051269531,-0.666015625,0.0018137925593548336,0.04248203851697867,0.6858740234338001,0.60485839843,0.79626464843,0.0021230338445890505,0.045961056073224704,-0.16542968749579998,-0.26745605468,-0.08532714843,0.0023852448966401444,0.048716718610318406,1.0230977922508,0.98407422117,1.11831160991,0.0005477356147628587,0.02334516945085309,Null
-0.7754565429652002,-0.82678222656,-0.71362304687,0.0004529289324621225,0.021228855075105014,0.6404516601531999,0.53479003906,0.70959472656,0.0009653664653571769,0.030992573836814377,-0.1594213867154,-0.228515625,-0.12731933593,0.0005422462111534713,0.023227892287026472,1.0192176034204001,0.98979822218,1.03176362078,7.293803129339736e-05,0.008518998834189988,Null
-0.7846582031204001,-0.81640625,-0.75805664062,0.00038427374469627977,0.019553832769377933,0.6723242187462,0.64196777343,0.71105957031,0.00035588492102272445,0.018817691049053037,-0.1496777343712,-0.1640625,-0.13171386718,5.71445963650057e-05,0.007540482304414,1.0441483023168,1.01625818908,1.08954975305,0.0006627281609954712,0.025679067743796576,lift up
-0.5052685546854,-0.92260742187,0.45678710937,0.18864261646117966,0.43324289189653625,0.6732055664024,0.22253417968,1.13073730468,0.034638344492667866,0.18564792692137588,-0.3143676757774,-0.7490234375,-0.12170410156,0.03805190729127714,0.19458069728218355,1.0193002958997999,0.6432744691,1.3504766722,0.028524817334390433,0.16847015536206547,lift up
-0.6991113281215999,-0.76147460937,-0.56665039062,0.0028161646972839805,0.052934713315532,0.7281079101524,0.61926269531,0.89636230468,0.003164781164222517,0.056115570552221994,-0.1465478515594,-0.45544433593,0.107421875,0.01002648082779112,0.09988167211081402,1.0273935041588,0.93454437857,1.11372715235,0.000767867236226781,0.027641054611675854,lift up
-0.7086108398398,-0.79858398437,-0.3251953125,0.004526185875468474,0.06710853109770122,0.7282177734336002,0.69384765625,0.93627929687,0.0018815090668147707,0.043267788497688406,-0.15179443359,-0.33666992187,-0.11889648437,0.0018848415895220334,0.043306089428328934,1.0305390342142002,0.88353736623,1.19377451791,0.0017209756430393,0.04138080188715661,lift up
-0.3788232421854,-0.84020996093,0.27282714843,0.15740447214205738,0.39574922587586586,0.7677563476526,0.41064453125,1.07470703125,0.03548425598339671,0.18790113012826645,-0.2997656249968,-0.59313964843,-0.12841796875,0.017179082050857566,0.13074091417992792,1.0128836973174,0.7895541595,1.17286661155,0.005930025072695541,0.07681389813915229,lift up
-0.7705151367149999,-0.79858398437,-0.72265625,0.0005867477697361042,0.024162243912505803,0.584711914059,0.55346679687,0.60510253906,0.00018193611546575903,0.013454606456096375,-0.2720385742144,-0.32604980468,-0.24426269531,0.00027050157886955806,0.016405763346312486,1.0050549046762,0.96431249595,1.02723897102,0.00048765058855644025,0.022027535849787148,lift up
-0.6181518554650001,-0.86181640625,-0.095703125,0.05552054365049275,0.2350381690965114,0.712338867184,0.59191894531,1.08703613281,0.02603845395030732,0.16096043514030328,-0.14445800781079998,-0.37817382812,0.373046875,0.05108333053200461,0.2254504687938009,1.015542060906,0.7483565882,1.33239993253,0.01111551071363471,0.1051662168192169,lift up
-0.4898852539024,-0.62219238281,-0.40063476562,0.0039128927789391175,0.06239654089005593,0.8489990234336,0.72827148437,0.94348144531,0.00558576871403757,0.0745509213254094,0.21697021484139994,-0.11584472656,0.49047851562,0.03171835777700887,0.17765068530158792,1.0239644741385998,0.9637370152,1.071809418,0.00037253044006782223,0.019252734555576335,lift up
-0.5193774414028,-0.57983398437,-0.36413574218,0.0025733863948490415,0.05060157569557292,0.8732690429654,0.78625488281,0.9892578125,0.001591486960816242,0.03979358649345596,-0.0101074218734,-0.10095214843,0.1171875,0.003086158378344305,0.05541414608610859,1.0186121414902,0.90988255752,1.13407259606,0.002108532460866624,0.04580381860240793,Null
-0.627473144528,-1.18542480468,0.09191894531,0.1182645827735883,0.34303536240411187,0.6792187499960001,0.27514648437,1.09033203125,0.06865127982831988,0.2613580368559159,-0.27849609374640005,-0.87048339843,0.13269042968,0.06568198177626615,0.255643446752278,1.071805706003,0.52810846618,1.44813980183,0.03536494012039229,0.1875849552064086,Null
-0.9771850585904001,-1.16552734375,-0.86560058593,0.0031964199328249026,0.05639537067136609,0.3158544921834,0.15124511718,0.44555664062,0.0037786512758828605,0.06131686570188863,0.0082519531248,-0.20971679687,0.22497558593,0.006109450330175627,0.07796732058064294,1.0315424578056,0.89151312231,1.21752930299,0.003680452632720798,0.06051487725805278,Null
-0.9883251953093,-1.15954589843,-0.87683105468,0.003869227883766305,0.06204741529143236,0.30141662597249996,0.20031738281,0.43933105468,0.0038977559333676377,0.06227573487082107,0.0189770507805,-0.12622070312,0.13269042968,0.0035537794063222627,0.05946436335563218,1.0370207790856,0.91946486441,1.19457310515,0.0038702167893712954,0.062055343890953005,Null
-0.9943115234334,-1.17138671875,-0.89050292968,0.002857701862320352,0.053323665974956656,0.282111816403,-0.02868652343,0.509765625,0.011057764687020627,0.10489268736945166,0.08989501952920001,-0.13513183593,0.27807617187,0.012132480569266024,0.10987182608121017,1.0483915023239998,0.9322728505,1.26332979126,0.0031322234790961507,0.055826179895284524,Null
-0.9740722656209999,-1.08276367187,-0.89270019531,0.0015064663623179128,0.038716069409307594,0.31911621093379994,0.13171386718,0.38256835937,0.002807034320005862,0.052848832990008705,-0.0270629882794,-0.17553710937,0.166015625,0.004136694885043187,0.06415614865792654,1.0288790076844,0.94731950901,1.10906767282,0.0012063037222321048,0.034644944849442964,Null
-0.9723266601522,-1.0166015625,-0.91906738281,0.00043347088537389766,0.020767848491045675,0.2957666015592,0.2392578125,0.35900878906,0.0009023836749424824,0.029964508281761778,-0.05591064452839999,-0.11572265625,0.04162597656,0.0014915037933169682,0.03852332117497638,1.019067808703,0.98615296574,1.07016260252,0.00033873330574585303,0.018358639361813384,Null
-0.9559906005825001,-1.00280761718,-0.90673828125,0.0003784812481072287,0.019405897089974804,0.2380236816373,0.12353515625,0.32360839843,0.00391622476098945,0.06242310179079939,-0.04352844238155001,-0.1279296875,0.06066894531,0.0034695721863571205,0.05875563228683132,0.9897257921850999,0.93870118595,1.03433541196,0.0006395374917046814,0.025225776583609038,lift down
-0.9734960937464001,-0.98413085937,-0.96118164062,3.6634775863943244e-05,0.00603751620988495,0.27575439452739997,0.25073242187,0.31665039062,0.00022331463630942446,0.014906309507315262,-0.08088378905860001,-0.103515625,-0.06018066406,9.399263105198601e-05,0.009670711860909004,1.0151885903738,1.00272128754,1.02604855456,2.172490549378435e-05,0.004649331238610068,lift down
-0.9961059570270001,-1.03649902343,-0.96020507812,0.0005173582827072343,0.02268857622887999,0.289062499996,0.26623535156,0.32702636718,0.00015383928863098453,0.01237214986119347,-0.0808789062458,-0.09252929687,-0.0703125,3.2739519473221084e-05,0.005707523269847876,1.0404036509542,1.00421083037,1.08542259276,0.000589210545273952,0.02421289930073601,lift down
-0.9711560058559501,-0.97998046875,-0.96496582031,1.1752237330878298e-05,0.003419572508987623,0.27779357909735003,0.25720214843,0.29321289062,7.234200423277284e-05,0.008484120120060123,-0.07989196777025001,-0.091796875,-0.06140136718,4.9501049084979685e-05,0.007018086907381154,1.0133019073332,1.00632435689,1.01929770823,1.1436332992403945e-05,0.003373299768393246,lift down
-0.973521170300603,-0.99633789062,-0.9619140625,3.787314859235267e-05,0.006138634315769499,0.2738484904963316,0.25109863281,0.29638671875,0.00011150465327818884,0.010533011363676755,-0.07481990027849245,-0.09118652343,-0.0654296875,2.8885514843598837e-05,0.005361003777528629,1.014134825260201,1.00087369064,1.03810072966,4.262013476469665e-05,0.006511986120471677,lift down
-1.0221948242148,-1.1767578125,-0.84338378906,0.007953185945341307,0.08895740562547112,0.26671386718400003,-0.17651367187,0.48962402343,0.016528989705126933,0.1282433029697898,0.07228027343539999,-0.07751464843,0.26611328125,0.008396874504145092,0.09140508810577432,1.0696801613972,0.86726603281,1.23030024388,0.009790945471255074,0.09870152351356487,Null
-0.99624938964525,-1.29968261718,-0.76525878906,0.00941966480602445,0.09681201620663794,0.26814514159795005,0.06115722656,0.4169921875,0.0052411413817642265,0.07221451152542269,0.01663085937285,-0.28503417968,0.11950683593,0.004454772112616707,0.06657700993626571,1.03868874728235,0.77887183623,1.33952504029,0.009207063076299963,0.09571325802060268,Null
-0.98997680663755,-1.24584960937,-0.90588378906,0.005024404799754528,0.07070560639550272,0.2896051025352,0.14782714843,0.42126464843,0.006092148764245318,0.07785684311879137,0.15545471191125,-0.08264160156,0.53942871093,0.04074092066654551,0.2013385607955237,1.0646239806992002,0.93915796699,1.30024469896,0.006296811185113372,0.07915381942261412,Null
-1.0932703066071356,-1.49206542968,-0.69836425781,0.02685229216966305,0.16345444633936074,0.33084857882819085,-0.03259277343,0.83190917968,0.03950660673345415,0.19826265677498875,0.05866429314286433,-0.27709960937,0.31188964843,0.008959213330986877,0.0944149996476691,1.161681183645779,0.70403775205,1.59409661824,0.03374829093610578,0.18324492226093692,Null
-0.9871631831044279,-1.52685546875,-0.25219726562,0.08576506710812425,0.2921273270886591,0.2356145298870149,-0.25695800781,0.65588378906,0.035574538574409245,0.1881423684880886,-0.2716787157951741,-1.05773925781,0.24792480468,0.1363812554277536,0.3683785304807513,1.1408262269767664,0.59757692147,1.72935895444,0.06301459390246263,0.250401853947134,Null
-1.02042175292595,-1.43127441406,-0.68872070312,0.038156781783430814,0.1948486537662338,0.3281866455043,0.05139160156,0.70971679687,0.028897188865717727,0.16956621987114398,0.022109985351,-0.60571289062,0.29504394531,0.025809046750387237,0.16024980972417815,1.09556103074095,0.72201994642,1.46606092619,0.04180965810991933,0.20396227548095683,Null
-1.1137023925740002,-1.74426269531,-0.63793945312,0.05167230375886501,0.2267464271825924,0.3172485351525,0.03381347656,0.62951660156,0.02434199434429869,0.1556286746476278,0.0237390136709,-0.23486328125,0.21752929687,0.009609225393372445,0.09778128280200452,1.17123825550235,0.65967001304,1.77592934302,0.05521562590871747,0.23439186798857564,stairs down
-1.0849041748016002,-1.30358886718,-0.87158203125,0.015057889042858827,0.1224034296808898,0.2982855224564,0.06750488281,0.58752441406,0.02245347040043631,0.14946973957438384,0.0309826660136,-0.076171875,0.11584472656,0.002349481269388532,0.04835011750804324,1.13456199590555,0.87615234414,1.37233374839,0.019479257243583972,0.1392187521757254,stairs down
-1.0476818847626501,-1.25830078125,-0.73986816406,0.016062094456898025,0.12641908077744252,0.29774719237864994,0.11584472656,0.5869140625,0.017676223971521528,0.13261916472238816,0.013760986327099997,-0.22216796875,0.13354492187,0.0058597626858215525,0.07635747424052504,1.0983346429024499,0.75346699701,1.32912724208,0.01963938681393411,0.13978980606562283,stairs down
-1.0655297851524,-1.55029296875,-0.66650390625,0.05236275033752288,0.228256295829568,0.2840570068319,-0.02648925781,0.51708984375,0.018361486756245323,0.13516537767662287,0.030613403318800005,-0.23779296875,0.28991699218,0.014690880480781984,0.12090254785726424,1.1180065417500002,0.68973155248,1.57138663416,0.05229015199201036,0.22809800795283222,stairs down
-1.0259759521447,-1.57214355468,-0.66784667968,0.055400214197705654,0.23478333230175674,0.28387390136249996,0.119140625,0.55676269531,0.008993078565677362,0.09459446692512716,0.02958923339745,-0.42932128906,0.25805664062,0.01840294079748758,0.1353178705622437,1.0773558175992,0.69548993579,1.62020631421,0.056053531322435034,0.2361636374758461,stairs down
-1.0429925537067,-1.66577148437,-0.63989257812,0.0648550453643561,0.2540290734099826,0.2962469482385,0.02099609375,0.62341308593,0.017476838497113505,0.13186908016903712,0.038970947263599995,-0.1552734375,0.24157714843,0.00704070188101734,0.08369885525867277,1.0955066181513002,0.64407301132,1.68882521939,0.06623661161783036,0.2567205261753357,stairs down
-1.1487829589803,-1.53295898437,-0.74914550781,0.031970195002249714,0.1783545458552668,0.3396514892538,0.04809570312,0.72106933593,0.03044934330232319,0.17406061181614746,0.046856689450199995,-0.15502929687,0.15075683593,0.0037383826156603805,0.0609892671097307,1.21175915685965,0.75160628407,1.57732245368,0.03490235922014343,0.18635409151409235,stairs down
-1.0640704345658,-1.27368164062,-0.86901855468,0.012189033594125157,0.1101276006555783,0.3033453369096,0.10388183593,0.62646484375,0.019371169820184542,0.1388319630743714,0.045153808590000004,-0.01770019531,0.11254882812,0.0008316260186737673,0.02876574157883642,1.11440623476865,0.88771016829,1.36833039061,0.016715340473168444,0.12896419569323342,stairs down
-1.064152221676,-1.5595703125,-0.56384277343,0.048842371090875476,0.22044990187210584,0.27069702148095004,0.01013183593,0.50231933593,0.01643261444486448,0.12786888351995632,0.0451190185532,-0.16906738281,0.20825195312,0.010738323482743251,0.10336649295264658,1.1092571056911502,0.57275032894,1.62494608899,0.053180371977497094,0.2300314546265567,stairs down
-1.0085504150357,-1.51818847656,-0.64660644531,0.04952986849860461,0.2219959890541079,0.2734796142539,0.08557128906,0.51342773437,0.009218805638573382,0.09577427426183147,0.028477172850449997,-0.21350097656,0.25671386718,0.011372564631519227,0.10637528758297969,1.0547944104272,0.66864262993,1.53070834856,0.0502064047839512,0.2235069859311593,stairs down
-1.02949218749605,-1.41906738281,-0.62683105468,0.05039662841608694,0.22393000083509693,0.29422607421495,0.04223632812,0.73352050781,0.022295017787704353,0.1489414069316046,0.025178222655,-0.25146484375,0.25671386718,0.015836956099046874,0.12552996183601603,1.0867658919924,0.64140414331,1.4624146679,0.054354718644394444,0.232557401626292,stairs down
-1.04288024901975,-1.45874023437,-0.58996582031,0.057187424373545105,0.23854032625884744,0.33510559081674995,0.08825683593,0.69104003906,0.023959104151897392,0.15439983364996837,0.06352478027245001,-0.18188476562,0.26220703125,0.014375838786060996,0.1195991621715248,1.11199623445125,0.6194939673,1.52688223361,0.06275326486564949,0.24987896778504837,stairs down
-1.09420654296525,-1.38208007812,-0.8232421875,0.016982549584728043,0.12999091059302723,0.32690368652005,0.08715820312,0.55139160156,0.021413927026885184,0.14596868633974466,0.0264685058577,-0.09558105468,0.12670898437,0.002840759333019768,0.053165360304945446,1.1513513554550001,0.82801203587,1.41968340753,0.020377554559010597,0.14239265004281484,stairs down
-1.0914416503867002,-1.39343261718,-0.78564453125,0.018403103781551616,0.13531846977646422,0.3086401367151,0.03149414062,0.58093261718,0.022005668770861662,0.1479717555042426,0.040859985349799996,-0.07287597656,0.19860839843,0.003588989741807786,0.0597582194605792,1.14504824731305,0.84401920227,1.4185099449,0.02092003357030564,0.14427554679312124,stairs down
-1.03798767089475,-1.544921875,-0.59069824218,0.06230299222723203,0.24898087731007754,0.29682800292565,0.08532714843,0.53369140625,0.017675085534787263,0.13261489398673637,0.04911010741985001,-0.21643066406,0.24560546875,0.01266119683593468,0.11224032631703726,1.09294936490965,0.60732358032,1.63222327392,0.06590435665310901,0.25607583812191936,stairs down
-1.04613281249565,-1.47180175781,-0.65112304687,0.050572239178322966,0.22431981183665287,0.27000976562085,0.05212402343,0.50854492187,0.012010757252101855,0.10931927307589155,0.02550354003775,-0.22387695312,0.212890625,0.016053635860125225,0.12638578907782552,1.0926001731059,0.66785003767,1.5036981067,0.05268128273883035,0.2289495060600398,stairs down
-1.06700683593325,-1.60266113281,-0.5869140625,0.0722317344215853,0.26808688097233957,0.29925537109025,0.06689453125,0.6572265625,0.02124838448642794,0.1454033787915391,0.039200439452,-0.2021484375,0.25305175781,0.01221934609479472,0.11026445195220781,1.1225271927746,0.60641146456,1.65093521974,0.075073074038409,0.2733088155698915,stairs down
-1.1163940429643,-1.79772949218,-0.6650390625,0.0854824195846801,0.29164191654622745,0.30010375976245,-0.08410644531,0.88391113281,0.04088101071733454,0.20168442097432285,0.029957275389699996,-0.21557617187,0.21716308593,0.01456667148657953,0.12039035729304334,1.1774154789483,0.67406935865,1.83396339201,0.09167196517778523,0.3020159024818003,stairs down
-1.0187127685514499,-1.470703125,-0.72436523437,0.03955567419199819,0.19838824516850334,0.3712646484333,0.10925292968,0.64379882812,0.020603245227292063,0.1431790103372544,0.10722656249805,-0.13342285156,0.41613769531,0.020494169026246994,0.14279950343441591,1.11042741880285,0.79299574369,1.53503373314,0.03448386961211975,0.18523350200236227,Null
-0.70033874511405,-0.80810546875,-0.54870605468,0.004067593848513897,0.06361804680490692,0.682858276363,0.45593261718,0.90734863281,0.012708159013774539,0.11244829131074276,0.2270928955065,-0.32019042968,0.82775878906,0.06417416486770398,0.2526920933534832,1.04046166928155,0.90443159051,1.20923210157,0.0063574367775198915,0.07953395245825705,Null
-0.63606689452785,-0.76574707031,-0.5732421875,0.0022916596798119335,0.047751454233487735,0.6785241699187501,0.41345214843,0.88232421875,0.012739880886231526,0.11258854951459482,0.19910827636575001,-0.45788574218,0.64953613281,0.09867289221843763,0.31333612584147624,1.00763266242575,0.91264579894,1.17036621877,0.002444801437242323,0.04932116614655529,Null
-0.76128417968415,-0.9423828125,-0.57446289062,0.01060459162118785,0.10272082876944631,0.6132012939417499,0.28100585937,0.81579589843,0.014904464398967603,0.1217782496054725,0.09295898437394999,-0.32409667968,0.45483398437,0.03604086903349159,0.18936912284827254,1.0109706816165498,0.87404854168,1.16473772319,0.003408299744393672,0.058234510779019207,Null
-0.6603955078085001,-0.86730957031,-0.5390625,0.004206707106111598,0.0646967817637094,0.7426135253868,0.15454101562,1.06066894531,0.01880645032963008,0.1367933407662154,0.19636352538700003,-0.05017089843,0.49157714843,0.017576809622550007,0.13224570153482212,1.02790155858,0.69470364991,1.24196681575,0.010011167855847294,0.09980537067997923,Null
-1.01192565917645,-1.24670410156,-0.20263671875,0.02973970249628586,0.17202035921310138,0.31498291015249996,0.05639648437,0.84509277343,0.028459700873180675,0.16827775363610833,0.04764160156125,-0.19030761718,0.60229492187,0.027184712550382042,0.16446516040678685,1.09407776666345,0.80651101648,1.29199512276,0.013496011475869426,0.11588154045614893,Null
0.09087036132575,-0.48266601562,0.26293945312,0.0287218200478852,0.16905091229462732,0.33287597655960005,-0.15942382812,0.85583496093,0.11092602957209713,0.3322219129200189,0.8608050537064501,0.59753417968,1.10070800781,0.019662950862374077,0.13987364336451025,1.00745655005705,0.85771033576,1.13994897771,0.003612789000147334,0.059956026011958104,Null
0.010308227538249998,-0.19506835937,0.13232421875,0.0064520977690655885,0.08012388707632861,0.0005749511725500001,-0.17138671875,0.11572265625,0.005088701258251506,0.07115657209253583,0.9968878173791501,0.80847167968,1.24084472656,0.016728164712021078,0.12901365775940535,1.0027403086621498,0.81115609679,1.24679097487,0.016614475241542675,0.1285745031696991,stairs up
-0.044437866209000004,-0.21960449218,0.07922363281,0.006550844047293431,0.08073468787985102,-0.005241088867399999,-0.16101074218,0.09436035156,0.005052558602202811,0.07090342593409571,1.0154339599562001,0.80200195312,1.24597167968,0.019190483443297796,0.13818296214107334,1.0219781760607,0.80727922778,1.25742379692,0.019405873684967233,0.13895626764037095,stairs up
-0.034857788084849996,-0.22583007812,0.11633300781,0.0072436958244084994,0.08489686298849008,-0.0063006591797,-0.1533203125,0.091796875,0.0037928723322639968,0.061432141185235246,1.00262451171405,0.80163574218,1.28161621093,0.01756406040054159,0.13219773106426175,1.0086713814476,0.80618755557,1.28262159155,0.017617568009070248,0.1323989432322815,stairs up
-0.05276123046719999,-0.23303222656,0.1044921875,0.005843257058969954,0.07624985753216267,0.0040637207035,-0.18896484375,0.14306640625,0.006220971308056035,0.07867570432805641,0.9917028808556999,0.77355957031,1.22045898437,0.017347324869459682,0.13137955794229322,0.9991185072429001,0.77753851477,1.22780870193,0.01738851167583887,0.13153542913397773,stairs up
0.037141113279600006,-0.15087890625,0.19494628906,0.006474572994779087,0.08026331746075034,0.030393066405700005,-0.10131835937,0.14770507812,0.003845249282295732,0.06185485458623481,1.015979003902,0.79028320312,1.251953125,0.01266222458392941,0.11224488166954323,1.0221290814855999,0.79232675656,1.25618976856,0.012699311114292693,0.11240913912454463,stairs up
0.08113464355144999,-0.09631347656,0.21911621093,0.004384735061211613,0.0660515812521211,0.04542114257615,-0.068359375,0.17834472656,0.0031905673239802862,0.056343717372573,0.99741455077735,0.75866699218,1.30151367187,0.0231462212005285,0.15175799845321453,1.00740890798115,0.76858409936,1.30470386083,0.022892149756927656,0.15092279154635002,stairs up
-0.056986083983100004,-0.28149414062,0.11340332031,0.006732013673031719,0.0818434701406689,0.0069421386716,-0.21069335937,0.12463378906,0.006615269020405233,0.08113071351407682,1.009660644528,0.775390625,1.34240722656,0.02788503446159931,0.16657013324510284,1.0176321922709,0.78172166891,1.3452113489,0.028302614056614044,0.16781269614165364,stairs up
-0.028441162109400002,-0.19653320312,0.14709472656,0.006976572860187804,0.08331680500287361,-0.02794921875,-0.1923828125,0.1181640625,0.00724852891390103,0.08492518041977612,0.9970202636691999,0.72375488281,1.41064453125,0.03740584733351771,0.19292179269551205,1.0047560917847,0.73008907875,1.41068564857,0.03766578399755815,0.19359094781928818,stairs up
-0.0555310058576,-0.25268554687,0.09643554687,0.009263998327801552,0.09600874093624259,-0.0346118164061,-0.19592285156,0.09680175781,0.006135729814523052,0.07813482684085526,1.0007458496051,0.71252441406,1.39123535156,0.03337313299048778,0.18222586898005272,1.0103580171884001,0.71615793506,1.39466090628,0.03364783907436331,0.1829743148067277,stairs up
-0.047144775389699994,-0.25366210937,0.18286132812,0.009552561246212942,0.09749255581828735,-0.0322998046865,-0.18664550781,0.16247558593,0.007093883339032472,0.08401436735664508,1.0029541015585999,0.78723144531,1.25183105468,0.015655487925520635,0.1248086955540079,1.0126470601157,0.79090422799,1.25301970874,0.01594893622983343,0.12597297943878386,stairs up
0.09693237304379998,0.00744628906,0.2158203125,0.0023306162677906653,0.048155614277586696,0.0218835449203,-0.16296386718,0.14111328125,0.003720878612410244,0.06084631639917237,0.9980627441365,0.83166503906,1.19458007812,0.01161662317854576,0.10751065092656184,1.0060291468504,0.83511531361,1.19865914499,0.011546883286105857,0.10718744735124225,stairs up
0.1301782226529,0.02490234375,0.24108886718,0.0027960057174244994,0.05274491149710441,0.0276770019521,-0.12182617187,0.14794921875,0.00530623366901386,0.07266156136960444,0.9981140136672002,0.83581542968,1.19006347656,0.010749579786290209,0.10342065503253572,1.0109304170723,0.84499834572,1.20225445723,0.010775097773496368,0.10354333529797505,stairs up
0.0496667480444,-0.12756347656,0.19311523437,0.005282244087372194,0.0724971231631665,0.0249951171867,-0.1806640625,0.11572265625,0.005136529739955148,0.07149018877619064,1.0021960449182001,0.79516601562,1.26135253906,0.014167875649149984,0.11873094066377236,1.008957763812,0.79680741715,1.26427621555,0.014026533935724221,0.11813721372220355,stairs up
-0.0172363281252,-0.17541503906,0.10461425781,0.0051296275460061625,0.07144214028342188,0.0095837402339,-0.13500976562,0.17407226562,0.004419320340563195,0.06631156564929212,1.0146728515589,0.82800292968,1.2138671875,0.01270460663140791,0.11243257356411829,1.0194484620714999,0.82828557958,1.21484726417,0.012881462007290767,0.11321243172573546,stairs up
-0.0677368164035,-0.20788574218,0.02099609375,0.004094661330334127,0.06382936646781366,0.0207226562487,-0.15124511718,0.1708984375,0.005091084343303078,0.0711732317770281,1.0097424316365,0.8193359375,1.19787597656,0.012182319492215418,0.11009726560979768,1.016630236411,0.81960971336,1.20333192333,0.012383588219932606,0.11100301923296024,stairs up
-0.0249096679682,-0.19458007812,0.11364746093,0.0066149288141646514,0.08112862731547865,0.0035900878908000002,-0.17578125,0.19934082031,0.008045826453317171,0.08947400360468165,1.0020202636679,0.80908203125,1.23815917968,0.013133636783382129,0.11431521595774212,1.0095886907422,0.81114278741,1.25367920742,0.013129733373457405,0.11429822704919844,stairs up
0.059195556638,-0.20397949218,0.20666503906,0.00945274501975233,0.09698186064751267,0.0076342773432,-0.15734863281,0.16577148437,0.0065951570249357895,0.08100729127560748,0.9992419433554001,0.80822753906,1.25756835937,0.014243047529359384,0.11904550513023407,1.009055793258,0.81611441,1.26146351739,0.014063073764450224,0.11829099034004227,stairs up
0.10842041015239999,0.00024414062,0.17236328125,0.0022625238392102124,0.047446930564728436,0.0523144531221,-0.083984375,0.17199707031,0.0036614795783002905,0.06035869598002254,1.0020227050741,0.85070800781,1.19897460937,0.011220538812260643,0.10566189529910648,1.0122890615908,0.85542936539,1.19994012588,0.010925592089612534,0.10426391575787124,stairs up
0.0824914550758,-0.03137207031,0.16613769531,0.0033580567533014285,0.05780368906510139,0.0066357421872,-0.15710449218,0.13635253906,0.005675908464524903,0.07515004272921126,1.0143493652306,0.86328125,1.23229980468,0.00918188268055461,0.09558228532082626,1.0221329580064,0.86708920583,1.23257780826,0.009168334465031762,0.09551174164837851,stairs up
0.0028930664058,-0.12182617187,0.11547851562,0.003826128327836614,0.061700872653451436,-0.0379675292954,-0.212890625,0.13464355468,0.0056828815894272725,0.075196191269772,1.0049499511677,0.78918457031,1.37048339843,0.018083075894425236,0.1341367232153563,1.0102556460877001,0.78924989835,1.37279727452,0.018303479795911792,0.13495170394230757,stairs up
-0.0792639160124,-0.2607421875,0.02197265625,0.005349524073431607,0.07295736051327822,-0.0523352050758,-0.1611328125,0.09899902343,0.0039161335445698385,0.062422374809414205,1.0026757812462,0.77795410156,1.23046875,0.015414621566446973,0.12384485640758254,1.011490768404,0.78270115545,1.24317260883,0.015903284010512223,0.12579255777055995,stairs up
-0.0617944335912,-0.23571777343,0.09790039062,0.006516922831670271,0.08052538865172847,-0.0612414550766,-0.19958496093,0.10144042968,0.005829891874964138,0.07616260509980811,0.9938476562465002,0.8125,1.21362304687,0.013729261093934951,0.11687863272842165,1.0036589898971,0.81670600462,1.22176941344,0.013986491547593809,0.11796846650633312,stairs up
0.0016955566408,-0.1083984375,0.134765625,0.0038308686628164357,0.06173908259362422,-0.0027893066402,-0.13098144531,0.19384765625,0.006543382440183868,0.08068869516842461,1.0092285156210001,0.82946777343,1.2626953125,0.01422149871483883,0.11895541694796684,1.0144229930378998,0.83368272708,1.2647820126,0.014041823266008752,0.11820158268686046,stairs up
0.1055566406221,-0.04113769531,0.22192382812,0.0037130201520093604,0.0607820290155677,0.0345800781243,-0.14270019531,0.19055175781,0.00563907775408422,0.07490582330709541,0.9983410644496,0.8271484375,1.2177734375,0.011974995488210587,0.10915640389262342,1.0092073405584998,0.83150069464,1.22319176253,0.011802883253444203,0.10836913230794544,stairs up
0.12606445312115,-0.04113769531,0.23754882812,0.0037842071175010635,0.06136192697360113,0.03876831054525,-0.10009765625,0.18054199218,0.004221597686404052,0.06481118497583602,0.999307250973,0.81750488281,1.22265625,0.013178831209649569,0.11451173325734496,1.0118923352448,0.83022991812,1.22857775023,0.013228969643019114,0.11472935454714289,stairs up
0.0492346191386,-0.16528320312,0.20141601562,0.008776162154022516,0.09344667646980497,0.0202148437494,-0.16821289062,0.14904785156,0.006791270257929758,0.08220288259325283,1.0062316894498,0.7822265625,1.32434082031,0.020573392697439737,0.14307524500748736,1.01539151968,0.78700852043,1.32531145749,0.020376968065918395,0.14239060090325065,stairs up
0.025408935545,-0.12609863281,0.11474609375,0.0034038695179952508,0.05819665085213473,-0.0067211914054999995,-0.15795898437,0.09204101562,0.0037183057179719413,0.060825275908803586,1.0082153320271,0.80676269531,1.28869628906,0.016817164630735033,0.12935640226746165,1.0120748989348,0.80818286536,1.28941070593,0.016796971123096572,0.12927871544643801,stairs up
-0.0234899902347,-0.20043945312,0.06604003906,0.004676504426767095,0.06821379555949998,-0.0096752929678,-0.12817382812,0.07946777343,0.0028989032341619255,0.053706691556929066,1.0112170410119001,0.81799316406,1.26647949218,0.01756395763339359,0.13219734431987135,1.0152231331483,0.81905783115,1.2674652014,0.017629098848788174,0.13244226423066102,stairs up
-0.030089111326800002,-0.21215820312,0.08911132812,0.006678949496660548,0.08152027201363625,-0.025714111326500002,-0.17700195312,0.12585449218,0.005188395442012364,0.0718502154819476,1.0062915039020002,0.79089355468,1.24987792968,0.016468711360613925,0.12800924889948714,1.012835604277,0.79337705238,1.25543655468,0.016630729339604296,0.12863738062051122,stairs up
0.027131347654,-0.27844238281,0.11560058593,0.006005184021100411,0.07729914683225753,0.0321862792967,-0.16418457031,0.50109863281,0.014269249539051091,0.11915495495931269,0.9991137695279,0.76745605468,1.07055664062,0.002203251734525457,0.04682131433282101,1.0108255094978,0.94187910622,1.08016946002,0.0006004796721690329,0.02444334825281078,Null
0.1301464843736,-0.27844238281,0.60546875,0.033152076681778275,0.18162135419154155,0.13676757812359994,-0.89758300781,1.14526367187,0.5042180155339643,0.7083056723310173,0.25600830077930004,-0.69970703125,1.01733398437,0.3980232691540274,0.6293116499861235,0.9982857619683,0.30504677449,1.42639488706,0.03550317578351142,0.18795121682126417,Null
-0.31613647460850003,-0.81750488281,0.30737304687,0.1759147632915614,0.4183720706202836,0.21853637695220005,-0.93835449218,1.20544433593,0.5038266557429475,0.708030735536412,-0.45603515624609997,-0.83349609375,-0.09387207031,0.01638221342960294,0.12767263748530822,1.0098544165132,0.36697529687,1.51380294232,0.028648798104815746,0.168835879226815,Null
-0.6610144042932998,-0.76611328125,-0.6123046875,0.0014353274565489474,0.037790882753201235,0.5848059081993,0.44873046875,0.66540527343,0.0017389310229798686,0.04159611000880935,-0.5090899658165501,-0.55261230468,-0.42077636718,0.0007738714957156653,0.027748912379354382,1.0206890315186,0.98883618542,1.08160050973,0.00019691027826861657,0.013997347137128288,Null
-0.9290667724571,-1.29992675781,-0.47839355468,0.030894264021408255,0.1753276723774693,0.3753723144493999,0.08325195312,0.67822265625,0.020159452217649754,0.1416285810017226,-0.049117431640100004,-0.60815429687,0.32531738281,0.04921499962506933,0.22128923296659508,1.04100792626105,0.57950945636,1.44950247503,0.022665159775806,0.15017268052787422,Null
-0.8524682617149,-1.20947265625,-0.328125,0.05112894071997188,0.22555109402610315,0.44913574218440006,-0.16259765625,0.81848144531,0.06295125774335109,0.2502728540106464,0.0843920898419,-0.0849609375,0.46545410156,0.012675585524707501,0.11230408539801197,1.0264994150659,0.74419002419,1.28513315869,0.008008073270403005,0.08926383872571798,Null
-0.98037170409745,-1.10461425781,-0.90063476562,0.0013624328311381698,0.03681875428341484,0.30247375487895,0.18200683593,0.44616699218,0.004497733199600803,0.06689726850629103,0.029255981444949997,-0.14392089843,0.15710449218,0.005950558166735777,0.07694676975612491,1.0316970237287502,0.93579509205,1.13475726021,0.0017508425039067402,0.04173833120031522,Null
-0.9749645996056501,-1.04333496093,-0.9208984375,0.00043370034674300434,0.020773344579274888,0.2839788818324,0.21643066406,0.3828125,0.0010391530525981612,0.03215520622442298,-0.022842407225049998,-0.08203125,0.01879882812,0.0006378564009026709,0.025192600479072375,1.0165205547804,0.95555821153,1.08915966536,0.0005104214471011547,0.022535956599746304,Null
-0.9765332031213501,-0.99975585937,-0.96276855468,5.0589103803097275e-05,0.007094797973450815,0.27491333007475,0.25341796875,0.31127929687,0.00022414778793652422,0.014934090163007641,-0.032861938472449996,-0.05297851562,-0.01794433593,9.396197471272879e-05,0.00966913464789715,1.01517665507915,1.00076510545,1.04375259718,5.7846436814129716e-05,0.007586646467976419,Null
-0.8517071533166499,-1.17028808593,0.04309082031,0.10269062409316115,0.31965164002816465,0.3703039550737,0.22119140625,0.77490234375,0.014582215827661595,0.12045457545698829,-0.13680847167795,-1.06018066406,0.11572265625,0.0801167535235968,0.28234052092460765,1.0316490599682,0.76088834639,1.24607393494,0.014653983895408722,0.12075062722790171,Null
-0.84861816405895,-1.24499511718,0.28015136718,0.1308282912610084,0.3607965490476639,0.37462768554285,0.13500976562,0.63891601562,0.013683799186375212,0.11668496128654857,0.010666503905450035,-1.06018066406,0.77185058593,0.14429071673583713,0.3789053485399196,1.0672224370804,0.89260535334,1.28505197351,0.009161237388346365,0.09547476735454574,Null
-0.55057312011355,-0.60412597656,-0.41125488281,0.0030108619570839135,0.0547339716017255,0.58659912109045,0.44641113281,0.66711425781,0.0030669786162966627,0.05524168465221874,0.6151043701133,0.49182128906,0.80493164062,0.008390837140641476,0.09137222200941744,1.0195521906274,0.95433227498,1.06562127926,0.0004948145760454439,0.02218874721937263,Null
-0.5936560058550999,-0.61364746093,-0.58117675781,4.3793945142507605e-05,0.006601134403782055,0.6283483886685499,0.61157226562,0.64465332031,7.397707832458534e-05,0.008579463440854704,0.5354315185508,0.51037597656,0.56848144531,9.300645834565589e-05,0.009619845427756499,1.0169175852605001,1.00623663336,1.02749979262,2.4532939175910037e-05,0.004940675508473562,Null
-0.5209252929652999,-0.60278320312,-0.26879882812,0.012869640864171692,0.11316047304536524,0.6609039306606,0.60595703125,0.81750488281,0.004022236286318607,0.0632623514018173,0.55176696776965,0.49426269531,0.58898925781,0.0004334097737401206,0.02076638449204435,1.01441252991975,0.89986864628,1.07537284584,0.0008139022811561919,0.0284575608538471,lift up
-0.6373895263636499,-0.76525878906,-0.27648925781,0.018591166889937945,0.13600812863754966,0.7399725341751,0.47668457031,0.94946289062,0.009505129848414118,0.09725021439139374,-0.046293945310699997,-0.48522949218,0.6015625,0.0942162590160677,0.30617834299797786,1.0372182057769,0.88829528039,1.11879851486,0.001856558398985906,0.04297994424136654,lift up
-0.72484802245665,-0.74487304687,-0.70104980468,0.00023894383341520144,0.015419115222610065,0.68950073241785,0.65954589843,0.71398925781,0.00032392859910068634,0.017952965106220835,0.0078625488259,-0.00817871093,0.02111816406,4.9302205037282756e-05,0.0070039770139611645,1.0004856509195499,0.96613825703,1.03027998935,0.0005179009125445567,0.022700471536552583,lift up
-0.73262695312125,-0.74194335937,-0.71459960937,4.3208239674391245e-05,0.006556843636691307,0.70928405761335,0.69226074218,0.72021484375,4.1766651544267275e-05,0.006446535370766683,0.01537780761385,-0.00085449218,0.03076171875,8.513616518260556e-05,0.009203829874388841,1.01990123493325,1.00325270728,1.03205991498,3.35027881737979e-05,0.005773670776285128,lift up
-0.8157250976529,-1.19592285156,-0.58349609375,0.02152049307227035,0.1463314409377185,0.5750628662073,0.20422363281,0.78503417968,0.025329931264002972,0.1587554144200536,0.0962902832006,-0.07983398437,0.3359375,0.00926559779927786,0.0960170287515786,1.02619823460125,0.8111117681,1.27393863623,0.008170029142997071,0.09016195981278405,Null
-1.0521264648398,-1.25732421875,-0.89282226562,0.010201536524657832,0.10074983296281212,0.3211846923796,0.16735839843,0.54370117187,0.013000298294892696,0.11373344628304478,0.030591430662250004,-0.041015625,0.14929199218,0.0024413294073166946,0.04928613152074436,1.1056767193982,0.9129740927,1.35926101469,0.014130131509179274,0.11857268172573891,Null
-1.00628234862985,-1.23620605468,-0.78430175781,0.01268282006688188,0.11233612939098209,0.2715167236284,0.06372070312,0.55944824218,0.01842716508136548,0.1354069025417783,0.14267700194895,-0.02014160156,0.41723632812,0.01207368283857965,0.10960526640808256,1.0660719814781001,0.83749510137,1.32860961375,0.013206535891335119,0.11463203396903696,Null
-1.0656280517539,-1.26831054687,-0.91271972656,0.01052861259166501,0.1023521838003796,0.3249664306607499,0.09216308593,0.54711914062,0.01475319714657326,0.12115870237354143,0.055375366208750006,-0.10339355468,0.16711425781,0.005364793505403398,0.07306140936141582,1.12255110650345,0.93974818237,1.35917007611,0.014678533105858071,0.12085172915738021,Null
-1.0790832519487,-1.42590332031,-0.70458984375,0.019512284902668948,0.13933672695364852,0.33704223632475,0.09838867187,0.67529296875,0.022680148669435945,0.15022232832068863,0.03813171386645,-0.31469726562,0.35375976562,0.01660658388165097,0.12854396509460378,1.1455649539724,0.71156706549,1.47482610461,0.025787055179097264,0.16018152172832478,Null
-0.81584350585475,-1.392578125,-0.37145996093,0.10694448893846598,0.32620509881633314,0.5646588134728501,0.08129882812,0.96960449218,0.06784066506610045,0.25981043424152533,0.25111633300509995,-0.08459472656,0.71130371093,0.04783701048922418,0.21816925868870266,1.1141392470119,0.81572867753,1.49424504432,0.027841614393897544,0.16644039870754954,Null
-0.53118713378555,-0.73950195312,-0.3525390625,0.006818068982429873,0.08236491144606253,0.76526428222255,0.64538574218,0.9580078125,0.0047618685801738385,0.06883356185228953,0.39161193847264997,0.02600097656,0.67517089843,0.022094532589471673,0.14827022602843876,1.0245754550954498,0.85331421664,1.20352666516,0.004924962531854843,0.07000241223840482,Null
-0.08172485351464999,-0.53369140625,0.19470214843,0.027407847754354085,0.16513875534102318,0.7902136230433001,0.42846679687,1.04602050781,0.03887841682232923,0.19668254812824035,-0.5108563232384999,-1.00915527343,0.02600097656,0.08961896037834212,0.2986149118454241,1.0222567784692,0.91038035633,1.10056017191,0.0022185752995103366,0.04698385279021703,Null
0.1767602539022,0.10437011718,0.25402832031,0.0012491165633442467,0.03525437533877923,0.7357897949184999,0.60400390625,0.81176757812,0.0025855160822811757,0.05072069106262029,-0.6877008056595499,-0.82971191406,-0.56457519531,0.003161570369482689,0.056087097603952335,1.02571327301905,0.91038035633,1.05948336899,0.00043890585507146135,0.02089763923978266,Null
0.2315893554658,0.14575195312,0.68286132812,0.015198138904299855,0.12297214403993433,0.9466265869094,0.38842773437,1.16247558593,0.021053074439156803,0.1447335796108181,0.03033264160005,-0.69274902343,0.35095214843,0.05811262714325843,0.24046218831147267,1.0198627356818002,0.7731203238,1.21880244484,0.004449864732169854,0.06654032918846288,Null
0.3516888427694,0.10119628906,0.96838378906,0.10471100848795109,0.32278081331688746,0.6789398193318,0.32641601562,0.89123535156,0.04242979835279552,0.20546933922371857,-0.51632202148055,-0.83959960937,-0.11584472656,0.042747026650104915,0.2062360092633059,1.018359631791,0.85183967664,1.14352811135,0.0031304572192340386,0.055810437492801186,Null
0.08148132323769999,0.0703125,0.10144042968,4.972360202946002e-05,0.007033845606729843,0.8392584228480001,0.81652832031,0.87573242187,0.0003023675185087351,0.017345191867379022,-0.6011535644496501,-0.63500976562,-0.52514648437,0.0005996074134395594,0.024425588557338014,1.03599680851665,1.02466964806,1.05417406512,3.725346360394742e-05,0.006088283525422226,Null
0.08049499511324999,0.06909179687,0.10656738281,0.00010105941723336045,0.010027667732189457,0.8414971923793,0.80725097656,0.96313476562,0.002340064246035229,0.04825312347201011,-0.5847808837856501,-0.6376953125,-0.34899902343,0.007334011274653347,0.08542447669304203,1.0325996702401499,1.01987233795,1.04457666274,2.9981250713002133e-05,0.005461807801400295,Null
0.11214477538655,0.09497070312,0.16101074218,0.0001686572414492313,0.01295430257644097,0.9464654540979501,0.92102050781,0.97497558593,0.00020490110482621786,0.014278536315116013,-0.3856408691368,-0.42419433593,-0.29113769531,0.0013696828544014713,0.03691658760136782,1.02896663686585,1.01508496672,1.05319419684,5.464483235939663e-05,0.007373710612547772,Null
0.135810546871,0.11633300781,0.16479492187,0.00020496219844793793,0.014280664811404904,0.96515014648055,0.90515136718,1.00854492187,0.0004431743103695504,0.020999010424724844,-0.31331909179285,-0.40466308593,-0.22265625,0.0020179825796546986,0.04480951535953524,1.0250375070353999,0.99656921707,1.04271704247,7.945812938674689e-05,0.008891616205157146,Null
0.1147052001917,0.10571289062,0.12780761718,3.085113613965172e-05,0.0055404765552209915,0.9606298828087501,0.95178222656,0.96862792968,1.299305776728491e-05,0.0035955656687715336,-0.34650451659720005,-0.36938476562,-0.33276367187,5.3497202065633255e-05,0.007295869794294926,1.0276759219921,1.02021963622,1.03423729899,1.1546496579531289e-05,0.003389507943143611,Null
0.10971008300435,0.10266113281,0.11682128906,1.3435006365620378e-05,0.0036562044983551286,0.9578833007772499,0.95178222656,0.96630859375,1.0653949863049992e-05,0.003255868565181147,-0.35469665526925,-0.36950683593,-0.34509277343,3.438453240953704e-05,0.005849154618189654,1.0273409685919,1.02023034955,1.03586062812,1.5229000252367854e-05,0.003892666855910741,Null
0.10536987304295,0.09851074218,0.11071777343,9.306170530332357e-06,0.0030429656057340995,0.9575549316374,0.947265625,0.96948242187,1.7004634561925746e-05,0.004113345522699998,-0.35564270019155,-0.37292480468,-0.34411621093,4.6989342298650274e-05,0.006837718595200962,1.0269144311802,1.01657999329,1.03718892024,1.5750881761791536e-05,0.003958803778034797,Null
0.10610046386369999,0.09118652343,0.11767578125,2.4050988965541555e-05,0.004891904948045684,0.9565533447232001,0.94555664062,0.96630859375,3.05203902537868e-05,0.0055106976239418055,-0.36059082030874995,-0.37109375,-0.34045410156,4.456957381063644e-05,0.006659333746072744,1.0277927820476997,1.01925911322,1.03589253421,1.808225425734359e-05,0.004241679264873391,Null
0.10984130859015,0.09704589843,0.14404296875,7.775452269299121e-05,0.008795780242794055,0.960114135739,0.94873046875,0.97668457031,4.4852794341512594e-05,0.00668045884425651,-0.34937194823925,-0.36755371093,-0.33813476562,3.927724408128783e-05,0.006251468456361385,1.0276409135627,1.01908973838,1.04328954956,3.5066998458537684e-05,0.005906916578575069,Null
0.15091048662482587,0.13708496093,0.16552734375,7.824052478261382e-05,0.0088233365820653,0.9395922001279104,0.91271972656,0.96691894531,0.0001110327317937117,0.010510962379487272,-0.3880275137945771,-0.41369628906,-0.30261230468,0.0005935579835051352,0.024302365290472805,1.028047286457363,0.99632107253,1.04315196796,7.089505594040468e-05,0.008398948994922408,Null
0.1468002856035176,0.13562011718,0.16076660156,3.948433013668689e-05,0.006267847829790307,0.9322761267239198,0.8837890625,0.95751953125,0.00022998019847710597,0.015126946786703977,-0.39409265565778884,-0.41650390625,-0.37158203125,7.327352736414514e-05,0.008538461142613656,1.0228439601996986,0.98886014546,1.04035898938,0.0001300237796949702,0.011374110684680245,Null
0.13539306640229998,0.12463378906,0.14807128906,2.1498412942695778e-05,0.004625031986698286,0.9428271484334002,0.93139648437,0.96008300781,6.0012448369845816e-05,0.007727378994717199,-0.3916674804646,-0.41296386718,-0.36071777343,0.0001189949584471438,0.010881175655916418,1.0299617347595,1.01499668639,1.04283644162,3.6238925073600656e-05,0.006004808943524569,Null
0.14082336425455,0.11401367187,0.20458984375,0.0005542522755324653,0.023483632899421736,0.9402526855433502,0.89196777343,0.97888183593,0.0002554376146352424,0.015942409684927376,-0.3743988037081,-0.400390625,-0.24157714843,0.0015507473624793713,0.03928095754518943,1.0228598426933502,0.96545672539,1.03793678396,0.00018431365865074985,0.013542233580820268,Null
0.027858886719,-0.03381347656,0.19799804687,0.004558235730010442,0.06734570922754017,0.7680419921844001,0.681640625,0.96875,0.008337857136272544,0.09108330171107754,-0.6623486328090001,-0.75671386718,-0.34680175781,0.018642096639198056,0.1361942956074228,1.0298756644332,1.0127607672,1.05724900336,0.00010748248858598364,0.010341425247182021,Null
-0.047340203276417914,-0.11059570312,-0.01782226562,0.0002961552751095397,0.01716630029390831,0.7524007161417909,0.53625488281,0.89440917968,0.004121174713004356,0.06403648457108838,-0.6748793872399501,-0.74353027343,-0.5029296875,0.0029828087784828173,0.05447906876786486,1.0149809488108956,0.8786088737,1.04081551666,0.000992051103556023,0.03141839470638803,Null
-0.031664057589195986,-0.05407714843,0.00048828125,0.00017963285299986388,0.01336900053656212,0.79563098696201,0.75231933593,0.86486816406,0.0010444474298375182,0.032236608852213286,-0.6499139987006028,-0.70031738281,-0.56640625,0.0013985857507222087,0.03730358805293537,1.0289920783838693,1.01325210523,1.04060576853,3.9393722148042645e-05,0.006260652022376636,Null
-0.0472851562466,-0.05993652343,-0.03759765625,1.9070347346050074e-05,0.004356029798947641,0.7527539062463999,0.73937988281,0.77136230468,3.6805215178876796e-05,0.006051544356854902,-0.699370117184,-0.71350097656,-0.67028808593,4.605405893637866e-05,0.006769327044965161,1.0286261787474,1.01740135224,1.04106441333,2.2607589468171526e-05,0.0047428421353478195,Null
-0.053010253902399995,-0.05993652343,-0.04187011718,1.9475329464022632e-05,0.004402039620074145,0.7417480468714001,0.7333984375,0.75451660156,2.5495811925150653e-05,0.005036698607771255,-0.7110083007779999,-0.72705078125,-0.69470214843,6.429100158061977e-05,0.007998096434322149,1.0288900433462,1.01967243517,1.03865330748,2.718629668873691e-05,0.00520099655886189,Null
-0.0639355468714,-0.08898925781,-0.03344726562,0.0001808120737153752,0.013412979286750514,0.7096752929653999,0.6572265625,0.77233886718,0.0010451183905501444,0.032247368863170735,-0.7369677734336,-0.783203125,-0.68798828125,0.0008648601368974477,0.02933489110620594,1.0260898327734,1.00277557971,1.04302688322,6.860945371111288e-05,0.008262348724337246,Null
-0.0795849609338,-0.10766601562,-0.07116699218,4.652514530113998e-05,0.006803860637508258,0.7274682617143999,0.71643066406,0.74572753906,5.120613467444387e-05,0.007137934154996924,-0.7251928710894,-0.744140625,-0.70935058593,4.4680294684495595e-05,0.006667600258794248,1.0303067687474001,1.01834790479,1.05530200999,5.8492340832775396e-05,0.007628884527151497,Null
-0.0526708984332,-0.08422851562,-0.01550292968,0.0003355101963632282,0.01827108769015715,0.7931811523402,0.671875,0.91857910156,0.006455194896116749,0.08014311524788743,-0.6493017578092001,-0.78637695312,-0.45959472656,0.011527937764510027,0.10709947747625792,1.0348038791863998,1.01097731504,1.18906268396,0.0009158974140856323,0.030188042782121602,Null
-0.012416992187,-0.05920410156,0.02807617187,0.0009777150798583028,0.031190166791138056,0.5579858398390001,0.375,0.81518554687,0.031495355774993655,0.1770250801330667,-0.8337451171838001,-0.95849609375,-0.60314941406,0.016456168476750466,0.12796049247469593,1.027206006568,1.0080598705,1.06093471594,0.00016654551926851318,0.01287294805676503,Null
0.0098559570304,-0.03088378906,0.0556640625,0.0006430076053641232,0.025294121201127003,0.46678710937080004,0.37292480468,0.541015625,0.0038783501380435783,0.06212051502807556,-0.9169604492150001,-0.966796875,-0.86608886718,0.0011897271661900168,0.03440608275231382,1.0317169863932,1.01914456952,1.04781260422,4.6633429388833306e-05,0.006811773795560826,Null
-0.03920410156,-0.07421875,0.06860351562,0.001274017448844957,0.0356040357487846,0.4593603515582,0.40319824218,0.5224609375,0.0011786910397451477,0.03424613240274618,-0.9173315429646,-0.95886230468,-0.880859375,0.00035440040589485505,0.018778402590885646,1.0279913879774,1.00886278353,1.05365178151,7.319947354031788e-05,0.008534253111586057,Null
0.0108129882824,-0.08801269531,0.1630859375,0.00475732231219351,0.06880069549526766,0.6140600585907999,0.49829101562,0.84521484375,0.007736014295449951,0.08773445289037085,-0.8056127929651998,-0.90246582031,-0.59753417968,0.006238637312068711,0.07878733480394148,1.0220665046697999,0.97974820656,1.05022387984,0.00021811310720131792,0.014731684956762798,Null
-0.0311816406214,-0.06005859375,0.03735351562,0.00046120765814402424,0.021421989166585446,0.5657983398394,0.52612304687,0.70251464843,0.0011846081635553988,0.03433198396157178,-0.8519482421834002,-0.88110351562,-0.75207519531,0.0007347918994301602,0.02703919266422371,1.0242861779766,0.99547165536,1.0407081565,0.00012300877029065968,0.011063169818781884,Null
-0.0082641601542,-0.03625488281,0.00964355468,0.00013385061638442394,0.011540423012286067,0.8038452148396,0.62976074218,0.93505859375,0.011836286315990433,0.10852237043306086,-0.6155053710898,-0.80981445312,-0.43566894531,0.01937802011032664,0.13885650870511979,1.027733818126,1.01336433728,1.04060513846,3.708838395853547e-05,0.00607477917613001,Null
0.0038842773412,-0.05908203125,0.03637695312,0.00030575606684253874,0.017442112443976678,0.9084716796832001,0.85766601562,1.01110839843,0.002089689724403551,0.04559869818077632,-0.4717504882774,-0.58129882812,-0.26428222656,0.009544202484725175,0.09744989211026121,1.0294017925542,0.99997536807,1.05322988593,9.678704359983055e-05,0.009813414715675242,Null
-0.01529583527477612,-0.07690429687,0.02404785156,0.0005958398048392966,0.02434903340382925,0.8642997172305473,0.63586425781,1.02001953125,0.011925044157477018,0.10892986541614344,-0.490636417517811,-0.791015625,-0.04650878906,0.0436145004394175,0.2083206971835547,1.021446779572587,0.97311840031,1.10830944897,0.0004770115511340113,0.021786196532146786,Null
-0.04305094809653266,-0.06860351562,-0.00207519531,0.00028986564857845564,0.01698260984887383,0.7675137160372862,0.6787109375,0.95092773437,0.008570043396227515,0.09234163660842738,-0.6665885580215075,-0.7607421875,-0.42687988281,0.014055348729557058,0.11825700332937455,1.02858559116799,1.00425083465,1.04831554453,8.319957792047798e-05,0.009098433359057991,Null
0.0083178710938,-0.02941894531,0.07543945312,0.0008265097594677992,0.028677119985634197,0.9121923828092,0.77893066406,1.01684570312,0.003305693032123237,0.05735123858263761,-0.4576538085897999,-0.64270019531,-0.28601074218,0.010511693792784825,0.10226991406968572,1.0275694882089998,0.98899659363,1.06350595873,0.0002841836719236314,0.016815550944408966,Null
0.0015893554684,-0.05651855468,0.03173828125,0.0006457773822867559,0.025348540300682447,0.9694824218716,0.85559082031,1.02856445312,0.002743374163214743,0.05224612227140565,-0.2936694335902,-0.56079101562,-0.08020019531,0.023644147092830976,0.15338163631076185,1.0260642882078002,0.97162457793,1.0542633758,0.00023179618321505607,0.015186744295568448,Null
-0.054062499996,-0.08190917968,-0.01525878906,0.0002829912559434428,0.016780235387613775,0.8525537109334,0.81408691406,0.91650390625,0.0005969352099371964,0.024371100383189726,-0.5740747070274,-0.61376953125,-0.51733398437,0.0005614869498722175,0.023636402330364414,1.0298145083618,1.00504114888,1.0791818166,0.0002498873359119373,0.015768256061859776,Null
-0.04278898476114428,-0.06921386718,0.00927734375,0.0005179721190503647,0.022702315814332606,0.8473149389731841,0.79174804687,0.9345703125,0.0013495356318957768,0.03664452925437035,-0.5800234666469651,-0.62829589843,-0.42346191406,0.0030170136467905593,0.054790543241031324,1.0299707766019404,1.00657919895,1.07861337795,0.00022225025136562648,0.014870928979791963,Null
0.013439331053600002,-0.01416015625,0.04211425781,0.0003260061963745269,0.01801044600759943,0.90814147948845,0.88537597656,0.92541503906,0.00014373510290981487,0.011958947587278146,-0.4746984863238499,-0.50964355468,-0.44384765625,0.00033117788970297773,0.018152740846893146,1.02517412428495,1.01042801401,1.0428002825,5.542190351794295e-05,0.007425954080140358,Null
0.01205078124835,-0.02416992187,0.04895019531,0.00031782726538670227,0.01778308547636683,0.9158251953084,0.86645507812,0.94921875,0.0004981271945034508,0.022262896454211287,-0.4598876953087999,-0.54296875,-0.40393066406,0.0016075246897590933,0.039993587814927255,1.0260130387665,1.00834549257,1.05034482323,8.674172991762743e-05,0.00929021104539823,Null
0.02257441994798995,-0.0029296875,0.06457519531,0.00024338555870363808,0.015561571761717293,0.965612363572412,0.88220214843,1.01806640625,0.0012937321737996163,0.03587800171549561,-0.3286868914846734,-0.49060058593,-0.19958496093,0.00916043613582009,0.09546938668195704,1.0254228977627136,1.00189498821,1.0452841799,0.00010411500278713268,0.01017800627914687,Null
-0.0130004882784,-0.021484375,-0.00256347656,2.2367167112892956e-05,0.004717555646447479,0.9745043945274,0.95263671875,0.98937988281,5.896068097598626e-05,0.007659365350412939,-0.3196704101526,-0.35131835937,-0.3046875,0.00015146696985734664,0.012276385258212612,1.0257708944408002,1.00986343736,1.03933874918,4.29163195488751e-05,0.006534656681963538,Null
-0.013379149172537312,-0.01831054687,0.00256347656,1.4193516906684185e-05,0.0037580450229754607,0.9676793036728856,0.95556640625,0.982421875,3.907035832243543e-05,0.006235060419136611,-0.3352548779504975,-0.34533691406,-0.32043457031,4.526693725782761e-05,0.006711313479100335,1.0242239125079105,1.01218101074,1.03912012757,4.169467227704676e-05,0.006441058616140979,Null
-0.0040136718732,-0.02075195312,0.02905273437,0.00022670200710497285,0.015018937947453142,0.9758831787069,0.95642089843,0.99584960937,7.692332506838297e-05,0.008748640376826622,-0.31958435058225,-0.34692382812,-0.25732421875,0.00043971295597896557,0.02091684467597995,1.02722968296335,1.00827398749,1.04108800869,3.723137522254346e-05,0.006086478320542245,Null
-0.0237432861302,-0.04736328125,0.01965332031,0.000292295786196026,0.017053864877647117,0.95570739745645,0.91052246093,1.01831054687,0.0006708435523074136,0.025835814958035996,-0.35861633300389995,-0.40747070312,-0.19677734375,0.004811272231319262,0.06918970927936224,1.0238246200546501,0.98560696667,1.03715406562,7.510991987695391e-05,0.008644904295454585,Null
-0.04685791015215,-0.05603027343,-0.03662109375,3.221676577156129e-05,0.005661773745276606,0.9327825927693,0.91467285156,0.94714355468,6.689107260581685e-05,0.008158223902467237,-0.41592285155895,-0.43811035156,-0.40014648437,9.395552641474632e-05,0.00966880286192001,1.0224610580755,1.0086251169,1.03545829396,3.6512899216487e-05,0.00602746503269862,Null
-0.05595359610170853,-0.06372070312,-0.044921875,2.0408305431916943e-05,0.004506190312588239,0.9166314973264321,0.90441894531,0.93249511718,4.746776886230336e-05,0.00687235311669029,-0.4565497163513567,-0.48022460937,-0.43811035156,0.00010136961875454376,0.010042919081891751,1.025618982194824,1.01572321636,1.04703908317,5.6130946876436416e-05,0.007473210944216404,Null
-0.05565859666114428,-0.06677246093,-0.04992675781,1.3978823798994197e-05,0.003729514366768752,0.9161789927279602,0.90502929687,0.92687988281,2.9522403708151184e-05,0.005419919379267774,-0.4509076929772637,-0.46472167968,-0.43322753906,5.111393198864646e-05,0.007131594058802612,1.0226337284759204,1.01172134958,1.03450055498,2.320856563738848e-05,0.004805528080940215,Null
-0.05642883300435,-0.0673828125,-0.0478515625,1.9937076387516476e-05,0.004453918612365845,0.91144836425435,0.78918457031,0.93200683593,0.0006017156697653696,0.024468491809192958,-0.43995361327750004,-0.45483398437,-0.4111328125,7.015212096754218e-05,0.00835472084289502,1.01368899508155,0.89240289048,1.03158235251,0.0006075204280949799,0.02458623244733737,Null
-0.056228027340100004,-0.06506347656,-0.04772949218,1.858280532697067e-05,0.004299987360485588,0.9142077636683998,0.90026855468,0.931640625,5.3107796906424115e-05,0.007269268045813966,-0.4530804443327,-0.47253417968,-0.43420410156,8.068734339753776e-05,0.008960128720088237,1.0219302779547,1.00925510125,1.03241677457,2.958623322747956e-05,0.005425707517120892,Null
-0.06013671874575,-0.07275390625,-0.05200195312,1.9459874192252154e-05,0.004400292583600651,0.9054431152304501,0.88256835937,0.92028808593,6.446344019974202e-05,0.008008815330543172,-0.46353515624589997,-0.48034667968,-0.44372558593,7.53975034263905e-05,0.008661438443426043,1.01902225951885,0.98950744973,1.03842141875,6.172978002023921e-05,0.00783716346136394,Null
-0.06190130338798994,-0.07019042968,-0.05383300781,1.572864118056087e-05,0.003955957884339595,0.9001286952300501,0.88000488281,0.91589355468,5.019303929323442e-05,0.007066881417225545,-0.48195076946879384,-0.5009765625,-0.45397949218,9.657729005736916e-05,0.009802651531193257,1.022950308176834,0.991886987,1.04111390786,7.470834343186794e-05,0.008621654401601384,Null
-0.06110135357990049,-0.07958984375,-0.05346679687,3.2604626611097064e-05,0.00569582430719251,0.9058048381097513,0.88708496093,0.92712402343,9.934514168719798e-05,0.009942378349818681,-0.4700411516598507,-0.49609375,-0.43969726562,0.0002763067971797865,0.016581077663930653,1.0224971680006965,1.00695140779,1.0407804184,6.053243317944675e-05,0.007760881186789899,Null
-0.035114746091,-0.07348632812,0.00988769531,0.0008438198769848484,0.0289758654331484,0.9169366455049002,0.81018066406,1.0400390625,0.003209353960551021,0.05650935489587777,-0.41361389159859996,-0.56616210937,0.11901855468,0.03371808575831525,0.18316521320797702,1.0249296789364,0.9677028765,1.05896372505,0.00018512872035380775,0.013572143410384327,Null
-0.0213366699185,-0.05322265625,0.00964355468,0.00025170900561441564,0.01582562670437868,0.9660705566373999,0.91735839843,1.02917480468,0.0006697505488062219,0.02581475926794962,-0.30213134765280003,-0.43395996093,0.11901855468,0.013727033503304583,0.11686915048800543,1.0195333046025,0.97124514423,1.04046944323,0.00015881056839908695,0.0125704620263971,Null
