avg_accX,min_accX,max_accX,var_accX,std_accX,avg_accY,min_accY,max_accY,var_accY,std_accY,avg_accZ,min_accZ,max_accZ,var_accZ,std_accZ,avg_magnitude,min_magnitude,max_magnitude,var_magnitude,std_magnitude,avg_pressure,min_pressure,max_pressure,var_pressure,range_pressure,std_pressure,slope_pressure,kurtosis_pressure,Pressure_below_avg,Pressure_above_avg,skew_pressure,Label
-1.0597953796355208,-1.32702636718,-0.82580566406,0.02450458543149697,0.15572196162793547,0.03696695963395833,-0.19396972656,0.19372558593,0.009348952037728408,0.09618506703573448,0.10327911376572917,-0.02905273437,0.19970703125,0.0027652397947196283,0.05231094735831719,1.0713159477131249,0.84023177475,1.32990203229,0.023968522086511054,0.15400925290852896,973.0526104372913,973.03260286441,973.07131403886,0.00015989077454769472,0.038711174449986174,0.0125787616896957,0.0003768606540558023,-1.4025129432836354,0.44,0.56,-0.07162997094525547,Stairs down
-1.0560159886098934,-1.30102539062,-0.7578125,0.03053035398212117,0.17379747691583836,0.07075273229638297,-0.08447265625,0.2412109375,0.01009650038666327,0.09994543915598023,0.09240852518010635,-0.04809570312,0.24255371093,0.006370108772937313,0.0793872890224348,1.0698084970870212,0.76741585217,1.32014749274,0.031052170097830664,0.17527643270772988,973.1068479173122,973.07064214584,973.14398357955,0.00043020175666646246,0.07334143370997026,0.020630684482921078,0.0006901934696728295,-1.408570658281052,0.52,0.48,0.021349275868263764,Stairs down
-1.058674264457447,-1.31848144531,-0.77478027343,0.02912914033661691,0.1697623511410901,0.06694258020095745,-0.087890625,0.22741699218,0.00998386811690528,0.09938640125268386,0.11464220411861699,-0.05969238281,0.27233886718,0.006997753842082166,0.08320642795044611,1.0745164782378724,0.78473757498,1.35044851865,0.02976656811664009,0.17160973893802753,973.1846160386028,973.14398357955,973.23626987619,0.0005827347170032399,0.09228629664005439,0.024011151815421215,0.0008344967685481252,-0.9886086277559447,0.48,0.52,0.11786279989138525,Stairs down
-1.0220258996802127,-1.31420898437,-0.80163574218,0.023630671142073522,0.15290284831729206,0.08752701130117022,-0.07067871093,0.35498046875,0.011518947532384199,0.1067539485797075,0.11477596201478722,0.02734375,0.22302246093,0.0025980711900080397,0.05069942933401902,1.0388386491525532,0.80822434026,1.33725054388,0.023784848808701433,0.15340084257338968,973.2691041087178,973.23033063132,973.31546352931,0.0006736767352306341,0.08513289798997903,0.025816854212928127,0.0009240557291992232,-1.0930633073273957,0.47,0.53,0.15296975063338253,Stairs down
-0.9906496794286958,-1.31823730468,-0.72119140625,0.030159329011796812,0.17271800779939053,0.03845612898858696,-0.11926269531,0.12915039062,0.0034501062809529086,0.05841750701395224,0.10151473335282608,-0.01623535156,0.22216796875,0.005100498473443704,0.0710285736351604,1.0007936356481522,0.7336427203,1.32427929427,0.030200440415429564,0.17283568716772618,973.3441277157403,973.31338939345,973.3693625275,0.0003570062851139274,0.055973134049963846,0.018791641280496575,0.0006101409847684062,-1.4164229963461499,0.4,0.6,-0.3627674455117915,Stairs down
-1.0928377541115053,-1.40417480468,-0.75012207031,0.030608789296017784,0.17401052419148083,0.09121540028397847,-0.14685058593,0.32739257812,0.018744870500300385,0.13617383284972678,0.14433042464311827,-0.02514648437,0.28881835937,0.007406616225434448,0.0855977522529205,1.1170966427901075,0.75743477049,1.43846642619,0.032035385188312816,0.1780194334361044,973.4030499472083,973.37185288134,973.44492796812,0.0004647530627018519,0.0730750867800225,0.021441914978415917,0.0007627667183401464,-1.4586708469316836,0.48,0.52,0.015205750444114015,Stairs down
-0.7039103190058887,-1.47741699218,-0.07202148437,0.22636788147520892,0.47313072484478436,0.07994384765677778,-0.14001464843,0.82568359375,0.04750375300559196,0.21673932160028567,-0.3185519748266667,-1.07580566406,0.19750976562,0.25698746990784466,0.5041151193681214,1.0427403165121112,0.76285129373,1.70114307839,0.041470198851147166,0.20250782420418278,973.445116952818,973.42720556535,973.46104530118,9.229603779173635e-05,0.03383973582992894,0.009553560920448304,-9.863577626271338e-05,-0.9372717659549425,0.48,0.52,-0.26939312087948375,Stairs down
-1.0324322244365216,-1.359375,-0.03784179687,0.13976038416951758,0.3718080816213915,0.1017694887902174,-0.12377929687,0.38586425781,0.02408023808587399,0.1543324216344358,0.028410538380108697,-0.88854980468,0.34020996093,0.11009080785383785,0.3299911644848014,1.1446644274794564,0.67747402412,1.39154670473,0.03819288871619834,0.19436498815747927,973.4324805986656,973.40799226929,973.46497722444,0.0002511219421107695,0.05698495514991464,0.01576046813338609,4.6841348265114434e-05,-0.48436393103623887,0.45,0.55,0.4587969828662845,Stairs down
-1.0795559353256667,-1.30725097656,-0.82922363281,0.018857111096541455,0.13655617027404224,0.058157009547444447,-0.14379882812,0.34655761718,0.017825453795397753,0.13276819347144522,0.14842800563866668,-0.00744628906,0.27392578125,0.005811009255775569,0.07580529326021337,1.0998004505430001,0.83400572631,1.33115747045,0.01978830829745766,0.13988723388952864,973.4452560098774,973.43423352827,973.46315896946,6.287011704443702e-05,0.02892544118992646,0.007884894431023647,0.00013396653957325675,-0.030113642887348302,0.56,0.44,0.7562489970185672,Stairs down
-1.0483113606725554,-1.30322265625,-0.83325195312,0.010915541263898355,0.1038954160301467,0.021379937066333333,-0.171875,0.31994628906,0.011158139035823286,0.10504360862614645,0.14642198350255553,0.06848144531,0.24328613281,0.002956594391020796,0.054071650078684266,1.065223470143889,0.86287355073,1.31622802818,0.011026847590287894,0.10442378589912797,973.4532555921679,973.43390896467,973.52596306069,0.0005551584780432613,0.09205409601997872,0.02343053670980345,-0.0003057824850640188,5.293825369895471,0.8,0.2,2.580980925645122,Stairs down
-1.0039230872806895,-1.28955078125,-0.81555175781,0.016677315009452912,0.12802255697921686,0.12338993466844828,-0.02661132812,0.30627441406,0.013301146373614868,0.11433204390600632,0.1296134159446552,-0.00952148437,0.23779296875,0.00390747856587209,0.061968606937471554,1.0279778479029311,0.83162785991,1.30964254227,0.016738110687790325,0.12825569216406574,973.459289992199,973.44664849212,973.47966865732,0.00011257941705876045,0.03302016520001416,0.010518478627002711,0.000366055802425059,-1.2420939497058396,0.55,0.45,0.33794815329500444,Stairs down
-1.1599539620494284,-1.42883300781,-0.9052734375,0.03209115472137934,0.1765623532536956,0.06158621651685713,-0.0771484375,0.16027832031,0.006238215434830643,0.0778458779134849,0.14249441964085716,0.041015625,0.27514648437,0.0060031815235239636,0.07636531969044115,1.1750214596774282,0.91600717406,1.43794965967,0.03292181571677805,0.17883286166301873,974.1601650272465,974.14291174962,974.19162109046,0.0001799486635323226,0.048709340839991455,0.013221470158257167,-0.00023679319346730387,1.0758264295812063,0.57,0.43,1.1845447898263108,Stairs down
-1.0475347283141572,-1.37683105468,-0.70935058593,0.0450957552001418,0.21116122115930405,0.0625041147283146,-0.09826660156,0.24389648437,0.010865886931595813,0.10365229526830012,0.14544060524505617,0.04650878906,0.32214355468,0.0058614215426871655,0.07612859432347487,1.066402235038652,0.71826692601,1.4010114956,0.046829612064447364,0.21518233349416233,974.1927825019517,974.1576404193,974.22842327978,0.0003987255301815642,0.07078286047999427,0.019855615529232346,0.0006456255031216105,-0.7744104343874865,0.6,0.4,0.03976803735322623,Stairs down
-1.0872553045055682,-1.60693359375,-0.69226074218,0.06448390948343014,0.2524898765985575,0.034181074662840906,-0.15588378906,0.29345703125,0.01538257060808668,0.12331978214933086,0.17866793545511364,0.01806640625,0.35986328125,0.008019282571118842,0.08904018396254244,1.111136032300909,0.70722027354,1.66848625356,0.06825406713623694,0.2597661500984328,974.2556694477006,974.22617032318,974.32957337174,0.0004864514156847449,0.10340304856003968,0.021929969418317194,0.0006510006051826953,3.5631779472754843,0.49,0.51,1.4805038123969454,Stairs down
-1.1013835560145453,-1.57409667968,-0.66430664062,0.08273359617561382,0.2859955273664576,0.052556818180681815,-0.12487792968,0.27319335937,0.015292445786465146,0.12295799280013127,0.2119931307670454,0.01806640625,0.41394042968,0.012598564240788087,0.11160375772370686,1.1328649178563637,0.68041984522,1.62842890379,0.08773056866474828,0.2945057391367222,974.3076451604327,974.26823497768,974.3405378843,0.0004531825146197915,0.07230290662005245,0.021166783253893207,0.0007256402563795146,-1.471694256628797,0.47,0.53,-0.23926799426392706,Stairs down
-1.0746172323960919,-1.33862304687,-0.89367675781,0.01256052195288331,0.11142777094303254,0.06248035649896553,-0.09838867187,0.19250488281,0.005529169035735192,0.07392980027470503,0.17499831626781612,0.06091308593,0.26782226562,0.0032566285244570317,0.056737959186788374,1.0945547456402303,0.9137456785,1.355102715,0.012525238379137481,0.11127115583971443,974.35304649917,974.33656734603,974.38385735531,0.00013000521691338923,0.0472900092800046,0.01133626499669553,0.0001630526144703318,0.3913844865417557,0.51,0.49,0.7832348293196828,Stairs down
-1.0507528615513952,-1.20129394531,-0.90881347656,0.006192983134631083,0.07823663913303694,0.013796784157093024,-0.10498046875,0.16821289062,0.006481371898935935,0.08003753562806282,0.18647517714,0.10021972656,0.23706054687,0.0011005967081681805,0.03298179910233355,1.0708524769230232,0.93111075121,1.21953947222,0.006004489193867922,0.07703680647637699,974.3559179883786,974.34736687495,974.37682966201,7.241789457270401e-05,0.02946278705996974,0.008460249761748228,8.666099139661153e-05,1.1183461200693579,0.6,0.4,1.4432411569224648,Stairs down
-1.0639915027790803,-1.23083496093,-0.89624023437,0.008829908809372625,0.0934259899849458,0.028889973957126433,-0.12634277343,0.14916992187,0.0059077364294598846,0.07641878965954192,0.13704427082919543,0.01904296875,0.26037597656,0.00493815633671863,0.06986698733346958,1.0780983814293104,0.9079153692,1.24189789713,0.008950078107022013,0.09405957498320817,974.3616756703012,974.35174105266,974.37681468939,5.6772325383845665e-05,0.025073636729985083,0.0074913129636708905,3.142112478743597e-05,-0.7103548384206122,0.55,0.45,0.6392447648227974,Stairs down
-1.0354678883243529,-1.26770019531,-0.82666015625,0.018389082560205845,0.134806307020253,0.058111213232941175,-0.056640625,0.18640136718,0.003712501165993875,0.06057082368342092,0.12169548482999998,0.05615234375,0.21594238281,0.0017862397248233726,0.042014582466394335,1.046515001868706,0.83240645639,1.27956769566,0.019017326227303216,0.1370897260102676,974.3641270085222,974.34674067895,974.38584116496,0.00014831861887461685,0.03910048600994287,0.0121067623230441,-5.090237391476519e-05,-1.0161627836378568,0.56,0.44,0.34580443883945605,Stairs down
-1.0458424287647057,-1.34729003906,-0.75952148437,0.01872439702113553,0.13602981289907543,0.04979319852894118,-0.078125,0.22668457031,0.008843139389510304,0.09348316669602108,0.13874511718388238,0.03100585937,0.2412109375,0.004039587080521732,0.06318277080528553,1.062388951928941,0.78380564394,1.35776647131,0.018296195120029092,0.13446540731978543,974.3607824508967,974.34361025039,974.39012906713,0.0001748469252705907,0.04651881673999014,0.013144957307665494,0.0003242804564213388,-0.2983729109014215,0.47,0.53,0.7067127681105037,Stairs down
-1.073058363966235,-1.47839355468,-0.73913574218,0.049524974121491046,0.22122912865877442,0.030990062038352945,-0.16955566406,0.19348144531,0.01387788028444116,0.11710939802007439,0.1578124999977647,-0.01977539062,0.31591796875,0.008305987360798541,0.09059950255071053,1.094481818822,0.75072354939,1.50042542742,0.05089291839800357,0.22426363544176411,974.4013649882153,974.36670587052,974.44596026096,0.0004112744900197921,0.0792543904399281,0.020160257106688756,0.0007578490356965407,-0.9838197513801683,0.32,0.68,-0.12138149476816659,Stairs down
-1.0841878255167856,-1.53381347656,-0.71960449218,0.05435194535930467,0.23174317334226163,0.06002807617,-0.1630859375,0.22302246093,0.011691520685620098,0.10748179341429502,0.13414510090702383,0.00512695312,0.3125,0.007926687852595763,0.08850040972231281,1.1017558240942857,0.72293602966,1.56532494283,0.05696331462640247,0.23724497872129793,974.4637529865017,974.42953406463,974.51016120317,0.0005114729524304286,0.08062713853996684,0.02248074706745794,0.0008203871305816637,-0.41742518917401483,0.56,0.44,0.506762039635995,Stairs down
-1.0281011742249397,-1.32287597656,-0.736328125,0.03819689036847341,0.19425932891384667,0.06932123023120482,-0.08471679687,0.24475097656,0.009655974767685725,0.0976710690137664,0.1486684040807229,0.02392578125,0.29077148437,0.006222627879557115,0.0784069924134416,1.0478559557528915,0.75127157064,1.34517136519,0.03980116087581727,0.19829681998729198,974.5390692191778,974.49873582734,974.60549536814,0.0007455728992373476,0.10675954079999883,0.027140193315863464,0.0010336013025945034,-0.5845082364428729,0.4,0.6,0.2246851342017608,Stairs down
-1.056605327556747,-1.46252441406,-0.69885253906,0.051036404592586196,0.2245473405580918,0.04161421074831326,-0.15344238281,0.27819824218,0.009919896944528942,0.09899686921247544,0.13621576147939762,0.00244140625,0.28747558593,0.006278274770640593,0.0787567959349165,1.0730321249903614,0.71021172922,1.47595954371,0.05235870208164722,0.22743762737446008,974.6158926707867,974.57412176503,974.67555836329,0.0007460342303597419,0.10143659825996565,0.02714858865831777,0.0010425056844091903,-0.7848430031451117,0.48,0.52,0.1293914231358758,Stairs down
-0.6295886671646987,-1.53515625,-0.09191894531,0.27540066185404105,0.5216153578938597,0.0652576124812048,-0.26989746093,0.71362304687,0.0858910240162411,0.2913008623426776,-0.4398972844486748,-1.16955566406,0.30590820312,0.24919402292965742,0.49617707051414506,1.0526283082384338,0.48965034804,1.63027049871,0.09034263616366038,0.29875436510235737,974.6859197806566,974.65885313257,974.71048991758,0.00025916342699724564,0.05163678501003233,0.01600128045093792,0.00045370428600958345,-1.0985952516933126,0.48,0.52,-0.13774751454101444,Stairs down
-1.0758562785789023,-1.49426269531,-0.62744140625,0.06590888159894562,0.2551570393898197,0.05657512385585366,-0.13940429687,0.36547851562,0.016252885333116446,0.12670706142287375,0.1722933141159756,-0.005859375,0.35534667968,0.010095341717091517,0.09986104242252007,1.0979752279282928,0.63609364019,1.50601143075,0.06841228446343181,0.2599576663832762,974.733330707108,974.67230165469,974.77501599303,0.0010251917842419266,0.1027143383399789,0.031822781861580045,0.0012522934935044288,-1.2260812521893731,0.52,0.48,-0.2721097255285502,Stairs down
-0.9906442901190124,-0.99645996093,-0.984375,1.154776984402852e-05,0.00337715927729589,0.07314272279691358,0.06030273437,0.08508300781,2.1426048540407534e-05,0.00460016623858581,0.18156979407358026,0.17004394531,0.19177246093,2.8449991417306874e-05,0.00530082606348905,1.0098218342109877,1.00272617671,1.01704093093,1.4262282049989447e-05,0.0037531592683786733,974.8643026506522,974.85614971555,974.87012636515,1.3207636745920956e-05,0.013976649599953817,0.0036117280493060595,5.139828087845651e-05,0.13864981862413694,0.43,0.57,-0.5580400088006532,Lift up
-0.9928151140276767,-1.00012207031,-0.9814453125,2.143730013048212e-05,0.0046065998030353945,0.07382294625494949,0.05944824218,0.08666992187,4.6413495505620595e-05,0.006778249945132972,0.18354319562555554,0.169921875,0.19287109375,3.684966238951222e-05,0.006039655915488641,1.0123748057187878,1.00192707615,1.02175880669,2.0889321870568412e-05,0.0045473419290119966,974.8655048382662,974.85872065056,974.87192773547,8.5957106250722e-06,0.013207084909936384,0.0029169993598256046,8.471900110532207e-06,0.5660648498801795,0.59,0.41,0.42389556442724996,Lift up
-1.0259723274025512,-1.05310058593,-0.99353027343,0.0003636623169155907,0.01897238722320057,-0.0006128427942857144,-0.13439941406,0.11901855468,0.006983189231830206,0.08313803100177648,0.19293462013285714,0.16174316406,0.23583984375,0.0003335101793603819,0.018168847356529468,1.047404949602755,1.0136227605,1.08064393852,0.0003922243465793924,0.019703351423770075,974.8606180498318,974.8473629955,974.86847607325,2.3924746716506614e-05,0.021113077749987497,0.004866273384014798,-0.0001165620229666415,0.7800352255586973,0.52,0.48,-0.7045186493953806,Lift up
-1.0075614235584092,-1.05932617187,-0.96936035156,0.000712641134289751,0.026543227753645805,0.08225874466943182,0.02819824218,0.17529296875,0.0018327699249082745,0.04256692370777348,0.17685907536988638,0.12634277343,0.21630859375,0.0003014091176859307,0.017262213475561682,1.02725610383625,0.98603320103,1.08658353538,0.000794046187245062,0.028018260743973334,974.7654274240366,974.66473331819,974.8473629955,0.0029571838969249874,0.18262967731004665,0.054070135328663,-0.0021113912028279135,-1.1043154445119996,0.4,0.6,-0.1384746127334454,Lift up
-0.9907804099435482,-0.99768066406,-0.98205566406,1.411645030762004e-05,0.0037369319661141893,0.06148405997677419,0.05029296875,0.07141113281,3.8013562315655645e-05,0.006132276439770705,0.18218140960612905,0.16821289062,0.189453125,3.077556188480978e-05,0.0055176663422630955,1.0092987960646234,1.0011061124,1.01591718578,1.4284336124937297e-05,0.0037590878032896756,974.5560895264115,974.45307610082,974.66473331819,0.004094937234638687,0.21165721736997511,0.0636467253790054,-0.0023596207334212215,-1.2065848779807908,0.56,0.44,0.15180176963787037,Lift up
-0.9909825088914851,-0.99877929687,-0.98315429687,1.928706865650556e-05,0.0043699093332354826,0.056355391393960376,0.03540039062,0.07836914062,7.894554055389991e-05,0.008841035094292678,0.18181345722178213,0.16650390625,0.19543457031,4.082568506027186e-05,0.006357788165447542,1.009153322318119,1.00056249474,1.0189364368,2.5906328109717167e-05,0.005064566102994526,974.3515412907585,974.23982858759,974.45307610082,0.004040550946737491,0.2132475132300442,0.06324986554783574,-0.0021590158786426736,-1.2072720489972786,0.48,0.52,-0.10131209071581185,Lift up
-0.9916395399265555,-1.00280761718,-0.98059082031,2.7468781934858953e-05,0.005211868498599504,0.023710123694333337,0.00415039062,0.05004882812,9.517724929227577e-05,0.00970153205942955,0.18347574869355554,0.17102050781,0.2001953125,6.9662911844376e-05,0.00829993249915622,1.0088300618872221,0.99784384676,1.01981544187,2.6874484491097463e-05,0.005155179832737462,974.137059888394,974.03002159081,974.23982858759,0.004125868636574858,0.20980699678000292,0.06387507848702831,-0.0024506728411023172,-1.1837192815193667,0.52,0.48,-0.011362403388330859,Lift up
-0.9928596402350617,-0.99816894531,-0.98364257812,1.0639475085215816e-05,0.0032416235964334125,0.039439260220617285,0.02429199218,0.04736328125,3.158569244834552e-05,0.005585315177140461,0.18115083670506174,0.17102050781,0.19323730468,2.599376954015887e-05,0.005066839133532382,1.0099893576825925,1.00184418084,1.01505194415,1.0172139387622648e-05,0.003169630486330263,973.920943229055,973.8118576708,974.03002159081,0.003981453307539424,0.21816392000994256,0.06270805022484674,-0.0026738754447666775,-1.2353553863345523,0.52,0.48,0.026784752326046057,Lift up
-0.9947151515755432,-1.0087890625,-0.98193359375,5.522911955420633e-05,0.00739113002438144,0.04399307914032609,0.02221679687,0.07104492187,0.00014222878562942848,0.011860978904299553,0.17829032565891306,0.15258789062,0.19470214843,9.782411376211837e-05,0.009836707181661327,1.011643853977826,0.99771131932,1.02500240424,5.039694278629868e-05,0.007060393043586587,973.6927058092115,973.5951093243,973.8118576708,0.003971450240095576,0.21674834650002595,0.06267601058382093,-0.002344760970213909,-1.0535248753181496,0.53,0.47,0.2228067193175081,Lift up
-0.9893583409892156,-1.01245117187,-0.97485351562,9.698071448581098e-05,0.009799485862397202,0.041757621013235276,0.00170898437,0.16479492187,0.0014896011252739096,0.03840569219104357,0.20566932827490197,0.1650390625,0.25939941406,0.0009806199667142367,0.03116096990582835,1.0125945164092156,0.99919182932,1.02864100137,6.854893901090204e-05,0.008238743265160442,973.4931398733943,973.4023986357,973.5951093243,0.003304696612248527,0.1927106885999592,0.05720400008612976,-0.0019355221568530447,-1.2369779839305302,0.52,0.48,0.08741911806349627,Lift up
-0.9675279405347779,-1.00146484375,-0.92834472656,0.0004293782973772149,0.02060600464443209,0.08697374131544444,0.05090332031,0.16479492187,0.0004052011633244156,0.020017465578248576,0.19006212022199998,0.17370605468,0.21594238281,0.00013851533259729733,0.011703686314414628,0.9900879764804447,0.94984574665,1.02360955459,0.0004919039942097531,0.02205534842785507,973.2902584598663,973.19164199236,973.4023986357,0.0037867055565022362,0.2107566433400052,0.06119339057707849,-0.002346391992605108,-1.1961697715668982,0.49,0.51,0.051082172540171326,Lift up
-0.9672023228199998,-1.00134277343,-0.93969726562,0.00040956188422461645,0.02011681255834673,0.0752970377572619,0.05041503906,0.09118652343,9.252753361982966e-05,0.009561695213844182,0.17480759393190476,0.16040039062,0.18859863281,4.123455651703895e-05,0.006383076761206555,0.985821382717738,0.95897744481,1.0210464808,0.00040555733172995033,0.020018223404112932,973.1248177182805,973.08938733046,973.19164199236,0.0008352693420314503,0.10225466190001953,0.02872848167565106,-0.0011319936999427231,-0.4661782668714798,0.62,0.38,0.7735755121180319,Lift up
-0.7672486536676697,-1.51696777343,0.02282714843,0.20701387169097807,0.452773705372234,0.07773034549262135,-0.13806152343,0.44555664062,0.020343056555386495,0.14193502440178796,-0.23901248672699035,-1.02697753906,0.20275878906,0.2537635046141609,0.50129809621461,1.0452528475959226,0.62554923005,1.56660135343,0.036085663514192616,0.18903787257182622,972.9904620633573,972.96011759361,973.0195712865,0.0004001022398592422,0.05945369288997426,0.01990521921742181,0.0004601599172125487,-1.449694412054968,0.45,0.55,-0.3401886593734693,Lift down
-0.9995720831865933,-1.0185546875,-0.99450683593,2.6356304237718666e-05,0.005105553302123156,0.061072716342197804,0.04528808593,0.09631347656,0.00012043207630556133,0.010913690800806577,0.1352431747901099,0.12426757812,0.15100097656,4.3264246106011436e-05,0.006541315986108697,1.0105907942807693,1.00431560823,1.03021744851,2.962760255747547e-05,0.005413134443868295,973.0309525998106,973.0195712865,973.03943478838,2.2833037384368394e-05,0.019863501880081458,0.004752065328427112,0.00015005115134390288,-0.7234545430623878,0.44,0.56,-0.08431320750693785,Lift down
-0.9786979951018073,-1.00231933593,-0.93200683593,0.0005425917570019741,0.023152850945782313,0.054209513833253016,0.04711914062,0.06591796875,2.2461939451358158e-05,0.004710765720648371,0.12781055863662652,0.10729980468,0.14331054687,8.56086160770995e-05,0.00919658561465813,0.9885334811951806,0.93959646261,1.01192206471,0.0005752866328584014,0.02384020697492149,973.0392459178428,973.03372215039,973.04243731486,4.058298773461733e-06,0.00871516447000431,0.002002349521815912,-4.343938355101825e-05,0.24409855093497068,0.48,0.52,-0.40452922710254335,Lift down
-0.9787164503490322,-1.01428222656,-0.94982910156,0.0005474452237622608,0.023271414137947675,0.05145066783838708,0.0341796875,0.06274414062,3.241054806549543e-05,0.005662335873882981,0.1336407405036559,0.12182617187,0.14965820312,6.0585157198119305e-05,0.007741686114465874,0.9891669324726885,0.95956734148,1.02575588441,0.0005814957380752385,0.023984225977303156,973.0859132410874,973.03821177659,973.15041273597,0.0012736518285047915,0.11220095938006125,0.03549586803492946,0.001308188728289935,-1.200259922987274,0.55,0.45,0.2741569435974668,Lift down
-1.0176367187458,-1.06005859375,-0.99145507812,0.0005798136585960968,0.02395862103732466,0.055725097652700006,0.0341796875,0.0849609375,6.773932414324829e-05,0.008189134930004255,0.13636108398080002,0.12145996093,0.15002441406,5.016430911358387e-05,0.007047174328938375,1.0283473487684,1.00230093081,1.07049148343,0.0005827939948291493,0.024020117711636174,973.2554505858237,973.15041273597,973.37948304466,0.003957341279864003,0.2290703086899839,0.06259207511391009,0.0021574199420854897,-1.1711820090214855,0.52,0.48,0.13491809722895898,Lift down
-1.0294420030344444,-1.06005859375,-1.00231933593,0.00039368596453012277,0.019730982642416562,0.055662706160000006,0.04248046875,0.07360839843,5.2789119666232746e-05,0.007225134870171178,0.1380276150142222,0.12841796875,0.14636230468,1.939663316505289e-05,0.004379624986088937,1.0401841172045556,1.01223995525,1.07049148343,0.00038274740220298464,0.019454939046155303,973.4345285522335,973.37948304466,973.47929738877,0.001020082635888989,0.09981434410997281,0.03176079949212726,0.00119129483919168,-1.1834283224520343,0.43,0.57,-0.4595339196240949,Lift down
-1.0026924826847727,-1.01513671875,-0.99072265625,3.424264848531203e-05,0.005818378423564173,0.054154829541363636,0.03869628906,0.06787109375,5.175470682979572e-05,0.007153082214072149,0.13085521350829546,0.11633300781,0.14306640625,4.818845372762894e-05,0.006902235700303363,1.0126941835434093,1.00190586774,1.02592019348,3.155749066738923e-05,0.005585596012861668,973.4898228601498,973.47884859232,973.50296847184,4.4678552641117874e-05,0.024119879519957976,0.0066461147910377395,0.00024466421804560426,-0.7248503833224875,0.41,0.59,-0.16901800162784597,Lift down
-0.9998918805770475,-1.01782226562,-0.98559570312,6.502073382272592e-05,0.008025053815314882,0.05267043340361905,0.03271484375,0.06958007812,9.527461322520329e-05,0.009714280001955464,0.14050525483304763,0.12121582031,0.19104003906,0.00023002778708161624,0.015094271968275499,1.0112521314035237,0.99884476839,1.02787544358,5.5939290535480034e-05,0.007443556635609289,973.5025040547264,973.49483458814,973.51205715001,8.03021172714918e-06,0.017222561870084974,0.0028202364298448366,2.049895976343223e-05,2.3565121689004513,0.31,0.69,-0.19557408534226717,Lift down
-0.9890680727713044,-1.01257324218,-0.96911621093,0.00016288029102609636,0.012692905620076142,0.06813911769260868,-0.00756835937,0.15710449218,0.003082347518284728,0.055216335815699215,0.21951293944913045,0.1455078125,0.26379394531,0.0012878656469124316,0.03569127494601557,1.0175219888853262,0.99119227349,1.04146569777,0.00021973376827242065,0.014742637408134286,973.5224888924204,973.51205715001,973.52980548718,1.883747117614793e-05,0.017748337170019113,0.004316562990930175,0.00011346978209839482,-0.44623632822569137,0.47,0.53,-0.03791150360874155,Lift down
-1.0557592773398,-1.47131347656,-0.67956542968,0.043582723171203874,0.20771830910993822,0.03882202148379999,-0.17431640625,0.24475097656,0.0110853794406876,0.10475937020754146,0.1432324218731,-0.01257324218,0.30041503906,0.008004785041460854,0.08902099297944414,1.0745125154380002,0.68594716006,1.50739356629,0.04456499056612025,0.21004604414379968,973.5490368973817,973.50293992058,973.60783843153,0.0005293396104588125,0.10489851094996538,0.022892055703982207,0.0006729283222682309,-0.38888234752772943,0.39,0.61,-0.19465798866755898,Stairs down
-1.066942536425281,-1.47131347656,-0.68273925781,0.06453698996022507,0.25261008539163843,0.07182809208101125,-0.08410644531,0.31127929687,0.012707165631147,0.11209098308616978,0.17245929160483148,-0.02709960937,0.33618164062,0.00851972417103465,0.09178233453752337,1.0913850330023596,0.69613904794,1.51790526508,0.06770756769690901,0.2587408133814673,973.604266055236,973.5722717897,973.64565669569,0.0004656277953699771,0.0733849059899967,0.021456840922845374,0.0006143468828039437,-1.1766767740484254,0.49,0.51,0.19905739927270827,Stairs down
-1.0107843308188096,-1.40454101562,-0.6806640625,0.0477923479760134,0.21730943709947212,0.10634794689035712,-0.04541015625,0.27990722656,0.0072560826624168675,0.08467408532697311,0.15002441405940478,0.02661132812,0.28869628906,0.0045639761241305435,0.06715387609835899,1.03195887127,0.69477604949,1.43284716902,0.0500617707724497,0.2224090765029002,973.6755920041645,973.64413959824,973.71033911984,0.0004621705511785589,0.06619952159996956,0.021369803948735364,0.0006651491644215049,-1.4811135867485286,0.5,0.5,-0.06889838408144297,Stairs down
-0.9953325379522642,-1.34423828125,-0.76989746093,0.03304081773522799,0.18091188990096024,0.06967566148037735,-0.04748535156,0.24060058593,0.006452466477708851,0.07994744619090373,0.08574978810226416,-0.14001464843,0.29846191406,0.010821058401917941,0.10353247290244773,1.0097631278399057,0.77689956549,1.36022432694,0.033428048680073603,0.18196892517751923,973.7573373163758,973.70569884619,973.79885017261,0.0007078870398284301,0.0931513264199566,0.026480348566576824,0.0008117331842061583,-1.4661526277812877,0.56,0.44,0.02214293954505688,Stairs down
-1.0615065554321275,-1.37622070312,-0.796875,0.029579899195984978,0.1710708023518458,0.06269089718829786,-0.02783203125,0.14904785156,0.0020376810970198227,0.04489992915964221,0.11885622714095748,0.0068359375,0.25244140625,0.005870352633645065,0.0762095930556821,1.0733063927772337,0.80457166189,1.38769432996,0.030277734453449053,0.17307695079193428,973.8371511241023,973.79885017261,973.88253646002,0.0005331282835747098,0.08368628741004613,0.022966425627203562,0.0007611679797626807,-1.2100979495275503,0.55,0.45,0.04150438856703727,Stairs down
-0.9708899072810843,-1.27172851562,-0.70349121093,0.027734423678424658,0.16553028120423185,0.10300675357301207,-0.08544921875,0.44030761718,0.018969194851778465,0.13689649497153672,0.1469314759006024,-0.0283203125,0.27917480468,0.006429894042081831,0.07970210435844954,0.9974797173678314,0.71691172248,1.30115480758,0.032748586445306725,0.17987224678319094,973.8917048909901,973.85377877934,973.93690332845,0.000518360416719756,0.08312454910992528,0.022629960461614085,0.0008658864840063006,-0.5611117140550008,0.43,0.57,0.21748583068607036,Stairs down
-1.118378468045,-1.58752441406,-0.78991699218,0.027403235894635693,0.16447465566927016,0.02381779597371795,-0.12866210937,0.20288085937,0.012132513824678294,0.10943933833701644,0.19680707882205128,0.02868652343,0.40698242187,0.006055327663942681,0.077315556377709,1.1428276844538459,0.79853120429,1.63909618353,0.029399082819066124,0.17035894898969342,973.9464340334242,973.91664093621,973.97063938161,0.0002232066697027574,0.05399844539999776,0.01484402390634727,0.00041838594770937567,-0.7372676695066218,0.5,0.5,-0.17780551620685264,Stairs down
-1.1197016552208081,-1.26843261718,-0.962890625,0.007845131693649504,0.08812427553840199,0.03399349944626262,-0.16467285156,0.2255859375,0.011173525130782054,0.10516967833255046,0.16449406170737374,0.04113769531,0.23913574218,0.0033287656286274,0.05740332510742509,1.1388049310739397,0.99554934864,1.28687420839,0.007264045111378134,0.08479782378300701,973.9594666100646,973.93805511625,973.99181861327,0.0002072583770947125,0.05376349701998606,0.0143235770020676,-8.367149045608161e-05,0.025308293594167974,0.62,0.38,0.9305878835448532,Stairs down
-1.0773190868106124,-1.21215820312,-0.96923828125,0.006257462052837807,0.07869949427561414,0.03694246253010204,-0.17004394531,0.15747070312,0.007813368994707904,0.08794112086879416,0.15185048628418368,0.06762695312,0.212890625,0.0017293774339398825,0.041373067633791574,1.0930864689315307,0.99773826978,1.22775929978,0.005900897066869482,0.07642436673923614,973.9490109188969,973.93328761903,973.97558090058,0.00013273630815153906,0.04229328154997347,0.011462192461634196,-9.182435196437092e-05,-0.5865879905498268,0.49,0.51,0.306503754671054,Stairs down
-1.0765408921474713,-1.26428222656,-0.88549804687,0.01150535566056266,0.10664478511957287,0.007649739582413793,-0.15734863281,0.15405273437,0.006834258057753139,0.08219308588582216,0.17954718929298852,0.10461425781,0.24609375,0.001211514143299582,0.03460619443649646,1.095423619478391,0.90773898334,1.28323407186,0.010732866589895565,0.10300242864735319,973.9313460569189,973.91614146856,973.96384883325,0.00013156443959742436,0.04770736469004078,0.011404043346967905,-0.0001551199687899571,0.8890550235288388,0.56,0.44,0.8738765152826538,Stairs down
-1.028039139304944,-1.20031738281,-0.69067382812,0.020217002591381674,0.1413854492474181,0.02127040905988764,-0.10510253906,0.14392089843,0.0047101758690361135,0.06824406600331578,0.1579562412183146,0.03479003906,0.25085449218,0.003982278764624598,0.06274977338129674,1.0446388543310112,0.71004871733,1.2055271802,0.01980388785996109,0.1399334565642861,973.9244483879,973.90640930135,973.94611169806,0.0001353516670409616,0.03970239671002673,0.011568528938171455,-7.758872497873753e-06,-0.870595560019614,0.55,0.45,0.2915607375500063,Stairs down
-1.0798138368447574,-1.39892578125,-0.72106933593,0.04047404787624925,0.20020263723318088,0.05057503413097088,-0.18774414062,0.25671386718,0.014352900439985852,0.1192206017935861,0.157406705093301,0.05236816406,0.27075195312,0.004352118993652589,0.06564956520183468,1.0985996491668932,0.73696343817,1.41972471964,0.040825518903527556,0.20107002422620898,973.9477506207355,973.92162701342,973.99126661229,0.0004719814556523309,0.06963959887002602,0.0216194151498762,0.0005196617326121178,-0.9911444127233571,0.51,0.49,0.47506813545072185,Stairs down
-1.0541308057141758,-1.39758300781,-0.72399902343,0.04281490750043453,0.20577758384094894,0.06483006739285715,-0.20532226562,0.25659179687,0.015264954714562988,0.12287069609739297,0.15582610748373626,-0.05480957031,0.29760742187,0.008361162192335474,0.09093558868299581,1.0776191957983514,0.73606192838,1.42896386369,0.04461451041897103,0.21005770891283093,974.0060846274348,973.96904994754,974.04909180794,0.00048258067819322725,0.0800418604000015,0.021846683817400698,0.0007112090109703463,-0.6248553103456711,0.67,0.33,0.7124129356646177,Stairs down
-1.021957948980482,-1.39758300781,-0.67919921875,0.0479132247396114,0.2175682811709103,0.06909767978096386,-0.11938476562,0.27429199218,0.01565503307247762,0.12436405516137976,0.14993175827951805,0.01696777343,0.31616210937,0.005519675260068489,0.07384560344733733,1.0447381720927715,0.69624939493,1.42896386369,0.04902037804693672,0.22006765114963125,974.0889399113939,974.03444425351,974.13801403057,0.001040825898648142,0.10356977706010184,0.0320668961326177,0.0011142914536888622,-1.0460305348705103,0.58,0.42,-0.1223009854014504,Stairs down
-1.0227895883376923,-1.31555175781,-0.72497558593,0.040577333201262555,0.20014272652468176,0.0695299979953846,-0.21276855468,0.32006835937,0.018651325375118107,0.1356915834494787,0.1812759790632051,0.08178710937,0.36694335937,0.00552612949248983,0.07385987867904706,1.0517135332556409,0.73824009452,1.34294868574,0.042157668594347913,0.20400290601766227,974.1624142513963,974.12410988114,974.19872549947,0.0004833777781274308,0.07461561832997177,0.021844464450423064,0.0008032234076805182,-1.0541812704909177,0.37,0.63,-0.33267925042108976,Stairs down
-1.085390152466129,-1.48181152343,-0.79943847656,0.03952838629883129,0.19774566970484056,0.00202662970344086,-0.19677734375,0.17028808593,0.010449053197374573,0.10166955191526181,0.19365339381311825,0.04736328125,0.32385253906,0.005794227847907391,0.07570947313686098,1.1094326593525805,0.82290477784,1.51247106358,0.04034246352123355,0.1997715535077447,974.2333419181213,974.18701885174,974.27210894112,0.0005560812749483502,0.08509008937994622,0.023454251350246043,0.0007571438332820108,-0.674255291491848,0.53,0.47,-0.1673819592550442,Stairs down
-1.1005114746057,-1.70727539062,-0.68115234375,0.08015953046298473,0.28170540491505464,-0.0075000000001,-0.21789550781,0.19494628906,0.014044861094290042,0.11791697283829475,0.17634155273109994,-0.05236816406,0.38818359375,0.010865327111973015,0.10371438589151115,1.1237480244817002,0.69706433593,1.75124065239,0.08433080597575657,0.2889420321033252,974.2888076344731,974.26067935955,974.35542965277,0.0003596712600091224,0.09475029322004502,0.01886993766309341,0.0005231166301772377,1.623730672053675,0.55,0.45,0.956537256748868,Stairs down
-1.0897176106736668,-1.44812011718,-0.74047851562,0.03523544195324074,0.1866653075497672,0.046107313366111104,-0.21484375,0.17199707031,0.00858924604628166,0.09216186835725909,0.16712782117588887,0.01733398437,0.32458496093,0.005987213047895642,0.07694601002309723,1.1099783967635557,0.7655826187,1.45815664197,0.03513889028128574,0.18640938325913003,974.3469779480109,974.31175983816,974.37260987294,0.0003473115653487904,0.06085003477994633,0.018532472796581306,0.0004495244045698305,-1.2471094443562976,0.38,0.62,-0.3147321858438411,Stairs down
-1.0785656440513414,-1.27392578125,-0.86694335937,0.014557887284830085,0.11991810569734444,0.02496337890609756,-0.21484375,0.14416503906,0.006421794953482099,0.079645969018392,0.16329732754999998,0.03479003906,0.24243164062,0.0034506939255010325,0.0583833220386029,1.096061934698537,0.88464932382,1.27926239666,0.013538823655563019,0.11564478392909631,974.3779040606951,974.35892682851,974.41178426515,0.00021214707319684148,0.052857436640010746,0.0144761843649358,0.00016014038414613048,-0.08281511307275213,0.62,0.38,0.8681228094446587,Stairs down
-1.0371127975284111,-1.16015625,-0.93615722656,0.0041850786890369664,0.06438917458775734,-0.002561194874485981,-0.08679199218,0.07263183593,0.0022816090032392444,0.04754246054434751,0.13058671327018692,0.02612304687,0.23254394531,0.0035191781620347727,0.05904480202779697,1.0482538335237381,0.94730006676,1.16276120409,0.0037539281437622284,0.06098233107356851,974.3786013907202,974.36535671456,974.39814996328,8.617089159496571e-05,0.03279324872005418,0.009239348254043612,0.00010194526838084213,-0.13935859867485778,0.53,0.47,0.5913514310679042,Stairs down
-1.076739372086915,-1.2138671875,-0.912109375,0.00848229909056127,0.09160819759275693,0.033560245595,-0.14147949218,0.15771484375,0.007578158326548278,0.08658833420817554,0.1398198553826596,0.02624511718,0.21545410156,0.003101590922858758,0.05539490296717957,1.092142304216489,0.93409468168,1.23318400448,0.007989378948557748,0.08890661142731729,974.3803892602874,974.36592075598,974.40117683313,0.00011649858869256304,0.03525607714993839,0.01073588571121844,-0.0001618366463690883,-0.9544579145478718,0.54,0.46,0.4981937941318531,Stairs down
-1.093510167735647,-1.23486328125,-0.912109375,0.007599697030311785,0.086661922607078,0.022111960017411763,-0.15148925781,0.154296875,0.008432644872310229,0.09128766228564059,0.12783921185270586,0.03698730468,0.18786621093,0.0022171981111958837,0.04680933056063455,1.1060459887745884,0.93409468168,1.24549636751,0.007380226252293853,0.08540140549833121,974.3782308900064,974.36592075598,974.39028198865,5.658238053723909e-05,0.02436123267000312,0.007477747352785804,6.398208379232853e-05,-1.5815164183773196,0.47,0.53,-0.10860452764049199,Stairs down
-1.0709197215515385,-1.3193359375,-0.8408203125,0.012826223642321923,0.11252459676744801,0.01460618239051282,-0.13317871093,0.2412109375,0.007476757805648092,0.08591217571651245,0.12110001001397439,-0.02758789062,0.25329589843,0.005952423616131335,0.07665579229808794,1.0844009662382055,0.85230496612,1.32159751793,0.011893424524547546,0.10835564001449478,974.3783678548397,974.36446123287,974.39962939019,8.23799634989825e-05,0.03516815731995848,0.009017971508093735,0.00015287028938066374,0.01353983942798953,0.54,0.46,0.7877356569048559,Stairs down
-1.2274044721515383,-1.63830566406,-0.75964355468,0.058512215719086144,0.24033738599581836,0.04630064352846153,-0.24609375,0.43774414062,0.04408459621031167,0.208613060663541,0.17986121544012823,-0.01281738281,0.33654785156,0.008647869747595533,0.09239588531220619,1.2625841323752562,0.80056113962,1.67046524041,0.05745188376341804,0.23814978721608493,974.4145832452076,974.38778244179,974.44482194398,0.0002977081096974028,0.05703950218992304,0.017143259289302503,0.0006895902525399767,-0.9928113150487601,0.46,0.54,-0.009363335227808368,Stairs down
-1.1127096871313085,-1.44116210937,-0.7607421875,0.04201848821755909,0.20402399875013016,0.06037004417149532,-0.14038085937,0.2626953125,0.015858149818401484,0.12533931071596363,0.17069080387962624,0.05358886718,0.26684570312,0.002427937628862193,0.049043313743924115,1.1349976196817755,0.78114601396,1.45486840394,0.04282435301263913,0.20597117617373106,974.4646990664476,974.43367550577,974.52650386961,0.0006660148368695398,0.09282836383999893,0.025686385482231382,0.000682940968167779,0.46752191617370054,0.5,0.5,0.940767651535815,Stairs down
-1.0838116584893618,-1.40612792968,-0.71704101562,0.050288202432226474,0.2230543018085235,0.07382786527468084,-0.1142578125,0.35107421875,0.0170226579640916,0.12977505869037634,0.17679027800457447,0.04333496093,0.361328125,0.007648756803942391,0.08699072968258721,1.11049441981883,0.72968818656,1.45210117758,0.05287993770948075,0.22872993940596512,974.5319931751121,974.48530761824,974.61348396838,0.0010615821976079844,0.1281763501400519,0.03240815900315624,0.0010292880215340544,0.5215317498042653,0.54,0.46,0.8956649475630292,Stairs down
-1.0468849359510464,-1.38464355468,-0.71618652343,0.047398291691352734,0.2164420217164613,0.12614689316744188,-0.09167480468,0.45703125,0.02418796394782566,0.1546179438263344,0.12905954759860463,-0.04516601562,0.29931640625,0.006771704093804461,0.0818105332370329,1.076875529682907,0.73342536846,1.41376708301,0.0468683698867692,0.21522868963401282,974.6054030747952,974.55741329118,974.65851864245,0.0007640227931000061,0.1011053512700073,0.027479789066398,0.0009680498153166113,-0.8574142470748094,0.42,0.58,0.18188797435242904,Stairs down
-1.1192357113438947,-1.62377929687,-0.68994140625,0.06632272334104027,0.25617296776032905,0.016763466282947368,-0.19519042968,0.24584960937,0.019572053639954144,0.13916189141676494,0.2082982113445263,0.05017089843,0.39794921875,0.007953712020605543,0.08871295698024115,1.149914380800842,0.72380598212,1.67186679125,0.06762712770212856,0.2586798469150639,974.6933785245152,974.63007150499,974.73435112412,0.0007633812736930405,0.10427961913001127,0.02748355292421955,0.0008468057393660228,-0.46516704628540806,0.41,0.59,-0.3496077735338687,Stairs down
-1.1907910156216,-1.7607421875,-0.67651367187,0.09064973421720918,0.29957175580324175,0.020489501953,-0.27124023437,0.29724121093,0.030640519137885236,0.17416691404083148,0.15918457031039998,-0.23522949218,0.48791503906,0.023686944811420658,0.15313417438085614,1.2230002323896,0.73512105381,1.82716658321,0.09246530076573134,0.30255685045636305,974.7746809717775,974.72592125436,975.3342749108,0.010149763870006516,0.6083536564400447,0.10024104065354894,0.0014948077836571343,26.144260937222427,0.82,0.18,5.197873506216018,Stairs down
-1.2461719298589886,-1.72973632812,-0.85827636718,0.058929025194453956,0.24138537925041068,0.12084823779797751,-0.23193359375,0.64855957031,0.06515272520140586,0.2538122773020549,0.12308802229404496,-0.31994628906,0.45385742187,0.04321713032388191,0.20671609659120815,1.2981415721158427,0.87378391841,1.83172003292,0.06366232031042388,0.2508924338050947,974.8288913442651,974.72577170922,975.3342749108,0.016434812378200908,0.6085032015799925,0.12747608232512755,-0.00137656323223799,10.920514424505448,0.69,0.31,3.4338434870606425,Stairs down
-1.09370269774925,-1.24291992187,-0.90808105468,0.010136506034516364,0.1000489865470156,0.05728454589550001,-0.11450195312,0.17895507812,0.00526653059447858,0.07211587177624353,0.196270751950125,0.05810546875,0.34765625,0.007882609435202343,0.08822741533821737,1.1183689307801248,0.92461332861,1.26043737672,0.010364383279856178,0.10116732915748035,974.8612975134305,974.84294959873,974.88594876934,0.00012859414010845356,0.04299917060995995,0.011268838154712219,0.00018590493584231513,-0.6627960583188508,0.61,0.39,0.5699601841419499,Stairs down
-1.0802587890591,-1.27319335937,-0.91455078125,0.011556714917494677,0.10696330103507339,0.03993652343549999,-0.11181640625,0.17504882812,0.007430258940604887,0.08576687210805135,0.1757897949184,0.07019042968,0.3134765625,0.005245741646439385,0.07206444497791537,1.101284349531,0.93196002115,1.29104109838,0.010726463705325722,0.10304949814663081,974.8699404015316,974.85566831076,974.89103225514,0.0001413781345192382,0.03536394437992385,0.011830653116968895,5.7810407116131555e-05,-1.2710585543792476,0.59,0.41,0.42487930522930606,Stairs down
-1.0509656010804083,-1.18286132812,-0.94543457031,0.005284007444903341,0.07231935426694573,0.02113186583173469,-0.111328125,0.13940429687,0.005159628416077039,0.071463131379231,0.17961400868683675,0.09118652343,0.25817871093,0.00337665650633266,0.05781177066737026,1.0703828735661225,0.95814074606,1.20957204066,0.005249784708240887,0.07208477978411354,974.8683985833468,974.85626881779,974.88167547191,8.746242390725207e-05,0.02540665411993359,0.009304297404635816,7.371652632227656e-05,-1.541167300451378,0.61,0.39,0.2639603300573916,Stairs down
-1.0665130615193184,-1.28466796875,-0.92138671875,0.01129326046615556,0.10566422270976272,0.022868763315568183,-0.11450195312,0.16101074218,0.007098288332268682,0.08377127171564568,0.1830472079163636,0.09118652343,0.27331542968,0.0028072242686260494,0.052681343878513656,1.0867785237410226,0.94262500082,1.29903161312,0.011480145504973562,0.106534920594392,974.8660333503867,974.8507043589,974.88627684918,9.525984295995813e-05,0.035572490280060265,0.009704501262017749,7.926265835851091e-05,-0.44407885151123017,0.64,0.36,0.650383808665443,Stairs down
-1.023675006365761,-1.22998046875,-0.75207519531,0.015228198571613394,0.12273008870727609,0.059677787447391314,-0.07788085937,0.20532226562,0.006071448273947524,0.07749486609427642,0.14838575279934782,-0.14245605468,0.2568359375,0.008215721568156734,0.0901466596539424,1.042662678585435,0.76739602683,1.23412359067,0.015710138859572943,0.1246570354238562,974.8560952877407,974.84141576717,974.87790243597,0.00014347050176550537,0.03648666879996654,0.011912642015514164,-0.00015821108111190843,-1.3542327080469534,0.63,0.37,0.3916674506977874,Stairs down
-1.052611071650707,-1.40698242187,-0.69470214843,0.04078050003237315,0.2009193265706958,0.04911418876232322,-0.10229492187,0.294921875,0.011834123657502965,0.10823394594535453,0.14737585818717172,-0.07580566406,0.27893066406,0.008076701071194363,0.08941542502326648,1.0729743170508081,0.71193618635,1.42216765881,0.040113421826250883,0.1992692543951471,974.8733118291644,974.83997022491,974.95056391544,0.0008082766553435623,0.11059369052998136,0.02828625540228905,0.0007487572871662328,1.8296258074763614,0.67,0.33,1.4897886496598256,Stairs down
-1.084095472695955,-1.46801757812,-0.78869628906,0.038752309178923285,0.19574700502093442,0.01834209313516854,-0.26342773437,0.18725585937,0.016557855540210262,0.12795238262546635,0.1584609813869663,-0.01062011718,0.2890625,0.005965581481474505,0.07680203432243628,1.1055880253547192,0.80229701358,1.4962641965,0.03941454180687111,0.1974124661377016,974.9402695522052,974.90186913922,974.98758564564,0.0004987708718969992,0.08571650641999895,0.022207356997108706,0.0007882830954954783,-0.47795134236453496,0.55,0.45,0.39106527387485474,Stairs down
-1.08418731688975,-1.48815917968,-0.66418457031,0.05469129279537065,0.23239546388737564,0.05331878661962499,-0.11669921875,0.25341796875,0.01117544373848431,0.10505118129632458,0.16333465575875,0.01184082031,0.35571289062,0.008979074730107678,0.09416387999642607,1.1060228032918749,0.68661464774,1.50641146482,0.05631092466329375,0.235811446085644,975.0111835908499,974.96943127767,975.08316308346,0.0010827121832120991,0.11373180579005293,0.032698291712594835,0.0012512026038578913,-0.23531770701183552,0.45,0.55,0.5690401406890907,Stairs down
-1.1014303620295878,-1.38012695312,-0.76330566406,0.038252105523597875,0.19457069131876417,0.10969968186051544,-0.16711425781,0.72485351562,0.052205587079986654,0.22730460873314248,0.19413332594649485,0.07580566406,0.33605957031,0.004455512354492507,0.06640466276878366,1.1465713450113402,0.78163430298,1.44151047844,0.04261884953299355,0.20537643474892436,975.096879431785,975.0503053161,975.14852988418,0.0008693461524401556,0.09822456808001334,0.029332299960482137,0.0008406781483064221,-1.161689193652918,0.45,0.55,-0.1297945786865087,Stairs down
-1.0156712582193683,-1.373046875,-0.70520019531,0.048643256178364104,0.2193882902590801,0.05832648026252628,-0.13940429687,0.396484375,0.01738957150590414,0.1311736382997337,0.20766087581905265,0.09741210937,0.37561035156,0.00504571589893065,0.0706583547784304,1.0474087065654736,0.72049570587,1.40813308837,0.0519250517068776,0.2266681985088033,975.1844937866929,975.13613533553,975.27568268174,0.0012923681950606609,0.13954734621006537,0.035759814307727886,0.0010992253929854796,0.8374421541892341,0.46,0.54,0.9100931102060872,Stairs down
-1.0398107192061175,-1.35729980468,-0.72985839843,0.03804721001648207,0.19390615199367464,0.05364056755447058,-0.1572265625,0.24230957031,0.01360286466240102,0.11594322300372031,0.1762221392424706,0.01550292968,0.29919433593,0.00418358796202244,0.0642990612693241,1.0631666734627057,0.74592205888,1.39466676133,0.04046739204658838,0.1999782615219324,975.2741571071917,975.22400525525,975.3505784544,0.001155510347757838,0.12657319915001608,0.03379224923517894,0.0011667479319325796,0.06796670442193209,0.61,0.39,0.5902461637610206,Stairs down
-1.1153633031919101,-1.56457519531,-0.63903808593,0.07199976232860784,0.2668159969623785,0.04509057891449438,-0.09057617187,0.22998046875,0.01131962866402665,0.1057943373962189,0.1592153484875281,-0.06628417968,0.39709472656,0.018261479112540904,0.1343737100551035,1.1399401801166291,0.65985185049,1.59888594201,0.07321654113869573,0.2690611145689626,975.3545219522263,975.30417448703,975.4011669832,0.0008820923455967476,0.0969924961700599,0.02953271399052621,0.001040625101375498,-1.0310837253477336,0.43,0.57,-0.15844376666408663,Stairs down
-0.069767761232125,-1.36291503906,0.20861816406,0.14532023930072568,0.37881887005462994,0.92490692138325,0.5458984375,1.16662597656,0.026163712500004672,0.16073788008355283,0.288606262203375,-0.015625,0.43530273437,0.017388858653100133,0.13104006227080472,1.0429293765175,0.7139671767,1.5329024828,0.04296115871722989,0.20597122185699757,975.3910828990589,975.35966692402,975.43119838459,0.0006237268453582247,0.07153146056998594,0.024817942295670827,-0.0009920935096024977,-1.435403574232724,0.46,0.54,0.1526134146932647,Stairs up
0.14061795747884615,0.01135253906,0.20849609375,0.0038211822587699454,0.061517803290319036,0.9334646371656733,0.72473144531,1.21838378906,0.02451090871313088,0.15580509265932724,0.30976632924817304,0.14196777343,0.46862792968,0.007148547779784054,0.08414161719054357,0.9985713826326925,0.81978610269,1.29155181622,0.025322980286339232,0.1583650532512722,975.3366031399133,975.30940588188,975.36454794543,0.0002653694422377863,0.055142063549965314,0.016211656700827953,-0.0005283171946417782,-0.8987502168250279,0.58,0.42,0.27767508989871736,Stairs up
0.055498206094456506,-0.10754394531,0.17333984375,0.004754535634594127,0.06857737162822367,0.9963232952571738,0.78747558593,1.23168945312,0.01999562285827924,0.14063526987053715,0.24510922638934782,0.08093261718,0.3603515625,0.006652856529734638,0.08112054531253313,1.0319122881661955,0.8189006281,1.25805893847,0.02227956907679139,0.1484499910666748,975.2887407805518,975.26483769485,975.30072833124,0.00013354471575581427,0.03589063638992229,0.011493178096526151,-0.0003659045037504456,-0.5461386488680282,0.35,0.65,-0.9237077250475256,Stairs up
0.06947859798301205,-0.04345703125,0.15771484375,0.0029345684731388526,0.05384433328099187,0.9566032685391567,0.77099609375,1.2060546875,0.015530632535719355,0.12386894881717588,0.33304752211722893,0.16333007812,0.75927734375,0.021476896473743685,0.14566447296751325,1.0270289085993975,0.84093961855,1.24760415428,0.01569937837510364,0.12454007081278778,975.2298191674348,975.19379878995,975.26709364079,0.0006357690859491792,0.07329485083994314,0.025062107202782596,-0.001032233218506065,-1.4231036761161697,0.51,0.49,0.03258937938481512,Stairs up
-0.6003257349876314,-1.64086914062,0.07702636718,0.3270479147990317,0.5681061984895098,0.5849304199180263,0.1611328125,1.18395996093,0.12172958299497097,0.34659468829681084,0.27516415244328946,-0.02600097656,0.74914550781,0.03691210735030222,0.19085707146257885,1.0906094099369736,0.54503202521,1.7005549866,0.06902822859553276,0.2609980123100597,975.1594690393525,975.12882337883,975.22140720425,0.0005393252443762392,0.0925838254199789,0.023070085816524716,-0.0008809503747004291,0.011035052773350262,0.67,0.33,0.9232752990099199,Stairs up
-1.1506666703623865,-1.494140625,-0.89672851562,0.026427761403613814,0.1616398649254515,0.08776578035897728,-0.07006835937,0.32824707031,0.0078658821173734,0.08818444927146928,0.27393271705886363,0.12536621093,0.43774414062,0.005772840140220715,0.0755462751171879,1.1899487848852273,0.90800793098,1.56143360464,0.030758350733035025,0.17438126051889757,975.0837321732571,975.04403515229,975.13023286709,0.0008465585973852182,0.08619771479993688,0.028929891346564412,-0.0010956587250107476,-1.479757216345536,0.61,0.39,0.3346772085531745,Stairs up
-1.0587569256174492,-1.20483398437,-0.80310058593,0.01121976447599091,0.10538157848209885,0.1789239377352041,0.07409667968,0.28234863281,0.0034562620648787836,0.0584892646955398,0.18444948779857145,0.00427246093,0.36767578125,0.007942125814241441,0.08866275268733834,1.0944081153120406,0.8304291914,1.24324490268,0.011780053233830226,0.10798077888677791,975.0178308580863,974.9904897919,975.03709483172,0.00022204957708935155,0.046605039819951344,0.014825105904452613,-0.0004975552265643141,-1.3279249433162892,0.46,0.54,-0.25366030758135927,Stairs up
-1.1299664786655057,-1.34765625,-0.90539550781,0.01131925040878053,0.10579256977651043,0.0659824328460674,-0.20837402343,0.29650878906,0.019019221069850847,0.13713322703380992,0.29056574789,0.06860351562,0.55517578125,0.015610955857240066,0.12423989640547883,1.1817364913401123,0.92618467498,1.38714082768,0.01470359378759669,0.12057522493711106,974.9561486516815,974.91575967965,974.99132825219,0.000591019203358192,0.07556857253996441,0.024173922688548503,-0.0009288923379128618,-1.265760825910344,0.54,0.46,-0.08833199249777508,Stairs up
-1.0549509932314636,-1.43762207031,-0.77478027343,0.020823416323624444,0.14342061296102743,0.12993342701707317,-0.03369140625,0.29577636718,0.009898168419241767,0.09888103482607474,0.162484517907561,0.00756835937,0.31494140625,0.008892895182369331,0.09372537138427846,1.083444957670976,0.79514440847,1.45772455201,0.02174914583028903,0.14657391427042465,974.8928769732245,974.8665324044,974.91920593782,0.00030726641735901675,0.05267353342003389,0.01742180432469063,-0.000707601402666599,-1.3992624784946939,0.5,0.5,-0.009531038904340039,Stairs up
-1.0901672363248,-1.23742675781,-0.90356445312,0.0064818769918646825,0.08010654294092359,0.12043212890350002,-0.07983398437,0.3232421875,0.014694172378220082,0.12061190096519449,0.14291381835640002,-0.03247070312,0.32727050781,0.00936430974891662,0.09628430116808998,1.1160912371376002,0.91375721618,1.2467062769,0.008048652745238784,0.0892645854624688,974.8596969474769,974.85210427107,974.87312270788,3.0252756676813957e-05,0.02101843681009541,0.005472680249205668,-0.00014488157775918706,-0.3674669437125462,0.62,0.38,0.7676493314620685,Stairs up
-1.064642723567021,-1.16064453125,-0.95495605468,0.00356411408908646,0.05938179840452589,0.10528304728691489,-0.06799316406,0.26159667968,0.007211840834534274,0.08446963432813351,0.14290667594446807,-0.02014160156,0.30053710937,0.010793787185495495,0.10333905197090568,1.0871224973068088,0.95636547052,1.19760342386,0.004524047701921262,0.06690231337464757,974.8558411069386,974.84927853346,974.86519881488,1.9005728529320115e-05,0.015920281419994353,0.004336304870271966,-2.4353318312189638e-05,-0.3818721449519291,0.44,0.56,0.2276835351975892,Stairs up
-1.0342160179458333,-1.15356445312,-0.89538574218,0.007020885965801944,0.08329047958811732,0.08200945172690477,-0.05200195312,0.17810058593,0.002500754580555039,0.0497089900590556,0.08640107654214287,-0.01977539062,0.22814941406,0.005853130077343454,0.07604899708329545,1.0452582713099998,0.89793810855,1.16560034968,0.006497705510341638,0.08012709824593525,974.8555849564834,974.84654318271,974.86285470298,1.7696571837941373e-05,0.016311520270051005,0.004181614325075923,-7.070380590076145e-05,-0.4820763956984573,0.54,0.46,0.05120459379230577,Stairs up
-1.0474587464902565,-1.15600585937,-0.9697265625,0.002876447643335316,0.053287616849005376,0.08974828475217948,-0.02746582031,0.1962890625,0.005212678788166063,0.07173457724788768,0.1371146960094872,0.01025390625,0.27038574218,0.006874750258639094,0.08238089848266034,1.0660186667510254,0.99331029304,1.17334228845,0.002432439452602231,0.04900259514979817,974.8520798814257,974.84654318271,974.85773566663,1.3560278917699472e-05,0.011192483920012819,0.0036587469423267544,-1.745247682254262e-05,-1.331062563329505,0.53,0.47,0.25262718199764256,Stairs up
-1.0620789259960675,-1.13977050781,-0.96899414062,0.0026665526395498688,0.05134774945347604,0.09190385796808989,-0.03381347656,0.23376464843,0.004057102521605013,0.06333653842778231,0.13852785945955057,0.00122070312,0.2666015625,0.0069551273374028715,0.08292755777924372,1.0799906000419102,0.99128511649,1.17011330746,0.002825066454796857,0.05285190758222486,974.8582008801963,974.84612468813,974.86276214892,2.5286625597642606e-05,0.01663746078997974,0.005000250614609737,0.00014939974382769438,0.450892806285101,0.3,0.7,-1.2629876238513065,Stairs up
-1.069044941599899,-1.26904296875,-0.8701171875,0.013964811973054119,0.1175744583923549,0.07126563486212122,-0.03942871093,0.30798339843,0.0053694885834516155,0.07290577017652931,0.15146706320626263,-0.08862304687,0.31213378906,0.01323610585641249,0.11446574953871061,1.0903719597731314,0.87522573624,1.28283202961,0.014353536070543703,0.11919962608041154,974.8386765928796,974.81740010257,974.86362131208,0.00019774904002533883,0.04622120951000852,0.013991124864519573,-0.000467307668908895,-0.9050530710792115,0.34,0.66,-0.04556101972090207,Stairs up
-0.9164081920254546,-1.59240722656,0.68981933593,0.3592105934130767,0.5959267193636852,0.289260864255,-0.09912109375,0.79577636718,0.08691260743008684,0.293129603015178,0.22304465553636363,-0.03857421875,0.66552734375,0.044013312680092606,0.20859808580051017,1.1813854791746592,0.68138945359,1.74253192199,0.062833891871492,0.24923858122881443,974.7862140884209,974.73036783148,974.81334229044,0.0005695865667481642,0.08297445896005229,0.023730023011493812,-0.0008756963463651938,-0.07522941136866068,0.47,0.53,-0.8747776646799685,Stairs up
-0.3498896846064197,-1.779296875,1.03112792968,1.0880836421322684,1.0366535152826712,0.38092417775456794,0.08288574218,0.7451171875,0.025092494147851467,0.1574252529598823,0.1987967785485185,-0.09313964843,0.45727539062,0.037877910973968365,0.19341737885574176,1.1612211148722222,0.66459143273,1.87283317611,0.09664839566104302,0.3089582586550384,974.6920551452339,974.66486189103,974.73469189735,0.0005390850387626167,0.06983000631998948,0.02307443754273754,-0.0004967709767265128,-0.9219309888760296,0.64,0.36,0.707888192272069,Stairs up
-1.1785731551623762,-1.39050292968,-1.01599121093,0.015114040572547007,0.1223290505418978,0.14824170405069306,-0.11560058593,0.34924316406,0.018654976808252753,0.13590538645534614,0.21714012221247528,0.05285644531,0.333984375,0.007074234400135201,0.08369105373563764,1.2174958007909902,1.0448970756,1.43430887934,0.016465985326589275,0.1276830285077084,974.6600945258403,974.62684908213,974.68783729998,0.00026869820419339103,0.06098821784996744,0.016310666017488387,-0.0005203240227756952,-0.47254478819711654,0.41,0.59,-0.551650221301639,Stairs up
-1.1751137591386172,-1.40649414062,-0.89526367187,0.018271473371229228,0.1344510914605737,0.13420462100691485,-0.06750488281,0.35144042968,0.009382184256137238,0.09634507660138772,0.23479315574840431,0.05261230468,0.3984375,0.008023777793110472,0.08909780275004481,1.2118494527821277,0.9065714792,1.45349922283,0.02097296184287702,0.14404806568478198,974.5996411818504,974.55488538482,974.62696081663,0.0004382037370658712,0.07207543181004894,0.020821671286959453,-0.0007368575453294131,-1.1554294835215226,0.5,0.5,-0.09441580432659455,Stairs up
-1.0828145345013094,-1.38598632812,-0.8681640625,0.019938131128594553,0.14035944009820897,0.12007649739392859,-0.04919433593,0.28369140625,0.010175380840332067,0.10027085994513879,0.15866379510464285,-0.07788085937,0.34814453125,0.013970740355093788,0.11749222109370965,1.1110032031429762,0.88357600389,1.40834140495,0.021567965121066218,0.14598357315646757,974.5154365070679,974.48331827568,974.55488538482,0.00041223623653368344,0.07156710914000541,0.020182384950476858,-0.0008133471280034267,-1.135400541679162,0.45,0.55,0.0390294566014881,Stairs up
-1.1450623351214284,-1.3740234375,-0.92712402343,0.01372132166684018,0.11637492291792911,0.020943777901038962,-0.12902832031,0.15612792968,0.005310897931959985,0.0724011410928372,0.24205433238337665,0.01574707031,0.4384765625,0.013838305356570794,0.11686995809525542,1.1779980160685715,0.92758231272,1.40763192093,0.01515785742506158,0.12231517540283794,974.4669477705429,974.45093601401,974.48562934474,0.000149479588596272,0.034693330729965055,0.012146534289165732,-0.000475318798198489,-1.3525794742530264,0.58,0.42,0.4411236886739686,Stairs up
-0.993554996535443,-1.2080078125,-0.83361816406,0.011656436163705885,0.10727947771521283,0.039782560323291145,-0.11865234375,0.1416015625,0.006343560185899718,0.07914077302944707,0.15095462074417723,-0.04077148437,0.29113769531,0.00783916975575277,0.08797692742329949,1.0129347666325321,0.84780232977,1.22800843848,0.011137711055053389,0.10486528200892899,974.4402396337566,974.42873145229,974.45093601401,2.566111879896687e-05,0.022204561720059246,0.005033517111361832,-0.0001330971447695726,-0.41950758639587216,0.61,0.39,0.1584610102913625,Stairs up
-1.0980639411364075,-1.22192382812,-0.96691894531,0.003236920679674694,0.05661708457090421,0.11608175629291262,-0.08459472656,0.25048828125,0.010277548790019863,0.10088491841168476,0.16206552449533984,-0.01379394531,0.31164550781,0.01096535513619792,0.10420602371069562,1.1251465465139805,0.97070055372,1.24727343381,0.0038090131816332913,0.061416874481953224,974.4314801632189,974.4253143872,974.43569258857,1.0080707129608862e-05,0.010378201369917406,0.003159562657489633,-3.8032203645278176e-05,-0.4192568465125617,0.38,0.62,-0.7183191742701982,Stairs up
-1.0437237283424998,-1.17492675781,-0.93762207031,0.0034765204654579334,0.058640704289162855,0.06430849821500001,-0.06860351562,0.15979003906,0.004500046512595974,0.06671681170099496,0.09926041312543478,-0.056640625,0.28820800781,0.008699266983019364,0.09276157465892834,1.057178563481739,0.94322612761,1.17908137583,0.003115623534568224,0.05551358447593161,974.4306208887011,974.42690750055,974.43817646846,1.0246592594852724e-05,0.011268967910041283,0.0031835854925519017,1.6671686070850278e-05,-0.5872181208593421,0.57,0.43,0.6313211042919149,Stairs up
-1.0584893284037349,-1.17846679687,-0.99438476562,0.0025421087089002197,0.05011467742219177,0.08092379282614456,-0.06042480468,0.24108886718,0.008105872528482747,0.08948861052492518,0.15090096714590362,0.02221679687,0.25573730468,0.00553111555536355,0.0739220914809192,1.078467815988675,1.00349508392,1.20143026658,0.002642596780739103,0.051095579704202504,974.4293860729528,974.42319956784,974.43604622106,1.271932342186351e-05,0.012846653219980908,0.0035448665082565703,1.6170271681229213e-05,-1.1448824127418702,0.37,0.63,-0.18786704172865104,Stairs up
-1.107058289227204,-1.20446777343,-0.9931640625,0.0031462535192369576,0.0557890924485639,0.10369151125483872,-0.10864257812,0.25354003906,0.01089386721695904,0.1038110247506855,0.14543037003946238,-0.03369140625,0.30407714843,0.013710942211440709,0.11646249492989658,1.1319865143497847,0.99823474049,1.23288427948,0.0035776428109810902,0.05949095337480867,974.4200596430563,974.41421389762,974.42538921852,9.388760345138245e-06,0.011175320899951657,0.003047590184526937,-6.344336877848644e-05,-0.8510962421252435,0.53,0.47,-0.25067290498409345,Stairs up
-1.0920509805454082,-1.20666503906,-1.00610351562,0.002755704821228903,0.052226290163839784,0.09530826490530611,-0.0400390625,0.2919921875,0.009122148248389705,0.09502139287022672,0.16270602479000001,0.04064941406,0.27661132812,0.0053754820290464675,0.07294264988062346,1.1141855549284692,1.01242016077,1.23861110517,0.0038392660021214524,0.06164486854902308,974.4094862545048,974.38895240408,974.42150836534,8.233577819217952e-05,0.032555961259959076,0.009027492297987216,-0.00025879767232143286,-0.45815490539048787,0.4,0.6,-0.6946316331966657,Stairs up
-1.0415979144185057,-1.25756835937,-0.85034179687,0.011099199119214545,0.10474551120618135,0.06045567304114942,-0.07287597656,0.13391113281,0.0028515056876702487,0.053091710842896774,0.18868141612448278,0.00439453125,0.31994628906,0.008633990791803697,0.0923837080785064,1.0656684882727585,0.88421625593,1.28793619252,0.010983805649810375,0.10419959217845999,974.368272508552,974.34449349402,974.38972200511,0.00023067091792116273,0.045228511090044776,0.015100315495379556,-0.0005759162177337063,-1.3353915821523485,0.51,0.49,0.1585225610120686,Stairs up
-1.0914244832830378,-1.19812011718,-0.96667480468,0.004065636220229369,0.0633574973511913,0.09136267553101265,-0.04577636718,0.23083496093,0.00473126262667549,0.06834744491447961,0.17615364170936712,-0.05822753906,0.39978027343,0.017476018383406157,0.13135753865245572,1.118659633061899,0.97632080901,1.22049245008,0.005191333779849343,0.07159344030027098,974.325218149272,974.29910002385,974.34449349402,0.00023390956242790793,0.04539347016998363,0.015196995817951843,-0.0006327565537291701,-1.3572245838978112,0.42,0.58,-0.4644473224876397,Stairs up
-1.1101363332601313,-1.30603027343,-0.94262695312,0.012414665567296056,0.11068565717638612,0.0838976408293421,-0.1240234375,0.2822265625,0.011675399070914553,0.10733953325279944,0.21652542917078949,-0.02185058593,0.4423828125,0.013444981018191502,0.11518712329603209,1.1438301563135524,0.94870298211,1.378973038,0.015218737571236944,0.1225499531792933,974.2657928807337,974.22785317821,974.29450121494,0.00037190014061931815,0.06664803673004371,0.01915741939083739,-0.0008531618233045405,-0.7431262224580646,0.47,0.53,-0.23754033590125456,Stairs up
-1.1163797581408508,-1.38220214843,-0.79382324218,0.025149020170082224,0.15773863636508142,0.10761796666861702,-0.10363769531,0.25256347656,0.007068236418245639,0.08362441278595753,0.23262575839095745,0.11547851562,0.33337402343,0.003930651817230025,0.06236053537587595,1.1498743289145743,0.83399247784,1.42207269027,0.02582727675734312,0.15985155142808946,974.2032014803232,974.18128334582,974.23338228302,0.0002937368196407968,0.05209893719995762,0.017047344657083227,-0.0006044776342927842,-1.2605554536234822,0.6,0.4,0.42790693555566955,Stairs up
-1.0751177469843751,-1.36901855468,-0.78869628906,0.028078913098720047,0.16669260457683294,0.10331217447479167,-0.02453613281,0.22351074218,0.004512808092685574,0.0668266389627178,0.1696713765433333,-0.0546875,0.31396484375,0.008530708792669768,0.09187952569939684,1.0991739986707292,0.8399088546,1.40910990562,0.02814370689401094,0.16688482040177188,974.1381723279713,974.09385024667,974.17689619164,0.00047013297903908944,0.08304594497008111,0.021569324525989038,-0.0007615639740437777,-0.8927224313758799,0.42,0.58,-0.32451870908345654,Stairs up
-1.1070237593189773,-1.29028320312,-0.87109375,0.012085630117386737,0.10930824951259326,0.061452692203181815,-0.1025390625,0.19616699218,0.00719004414576204,0.08431096665707911,0.2187749689239773,-0.04162597656,0.49328613281,0.020815471177025865,0.14345358737874905,1.1418221495487502,0.89032667584,1.32640304011,0.013167902394955416,0.11409762109907151,974.0661307829542,974.03200121631,974.10095530529,0.00046229162982746257,0.06895408897992183,0.021378454477631224,-0.0008262915583840415,-1.245826460080381,0.5,0.5,0.12505250796745068,Stairs up
-1.0673117335801265,-1.32739257812,-0.75695800781,0.02245730910845739,0.14890614283133957,0.05585412133936709,-0.0947265625,0.150390625,0.0037935570058814628,0.06120079490452926,0.14504579954151903,0.00402832031,0.33837890625,0.0075286721078832095,0.08621700795636543,1.0836817481993672,0.7736509202,1.33797227373,0.02258399457001094,0.14932555448088403,973.9961341778898,973.96247030061,974.03200121631,0.00034116612105331126,0.06953091570005654,0.018353407382798583,-0.0007577680673083747,-0.8157849794865832,0.43,0.57,-0.16409103344698345,Stairs up
-1.0178815230542717,-1.20825195312,-0.81359863281,0.009930146051450414,0.09916519987619082,0.08777803587291262,0.01159667968,0.18591308593,0.002235120327200362,0.04704699915880823,0.1455492926994175,0.02551269531,0.27587890625,0.006280632449614947,0.0788647921162607,1.0366892600007769,0.86877112946,1.21631382497,0.008598041928107938,0.09227440486334001,973.9481974977399,973.93443749284,973.9724678733,0.0001031364156704189,0.03803038046009988,0.01010619073867272,-0.00031171543975674464,-0.5935371235123497,0.58,0.42,0.6689635885655277,Stairs up
-1.0380938130001074,-1.15930175781,-0.951171875,0.0027288916987468852,0.051957182152759046,0.09295588667440861,-0.03356933593,0.17663574218,0.004378895598558441,0.06581649261126889,0.10639018396774196,-0.0322265625,0.29516601562,0.007626544689401904,0.08685930481259112,1.053359855731613,0.96262913184,1.17083838708,0.0026356860541840526,0.05106217135927544,973.9364319937413,973.92991754085,973.94101112311,8.96937093101116e-06,0.011093582259945833,0.0029787457229999694,-7.04606336052398e-05,-0.2696952723806305,0.46,0.54,-0.7472663939021916,Stairs up
-1.0141439782538555,-1.224609375,-0.857421875,0.007357587454978253,0.08525808948710124,0.128982727783253,0.02380371093,0.24304199218,0.003312444072972585,0.05720607579827492,0.20826813111445777,0.04162597656,0.30529785156,0.005141714277411812,0.07127247654335941,1.0472619342718075,0.89884708853,1.26527572451,0.007453654060668312,0.08581288364631738,973.934741925638,973.92825167473,973.94076591403,1.4235151268477104e-05,0.012514239300003283,0.0037501524531502644,-4.658903189659732e-05,-1.210741595463908,0.46,0.54,-0.12846268809600986,Stairs up
-1.003736877438625,-1.01916503906,-0.99304199218,3.147407942303414e-05,0.005575002549797283,0.00720214843625,-0.02844238281,0.03991699218,0.000589942252891189,0.024136444948045874,0.09383087157825,0.04663085937,0.14147949218,0.001119071902950479,0.03324279627473595,1.008976398076125,0.99735202975,1.02171649082,2.9552188503071948e-05,0.005402109416402406,973.9659656063443,973.96198973303,973.97176465202,1.1775094381594718e-05,0.009774918990046899,0.0034099715104124817,-9.833625854849863e-05,-1.4183815719816177,0.55,0.45,0.4111848649827701,Lift down
-1.0060004692541555,-1.01147460937,-1.0009765625,9.374816531657845e-06,0.003041885216047828,0.04208889254844155,0.03393554687,0.05590820312,3.314776548892529e-05,0.005719901662444046,0.07045042359597402,0.05725097656,0.08471679687,4.347113818861132e-05,0.0065503112866790985,1.009379782037143,1.00470471078,1.01499051302,9.13233335056931e-06,0.0030022877308385574,973.9504828687626,973.9426973646,973.96488951064,3.5931666280354936e-05,0.022192146039969884,0.005955251570146047,-0.00021922754763132742,-0.35768658547877275,0.56,0.44,0.6527331132761884,Lift down
-0.9707656488154878,-1.00854492187,-0.95166015625,0.0003956112022733865,0.019768325053387655,0.042708234084634145,0.03442382812,0.05187988281,1.9248165536926278e-05,0.004360439405709728,0.07349079410902438,0.05895996093,0.08447265625,4.709224832000278e-05,0.0068204070706068005,0.9745087441408535,0.95492400347,1.01259446262,0.00040479719711274397,0.019996515844727607,973.946824952148,973.93776740439,973.95899712225,4.435110598907859e-05,0.02122971786002381,0.0066189303397807655,0.00020547450324909897,-0.6407676300269429,0.52,0.48,0.6394556728480764,Lift down
-0.9949612759084158,-1.01782226562,-0.95593261718,0.00041274431912168507,0.02021528485341324,0.04650516320772276,0.03686523437,0.05944824218,4.0770010791359184e-05,0.006353451606660541,0.07831475285782179,0.06481933593,0.09948730468,6.719364976522979e-05,0.008156492267156753,0.999180686968614,0.95986086536,1.02165027533,0.000401352305233372,0.019934355270061824,974.0346240818816,973.96431184971,974.12730063548,0.0024776131649196435,0.16298878576992593,0.04952860124720461,0.0016869817056096527,-1.2297742749486302,0.53,0.47,0.21091182040325873,Lift down
-1.0094074626506593,-1.01794433593,-0.99926757812,2.4587843883842346e-05,0.004931292710558431,0.046223064042417585,0.0341796875,0.05700683593,3.952722408896168e-05,0.006252428247415797,0.07367144573791208,0.04809570312,0.08740234375,7.628048879637167e-05,0.008685749343996822,1.0132038972681316,1.0021976522,1.02137433365,2.446335708532317e-05,0.004918793448141979,974.2328622601766,974.13729255113,974.33358488956,0.00382607124780448,0.19629233842999838,0.0615144414655422,0.0023338227375529915,-1.1747257543275016,0.54,0.46,0.0700619165557059,Lift down
-1.0059137918826506,-1.02221679687,-0.99645996093,3.5555352890058234e-05,0.0059268014260977974,0.04585431569626506,0.0322265625,0.06286621093,4.256047064000849e-05,0.006484419317510983,0.07326277766927711,0.05920410156,0.08947753906,5.0934647387360256e-05,0.007093727999924309,1.0096660293051807,0.99967347715,1.0254714062,3.50365992391883e-05,0.005883406456935585,974.4496626604281,974.34625595052,974.5504190128,0.004018980650622722,0.20416306228003123,0.06301237336429062,0.002621911213903707,-1.2437586634194144,0.49,0.51,0.019944616166584092,Lift down
-0.9929653735835106,-1.54833984375,-0.69018554687,0.03542821925959486,0.1872199864064323,0.10929578415670213,-0.12854003906,0.53588867187,0.025840343232463772,0.1598919821755716,0.15786937956872338,-0.12036132812,0.44836425781,0.023431987587585162,0.15225869802374986,1.0420848409412766,0.88076724228,1.5583214247,0.020929865396766216,0.14389999045951124,974.6811213055232,974.56930319894,974.77135008025,0.0039332908045507636,0.20204688131002513,0.062381465880126725,0.002285525026089364,-1.1274607187716934,0.5,0.5,-0.15273811642437485,Lift down
-0.7646169760760825,-1.4609375,-0.20764160156,0.19271519105812604,0.43672466899768214,0.17776835333216495,-0.25122070312,0.71130371093,0.061480553118634464,0.2466713055533432,-0.3603163257077319,-0.95324707031,0.23779296875,0.16985452515197944,0.4100042043358739,1.0515994065230927,0.60768195468,1.52456520108,0.06050967850618804,0.2447158911627268,974.8710928620549,974.78246011652,974.9830354303,0.0030318025591892354,0.2005753137799502,0.05477724767367149,0.0019164201679300035,-0.8105954935097843,0.54,0.46,0.400997414585315,Lift down
-1.0031864560844828,-1.02648925781,-0.96899414062,0.00013491928385513246,0.011548527503062091,0.006234004578275862,-0.09558105468,0.03039550781,0.0011710388689543814,0.034023207551167896,0.09903410110931034,0.06335449218,0.21374511718,0.0017855115088934203,0.042011764877252444,1.0095612856617242,0.9875234933,1.02978423739,7.246056570164218e-05,0.008463314104776335,975.0953378584935,974.9830354303,975.21579502278,0.0045758055948564216,0.23275959247996525,0.0672548149075505,0.002667350035851779,-1.2194545009201077,0.49,0.51,0.02792898281000299,Lift down
-1.0489548308898733,-1.0654296875,-1.03210449218,8.576475773546693e-05,0.00920212627009183,0.01630797566898734,0.00024414062,0.03466796875,4.3184909688589565e-05,0.00652979825585383,0.08293209799911391,0.07177734375,0.11987304687,6.898714327453513e-05,0.008253113854562802,1.0524090924654435,1.03549063697,1.06883505321,8.14850286758253e-05,0.008969591552386186,975.3141282259616,975.21579502278,975.39040770996,0.0028331998148898078,0.17461268718000156,0.052889852770581,0.002296003856013285,-1.1136408264257174,0.46,0.54,-0.3226714024495395,Lift down
-0.997993870781842,-1.03466796875,-0.9775390625,0.00015366607328553408,0.012314387977833862,0.06206311677499999,-0.05798339843,0.16491699218,0.006041588887303496,0.07721459898672713,0.18329339278039475,0.10278320312,0.24365234375,0.0014720155560401529,0.03811360557993408,1.0201768885246054,0.9945760122,1.04558696792,0.0002488401286325171,0.015670542952101824,975.416285651022,975.39272411461,975.43594917933,0.00017346938206502582,0.04322506471999077,0.013083840804433122,0.000583735936574637,-1.058964258218998,0.39,0.61,-0.3278092904756318,Lift down
-1.0057329963189412,-1.05505371093,-0.95007324218,0.0007172586829491142,0.026623680164519967,0.10421357996129411,-0.0322265625,0.31958007812,0.01028762247277749,0.10082951760351024,0.15383013556600003,0.08459472656,0.22192382812,0.0014538616568063648,0.03790458286303132,1.0283765886841179,0.98955776867,1.08761935045,0.0007860495978289623,0.027871167099738803,975.4384345458001,975.43077658614,975.44494149698,1.2136117227792107e-05,0.014164910840008815,0.0034631401037286055,4.0413374232947725e-05,-0.575592240080812,0.34,0.66,-0.14571511156981987,Lift down
-1.0044384765586,-1.01574707031,-0.99853515625,1.218599502172087e-05,0.0034733463794306006,0.0426000976528,0.0283203125,0.05712890625,5.4957884729698976e-05,0.00737619860649115,0.10867065429360002,0.09448242187,0.12878417968,7.130968901499124e-05,0.008402177820353561,1.0112597083487997,1.00455445762,1.02111193283,1.1721128837146604e-05,0.003406452340599401,975.444936964029,975.44073506815,975.45003068648,8.533316549363944e-06,0.009295618329929312,0.0029065414815327003,7.956554386953539e-05,-1.568898581034132,0.41,0.59,-0.201338354621603,Lift down
-0.2822765672022892,-0.44738769531,-0.06274414062,0.008934068256979674,0.0939490759954006,0.979349527010723,0.91650390625,1.04028320312,0.0006561598469810522,0.025460838687207048,0.052385812780120486,-0.07238769531,0.20385742187,0.005344646417337909,0.07266534997513283,1.0268678640785542,0.97242632986,1.13256678711,0.001869682114501462,0.04297855074296131,975.4314146243424,975.41559752593,975.46353169955,0.00013363314307057204,0.04793417361997854,0.011490130773940387,0.00012762501937842494,1.8166888732593724,0.58,0.42,1.4042078299998388,Lift down
-0.20908106435227725,-0.2822265625,-0.05114746093,0.005000912343687921,0.07036617340801651,0.9567532680965347,0.90319824218,1.02380371093,0.001111394202335326,0.03317213136567964,0.2235747988819802,0.0517578125,0.34375,0.010456680832483063,0.1017504267268307,1.0123743893938617,0.96338715044,1.05842221548,0.000586236194316175,0.024092153817385633,975.4437766654972,975.43924349389,975.44961050025,1.1534876406705734e-05,0.010367006359956576,0.0033794481368427057,9.363301319374765e-05,-1.3881473541665488,0.52,0.48,0.3199384518556459,Lift down
-0.2678697374098889,-0.30822753906,-0.23132324218,0.00039993701843083694,0.019887012691241625,0.8960923936592223,0.86767578125,0.92687988281,0.0003116782108077828,0.01755605649274874,0.2941596137106667,0.25866699218,0.33959960937,0.0004193887654056481,0.020364893572873743,0.9808180202702222,0.9537026734,1.02111361833,0.00038437172722324543,0.01949617732413455,975.4775908146721,975.44678824712,975.54283938689,0.0007380254589571658,0.09605113976999746,0.02701527671669983,0.000998316159606182,-0.5354463809371168,0.61,0.39,0.704931093016627,Lift down
-0.48680464043289157,-1.01489257812,-0.26586914062,0.07244710428492285,0.26753363827151017,0.7466276237733734,-0.0419921875,0.9443359375,0.07747689496820888,0.27666484851228723,0.3415174369316868,0.18383789062,0.73559570312,0.014149014372136112,0.11823089409904576,1.034482380021446,0.94936618523,1.17762197208,0.0030448469151974802,0.054846713781271705,975.7087254693266,975.54283938689,976.723845209,0.062158940840218044,1.1810058221100235,0.2478104879510322,0.007268066773624509,8.242144613304465,0.77,0.23,2.8922090859026075,Lift down
-0.8801053365041668,-1.21496582031,-0.615234375,0.030761219324145078,0.17447289175165648,0.00311279296875,-0.16735839843,0.15979003906,0.01132373276414875,0.1058573436967044,0.5016187032025,-0.09729003906,0.81555175781,0.07678772124563958,0.27565893627693416,1.067699341159479,0.98684015863,1.21966011959,0.003909675215069322,0.062200879668852085,975.7559378227055,975.38558748403,976.723845209,0.1357703594823818,1.338257724970049,0.36654615658118733,-0.005542669168367101,0.702776287038124,0.74,0.26,1.3814774588861318,Lift down
-1.0034586588495833,-1.06677246093,-0.974609375,0.0005150229261743871,0.0225756086081137,0.1745694478315625,0.11364746093,0.22082519531,0.0009550531427559786,0.03074255474938505,0.15083440144427082,0.10192871093,0.17858886718,0.0002605545269304284,0.016057410042559887,1.0302209048211457,0.9998377728,1.08243984123,0.0005176716703495269,0.022633586925556438,975.9479770565799,975.80488511622,976.02337387196,0.00442321002977892,0.21848875573994064,0.06615991932659876,0.002286057804807777,-0.5485630175644105,0.41,0.59,-0.7627149569811961,Lift down
-0.9910775118058137,-1.00805664062,-0.98193359375,3.2778216771220525e-05,0.005691842822473335,0.15533305323127908,0.11596679687,0.1923828125,0.00020278648216665618,0.01415727727410469,0.15018764761709305,0.13012695312,0.1640625,9.702325234292213e-05,0.009792603075285828,1.014493198768721,0.9998377728,1.03355044925,5.219859288102632e-05,0.007182731548560673,976.0396077048299,976.0267679192,976.04642500438,4.050970617283918e-05,0.019657085180028844,0.006327611166767927,0.0002317389306803147,-0.5963416652188305,0.37,0.63,-0.8953557349325127,Lift down
-0.9888352614142304,-1.01098632812,-0.97924804687,5.02748505997012e-05,0.0070448776591959614,0.15627660506384616,0.12060546875,0.17053222656,0.0001388899101073974,0.011709366773409467,0.15141726762461544,0.14135742187,0.16857910156,6.122536314769744e-05,0.007774343869068427,1.012590516287308,1.00235864266,1.03570139943,5.3046848216701683e-05,0.007236488127472584,976.0418509579441,976.03136942762,976.04776349219,1.4724327115198134e-05,0.016394064570022238,0.003812552123006886,-0.00014365633828011736,0.32443070603768254,0.54,0.46,-0.5545551143246638,Lift down
-1.0033654501232556,-1.01013183593,-0.99255371093,2.046456782588144e-05,0.004497400108382933,0.09129298010267439,0.08215332031,0.09997558593,2.8481482233875486e-05,0.005305685837655693,0.10382363962186049,0.0927734375,0.11108398437,1.965891849262948e-05,0.004407984393930381,1.0128705503410464,1.00266392352,1.01838405419,1.7238800002271077e-05,0.0041277534857903,976.0114251692819,976.0058675519,976.0149450418,5.470437259901078e-06,0.00907748990005075,0.0023252585930001062,2.4148646443850205e-05,-0.1939683654752118,0.48,0.52,-0.5306731840236861,Lift up
-1.0042443847615998,-1.01794433593,-0.99340820312,2.199647853300365e-05,0.004666531232904545,0.08527832030940002,0.07287597656,0.09655761718,3.667913300960287e-05,0.006025972260101007,0.1087243652305,0.0927734375,0.11962890625,5.309511163948891e-05,0.0072501145179296326,1.0137496518041,1.00326581483,1.0267363954,2.2687187656988217e-05,0.004739231560117983,976.013928942876,976.01064010576,976.01739824447,2.4117181626301986e-06,0.006758138709983541,0.0015451863903762214,1.837775488371302e-05,0.4112393879326435,0.51,0.49,0.29056044818166993,Lift up
-0.9954399956553333,-1.03503417968,-0.94555664062,0.0006772012894974547,0.025878114898988697,0.13575439452866667,-0.09240722656,0.40051269531,0.006122233844122298,0.07780879785494729,0.25659993489200006,0.09838867187,0.52038574218,0.02584490608603612,0.15986788440102015,1.0517206942913335,1.01066554419,1.14615546452,0.0013538171017372438,0.03658927014161008,976.037321603782,975.88720640628,976.2188093816,0.006192351265747863,0.33160297531992455,0.07825309810349435,0.0001872027999023974,0.9969036459663543,0.76,0.24,1.179876085080573,Lift up
-0.5974407431503703,-1.05932617187,0.46313476562,0.3160014969337509,0.5586593272157783,0.4284939236083951,-0.16198730468,0.87976074218,0.0910398326803916,0.2998597741091356,0.3072117934950617,-0.12121582031,0.51428222656,0.027225964078819588,0.16398122168559676,1.013987828365432,0.63450370666,1.27606296197,0.03610192600618421,0.1888285550863121,975.8816686358775,975.80687554838,975.91074392708,0.0011002918572302054,0.10386837869998544,0.032965254543851824,-0.001053408632226703,-0.052516176405247084,0.31,0.69,-1.2002112296929814,Lift up
-0.6087733677432652,-1.37329101562,0.12719726562,0.24037014923253494,0.4877677650354861,0.6397642797317346,0.22863769531,1.30249023437,0.08481048228015153,0.28973275478561306,0.1948790258270408,-0.24536132812,0.630859375,0.053917270382413784,0.23101319043297464,1.0592287417841837,0.5447518962,1.50905962743,0.0718786659121456,0.26673059467847304,975.7437746680357,975.53509483041,976.08368834016,0.01754723932033654,0.5485935097500487,0.13178841321559392,-0.0012723315894898047,1.3546222232759,0.39,0.61,0.9119981376045229,Lift up
-1.0074642783691579,-1.54931640625,-0.46618652343,0.025711673361595935,0.15950242684146212,0.2453600431701052,0.15539550781,0.48608398437,0.008665252395982037,0.09259610797904216,0.17964509662442105,0.12731933593,0.58605957031,0.008279728372138667,0.09051283520386748,1.0622190856301053,0.89020658167,1.62757273732,0.021583630666099713,0.1461384088931619,975.4852880112454,975.40281882479,975.55989734369,0.0018851908364374088,0.15707851889999347,0.043189659901064825,-0.0015422378447350555,-0.8716858564789054,0.43,0.57,-0.17667503962762915,Lift up
-0.9850407090259302,-0.99475097656,-0.97790527343,2.109150921589141e-05,0.004565770374069406,0.20815685183139532,0.19616699218,0.22192382812,4.070695750351495e-05,0.006342997776158983,0.13566837753883723,0.12658691406,0.1552734375,5.144626922259396e-05,0.00713078234065331,1.015940769192209,1.00870493623,1.02437668578,1.6859539406851666e-05,0.00408209483610536,975.3021466679501,975.19869127867,975.40281882479,0.0037962649344405073,0.20412754611993478,0.06125456977992546,-0.0024595578400719896,-1.223703403280751,0.51,0.49,-0.09331462928578536,Lift up
-0.9626274604276621,-0.98999023437,-0.93041992187,0.0004136237129315372,0.0202052462593248,0.21042385348662343,0.19482421875,0.22265625,5.88044279751471e-05,0.007618446961509937,0.1271306818144156,0.11938476562,0.13745117187,1.6911463297837544e-05,0.004085564086433981,0.9935499757236361,0.96194118713,1.02247593385,0.0004391697268950649,0.020819851679307798,975.0869543056413,974.98241639579,975.19869127867,0.003963648497789692,0.21627488288004315,0.0625473624006076,-0.002803274678256062,-1.2366853860543372,0.52,0.48,0.0047040554021160344,Lift up
-0.9651893707603614,-0.98852539062,-0.9375,0.00033177319794853375,0.018104583135310538,0.20882553651686753,0.19384765625,0.22375488281,5.06322321800139e-05,0.007072637788426521,0.12596185522903616,0.11267089843,0.14135742187,4.909256521740631e-05,0.006964272289912275,0.9955639229855422,0.96705036115,1.01839311146,0.00034798213452575104,0.018541563544860272,974.9256580403609,974.89695587359,974.98241639579,0.0006125860001876535,0.0854605222000373,0.02460092368120606,-0.000983927092340161,-0.5779504313203514,0.57,0.43,0.7199937341006355,Lift up
-0.9814791537710889,-0.9873046875,-0.96862792968,1.9548570759524028e-05,0.004399434117472858,0.21043229810871286,0.19641113281,0.22729492187,5.1355072760262725e-05,0.0071306806612924005,0.12964834080722776,0.12084960937,0.13635253906,1.755228137318055e-05,0.004168752380399879,1.012157283098515,0.99887387376,1.0171943424,1.7157923521922197e-05,0.004121655382369088,974.8865423446433,974.87173018732,974.90256405746,5.53647387642349e-05,0.030833870139986175,0.007403821515534794,-0.00023585045980954413,-0.6351732561713299,0.48,0.52,0.44689101748074844,Lift up
-0.9875045608641759,-1.00720214843,-0.96899414062,9.450730895900757e-05,0.0096679246533222,0.21158407022274728,0.16564941406,0.24426269531,0.000363494454001697,0.01896048547511977,0.1290524660842857,0.10876464843,0.1552734375,0.00011440853933430379,0.010637260109554642,1.0183336803483518,0.99015372134,1.04649467107,0.00015192050711560566,0.012257693542973578,974.8733230403831,974.86497536221,974.87879035575,1.2042209136484285e-05,0.013814993539995157,0.0034510689891614,-3.028474547066093e-05,0.5173270590250203,0.51,0.49,-0.6700926635806554,Lift up
-0.42824427286572925,-1.45837402343,0.32531738281,0.37353399426773787,0.6079827424859873,0.5666605631473959,-0.06433105468,1.18432617187,0.18723913765792147,0.4304517742720836,0.14296722411885415,-0.40454101562,0.60375976562,0.05257483165802476,0.22809466710466292,1.0515355714883332,0.7956324876,1.47192472912,0.026094760177567383,0.16069517652702292,975.4914796207216,974.25781537509,980.24741539088,2.1306005573466114,5.989600015789961,1.452035399548137,0.026316026589191344,5.478150928313783,0.65,0.35,2.462477151457078,Stairs up
-0.4372558593722989,-1.56860351562,0.205078125,0.2736008080618827,0.520053815664887,0.633608061687701,-0.21313476562,1.18896484375,0.1342132808368404,0.3642397554467541,-0.06561630073540228,-0.48950195312,0.53747558593,0.07895536264456121,0.2793704167241062,0.9649132927881611,0.2449098295,1.76376242421,0.14878426303554734,0.3835024108041695,974.1607359600705,973.4375685184,975.62292070074,0.27768647273444674,2.1853521823400115,0.5239223932962488,0.0008282395329419553,0.794815608868698,0.48,0.52,0.8959371410016045,Stairs up
-0.36668826372128205,-1.09582519531,0.37683105468,0.25612886856843037,0.5028371158986231,0.7379745092115383,0.37622070312,1.09973144531,0.03549128064243288,0.1871797644617071,-0.04809570312641025,-0.53295898437,0.54431152343,0.11585251464210491,0.33818223784351414,1.0233166788233332,0.68801187836,1.38971029694,0.03692488175909424,0.1909227221655554,974.6001324597318,974.39520585529,974.86269593701,0.013383569139964122,0.4674900817200296,0.11494339876748465,0.0005655477421564621,0.30850125340259815,0.46,0.54,0.2774074529068753,Stairs up
-0.8795796488632968,-1.14685058593,-0.62573242187,0.025200246229129943,0.1578712147492134,0.5038499098518681,0.27917480468,0.79479980468,0.014727699527276652,0.12068909095410635,0.0327389895254945,-0.15710449218,0.25463867187,0.013238366185994827,0.11442416543064834,1.0263578113796703,0.69895133973,1.29529066861,0.028077182023900256,0.1666392557655583,974.6888708076374,974.66351249304,974.69887077963,4.147027618432077e-05,0.03535828659005347,0.006404260992777695,4.11833024764287e-05,3.8747329570599893,0.47,0.53,-1.361642537172934,Stairs up
-0.4802719427597959,-1.17077636718,0.51843261718,0.26539026941887645,0.5125253217600223,0.72184535435,0.44543457031,1.17687988281,0.03092219265741008,0.17494759237918434,-0.06699916294469388,-0.69323730468,0.22521972656,0.03895809846941539,0.1963684466822013,1.0230895988544897,0.71637734341,1.46095742502,0.041774113995339444,0.20334170139447355,974.6475670053651,974.5522675449,974.67970726813,0.00148824040887627,0.12743972322994068,0.03838038929264636,-0.0010414091410640386,1.3040562470672592,0.33,0.67,-1.6286897343150721,Stairs up
-0.2922418767761364,-1.83325195312,0.53881835937,0.7273050525724176,0.8479623944666115,0.6402393687817045,0.17590332031,1.17687988281,0.08540911232086673,0.2905831279106057,-0.28039134632159096,-0.74047851562,0.39526367187,0.14014974936632196,0.37223264039853937,1.1871144447422728,0.50613479775,1.93747223557,0.10795302015918071,0.3266898855087734,974.5511274779142,974.43871666271,974.75430038028,0.00799511978511858,0.31558371757000714,0.08890593990952898,-0.002221291690735508,-0.17671411107598978,0.52,0.48,0.8698655968844231,Stairs up
-1.1722597532599999,-1.40539550781,-0.9111328125,0.01374198423297125,0.11648190874751875,0.08483732199240507,-0.12585449218,0.34899902343,0.02245550831612574,0.1489001725164054,0.13662294798037972,-0.15295410156,0.37878417968,0.029779062312410468,0.17147044105780207,1.2044166442601263,0.9596586479,1.45779543618,0.014764984392609391,0.12073974430979255,974.5041919378875,974.49181458523,974.51017785072,1.9529621445813746e-05,0.018363265489938385,0.004391174221978157,-7.729882512361722e-05,-0.6251696000601075,0.34,0.66,-0.630177643272566,Stairs up
-1.1150921571550487,-1.23120117187,-1.02368164062,0.0028294117710635125,0.05293337089085411,0.08796765966126215,-0.11767578125,0.22912597656,0.01084228882282562,0.10361961147774193,0.14031449104699031,-0.10986328125,0.33337402343,0.018818956606033364,0.13651464496335158,1.1403431700171842,1.05527624722,1.24658117656,0.002675630004640633,0.05147478037159863,974.4726449776346,974.44092738162,974.49309634282,0.00029861472298697427,0.05216896119998182,0.017196381913621817,-0.0005532032390120072,-1.1980369597285632,0.44,0.56,-0.46209267819477373,Stairs up
-1.1044815726866304,-1.27758789062,-0.86975097656,0.010786860412303867,0.10329381360740553,0.07803742781815216,-0.12084960937,0.2841796875,0.01274623855271463,0.11228398141092731,0.13716324515706524,-0.06921386718,0.34533691406,0.011603858307252034,0.10713416547772232,1.1262492951101089,0.90377029346,1.29524079735,0.011222685164925826,0.10535985695041264,974.4183399461236,974.3944941754,974.44498055051,0.00024314986527765355,0.050486375109926485,0.015508285913002061,-0.0005452929109027749,-1.368822614453226,0.43,0.57,0.0029404647356023874,Stairs up
-1.1797441754991667,-1.31872558593,-0.94848632812,0.007751625864690346,0.08751768166717176,0.0940784272677381,-0.18212890625,0.39477539062,0.02254749169313438,0.14926174718586815,0.15693010602440477,-0.10949707031,0.39660644531,0.022985365478689387,0.15070411465972539,1.211619992998214,0.95531815553,1.37176289762,0.010020557141565856,0.0995050993398954,974.391890492693,974.38267782506,974.40031884083,2.7944431625225482e-05,0.017641015769982005,0.005254689317187389,-0.00011708296457726514,-0.9302416602948833,0.45,0.55,0.06676200870066322,Stairs up
-1.2647929944464473,-1.42028808593,-1.06848144531,0.00847643085730228,0.09145982108192524,0.11313187448526313,-0.22277832031,0.45629882812,0.040286592879430545,0.19939033610237228,0.1898691277719737,-0.0234375,0.48046875,0.020611971289927103,0.1426210403179539,1.3064049281888155,1.07974950747,1.49028698489,0.010456338653763594,0.10158127411302045,974.3846207666269,974.36926874021,974.39165909504,3.6442645946042356e-05,0.02239035483000862,0.005996927333789557,-0.00015811716689537002,0.972460789027993,0.37,0.63,-1.2709764833998198,Stairs up
-1.1957918802860417,-1.39672851562,-0.93994140625,0.015074138655357653,0.12213564744863671,0.06813557942572916,-0.1748046875,0.423828125,0.0309264301201179,0.17494078942992874,0.18240356444979167,-0.02868652343,0.41125488281,0.017869864953009993,0.1329801508737907,1.230717653543125,0.94821497743,1.41692397349,0.016543237824386048,0.12794886646774964,974.3766392052603,974.36738744333,974.38407435806,2.3848039279153355e-05,0.016686914730030367,0.004857944236333806,6.731265773656815e-05,-0.9438598722888107,0.51,0.49,-0.02796545253708025,Stairs up
-1.1612345377564584,-1.34826660156,-0.93505859375,0.014079355775331981,0.11803684094103391,0.05655415852729167,-0.13244628906,0.30261230468,0.01548670998160693,0.12379575956374755,0.13439432779666668,-0.05993652343,0.35437011718,0.015375205063558783,0.12334928730025174,1.182585150203021,0.94381529885,1.39311470084,0.015856527126560462,0.12526513868188596,974.377592662956,974.37031338705,974.38352349342,1.4720019893267677e-05,0.013210106369911045,0.0038166328553730193,-3.968599458336215e-05,-1.1098666708990788,0.48,0.52,-0.29176607172498153,Stairs up
-1.1465965093536046,-1.27624511718,-0.96398925781,0.006217892806366955,0.07839382454774836,0.03446641079046511,-0.12097167968,0.21154785156,0.006228438463638875,0.07846027504778011,0.15109749727046512,-0.00927734375,0.47192382812,0.013972140801626655,0.11751456951424946,1.1656788756463952,1.00538370681,1.2793413402,0.006076640432443842,0.07749826980497218,974.3723342735705,974.33142267619,974.38529219299,0.00011364966996459553,0.05386951680009133,0.010598498109369532,-0.00024089821468580133,1.5584711521239614,0.36,0.64,-1.328149702151167,Stairs up
-1.1584308903356098,-1.38342285156,-0.95825195312,0.011298116623142345,0.10564248536031336,0.028086592510243907,-0.24108886718,0.31567382812,0.02209415413656614,0.14773189646268567,0.18391232373841462,-0.05053710937,0.47827148437,0.028076052943602388,0.16653426690638254,1.1927930688586583,0.97206187184,1.46257540231,0.014717615178350522,0.12057417661514185,974.3170343820814,974.29317303242,974.33673596489,0.0001594538551040353,0.043562932469967564,0.012550270749886216,-0.0004996318205511204,-1.2047232872964622,0.46,0.54,-0.1631969877638657,Stairs up
-1.1435546874964075,-1.53796386718,-0.94067382812,0.020072458129249904,0.1409878714463955,0.1343069724653398,-0.10046386718,0.802734375,0.0484112388549847,0.21895485111608376,0.1744029221,-0.06091308593,0.67016601562,0.03470437568482259,0.18538457324859092,1.1889017482384463,0.94387297934,1.85979510217,0.045310856364934204,0.21182763072387462,974.2746004654629,974.2510233843,974.29593276597,0.00021958791857383623,0.044909381669981485,0.014746389288035374,-0.0004639065129420655,-1.583939172288023,0.44,0.56,-0.29193206772301517,Stairs up
-0.42302863152186804,-1.1142578125,0.19873046875,0.11921028867736552,0.3433661100124571,0.8144276377871428,0.24853515625,0.99975585937,0.034328127409225764,0.18425768705780937,-0.1385243174767033,-0.32531738281,0.36413574218,0.0369992049247693,0.1912919764529248,1.0193242739562636,0.81595452145,1.24120741392,0.010977039140770962,0.10419410893628404,974.1975129209691,974.12479595433,974.4471121541,0.008863351557363851,0.3223161997699435,0.093626663348111,-0.002055423255833627,1.6636328250561734,0.64,0.36,1.6122784107261887,Stairs up
-0.43119253762865845,-0.70104980468,-0.17321777343,0.018057398610256053,0.13355592997722787,0.8448962700043902,0.578125,1.05712890625,0.018688395345498925,0.1358693787620594,-0.256484613182561,-0.45544433593,-0.04711914062,0.014621777074835163,0.12018095822660095,0.9977927856090244,0.76557230281,1.25908963896,0.020967463371519283,0.14391581775015516,974.1389398923525,974.12455056661,974.14734859666,5.6189585151900764e-05,0.02279803005001213,0.007450123912297359,-0.00024201291677110293,-0.9552990218941289,0.45,0.55,-0.5650568003379466,Stairs up
-0.5631151075442857,-0.86022949218,-0.29577636718,0.02375750417851747,0.15313054941197085,0.8279125659459738,0.58215332031,1.07507324218,0.020714214915648493,0.1429867096534611,-0.17671976460597397,-0.30493164062,-0.02111816406,0.006574384577812945,0.08055434786477556,1.0268610395957145,0.6878792302,1.26747324293,0.030098174404351724,0.1723580256978973,974.1009486040423,974.07398776048,974.12904660509,0.00021714390011704418,0.05505884461001642,0.014639803600669426,-0.0006111691952672895,-0.5469642942184803,0.34,0.66,-0.24028059273372881,Stairs up
-0.6204223632773959,-0.82556152343,-0.37585449218,0.019534968075101806,0.13903768850322382,0.8350143432569791,0.61450195312,1.12768554687,0.02038496319002739,0.1420303482480579,-0.06545766194385416,-0.28991699218,0.11865234375,0.007998444054573142,0.08896699910081643,1.0538944040665625,0.83896511159,1.38825346146,0.023427414026185204,0.15226088947399605,974.0526310896588,974.02395599574,974.07415739174,0.00013675968908071184,0.05020139599992035,0.01163336189526145,-0.00037471547223651066,-0.8140154730597269,0.62,0.38,0.30147312029969264,Stairs up
-0.48750050862249994,-0.8349609375,-0.23583984375,0.029197723137179915,0.1699811171508009,0.8131828308056249,0.5537109375,1.07958984375,0.023218418603741395,0.1515802100427991,-0.2651952107716667,-0.48950195312,-0.05554199218,0.017841953032817437,0.13287625579986914,1.0077754162378125,0.7213974686,1.2936129449,0.023410370112763226,0.15220549297169034,973.9947801378402,973.96799912076,974.02395599574,0.00029612069662688034,0.055956874979983695,0.017118297404736752,-0.0005871588520017023,-1.4226037066024444,0.45,0.55,0.04051921102384511,Stairs up
-0.8804122569913951,-1.05029296875,-0.50964355468,0.02835573470291203,0.16740972748776975,0.3798104219622093,0.02465820312,0.71997070312,0.04600945584192635,0.21324742007664668,-0.16571328805930233,-0.36987304687,-0.06481933593,0.005934752340453464,0.07658814263519292,1.0108854394924416,0.85953195179,1.12437196261,0.004370260555275058,0.06572247387366201,973.964028986351,973.95592413719,973.97372559658,2.2694930026901462e-05,0.01780145939005706,0.004736141413820425,-5.726261532987823e-05,-0.27403076642188795,0.48,0.52,0.2327247610066542,Stairs up
-1.1241078478187232,-1.31579589843,-0.90881347656,0.012699629679410868,0.11209160198700382,0.08603749376648936,-0.16491699218,0.2578125,0.018627823988644324,0.1357558678228665,0.0950382313818085,-0.17956542968,0.36633300781,0.024519857416130098,0.1557530348633695,1.1499181653764896,0.93845114142,1.35462339352,0.013134299565301507,0.1139937409430065,973.8748014314384,973.84017766139,973.90338151919,0.000337467373285192,0.0632038577999765,0.01827230951045838,-0.000641560906285255,-0.9650025043520305,0.4,0.6,-0.5238163121630115,Stairs up
-1.1480872744564283,-1.28039550781,-0.93432617187,0.010030459847755779,0.09955425461261298,0.0696556454597619,-0.09680175781,0.30725097656,0.010940667700884874,0.10397317758358028,0.24824015299095242,0.09655761718,0.34692382812,0.0034308276293099887,0.05822357291721949,1.1825887043080952,0.96995645431,1.32961822602,0.010297473390506726,0.10087063210653595,973.8100527183253,973.76985452777,973.8440986845,0.00042986114659092367,0.07424415672994655,0.020609312263844486,-0.0008306861346938955,-1.1601307096475417,0.56,0.44,0.16618292172125587,Stairs up
-1.071620396202078,-1.189453125,-0.92639160156,0.005582745866278999,0.07423100883869517,0.05824497767675325,-0.08874511718,0.16882324218,0.004783253416036186,0.06871050314036384,0.21592018820740258,0.06262207031,0.3095703125,0.006000664958461607,0.076959302522277,1.099473621813766,0.93780140005,1.22522468866,0.005771093011771656,0.07547280140473467,973.7446795695744,973.71393837255,973.76985452777,0.00034193537759726414,0.05591615521996118,0.018371027690569988,-0.0007425231218200251,-1.1918351855825393,0.44,0.56,-0.5314585392044718,Stairs up
-1.1031184895789332,-1.23181152343,-0.97277832031,0.0035661849996508725,0.05931809054851812,0.06094563801933333,-0.08447265625,0.23388671875,0.0070958722814445105,0.08367353614509937,0.1927197265582667,0.04833984375,0.30444335937,0.004143504613101886,0.06393948611716545,1.126322879134,0.99149271901,1.2476994504,0.003781005600948655,0.0610785739268363,973.683707078392,973.65357612027,973.71393837255,0.00032314090532405983,0.06036225228001513,0.017855877461489787,-0.0008097607867305375,-0.9850386305165477,0.49,0.51,-0.12811422909102618,Stairs up
-1.0889555431502855,-1.21020507812,-0.94055175781,0.0043860959019225414,0.06591148276286515,0.04958728608400001,-0.09838867187,0.23388671875,0.005439845982580547,0.07340325555180498,0.21907319568114283,0.05444335937,0.38122558593,0.009944797989735974,0.09924759759273251,1.1184704244315238,0.9486313639,1.23692746573,0.004929442827403967,0.06987485780205398,973.6179237422906,973.58737191404,973.64636050469,0.0003458361736073292,0.058988590650074,0.01850790360260853,-0.0005989285504312559,-1.3497237104292854,0.52,0.48,0.10429381050251443,Stairs up
-1.143524169918152,-1.28491210937,-0.97802734375,0.00687550372633526,0.08246678113143159,0.1193078082525,-0.12829589843,0.37316894531,0.024624936107152683,0.15606817022750633,0.18510636039021736,-0.01318359375,0.3642578125,0.013976816933285573,0.11757931369972223,1.1805774142476086,1.02692694966,1.33584099136,0.007447099413829546,0.08582629364635601,973.5634128238801,973.53306367901,973.58945695841,0.000340463034267918,0.056393279400026586,0.01835108577476635,-0.0006768506215120929,-1.3222448128977415,0.45,0.55,-0.14753919199716947,Stairs up
-1.0936926416578314,-1.39038085937,-0.80749511718,0.022195020222440437,0.14807974317995815,0.04509836219831325,-0.11022949218,0.25341796875,0.009392848557074793,0.09633110456643562,0.20232492469445784,0.0078125,0.39343261718,0.012988214540907676,0.11327722643305943,1.122465408260482,0.82323858547,1.40211981257,0.023526715576632953,0.15245740773112734,973.5061914442147,973.48657388126,973.53306367901,0.00020424233604533854,0.046489797749927675,0.014204984512791547,-0.000555508610790499,-0.9739273511465929,0.53,0.47,0.40873761986228213,Stairs up
-1.1496555494188043,-1.25793457031,-0.98059082031,0.006525970415186716,0.0803432383847706,0.10181990913554347,-0.08825683593,0.27392578125,0.009849499691831687,0.09870379887609516,0.19088214376391308,0.02136230468,0.3662109375,0.013451301311049432,0.115347698348039,1.1792408289072824,1.0026031973,1.31534350706,0.007486175302536608,0.0860511698459519,973.4845519868909,973.47983372601,973.49151926298,8.857199903812706e-06,0.011685536969935129,0.0029598861450763174,-4.343023070592934e-05,-0.5278574485189464,0.49,0.51,0.18724417726159595,Stairs up
-1.1097200354709185,-1.24645996093,-0.95178222656,0.005756624588541201,0.07548432632878954,0.05817646882918367,-0.10021972656,0.24768066406,0.013425782759747686,0.11527699239867839,0.13230179766959185,-0.01171875,0.29162597656,0.007449372326770675,0.08586826144412311,1.1280197091579593,0.95783627186,1.27025507319,0.006363318713385612,0.07936237704214533,973.4825138605481,973.47727331491,973.48812146573,1.0266311014604874e-05,0.010848150820038427,0.0031877190495628125,4.1120134947154524e-05,-0.8161697707830968,0.53,0.47,0.26643742208574894,Stairs up
-1.1271584250676137,-1.26770019531,-0.98937988281,0.008372459790262805,0.09097976809014789,0.0645002885281818,-0.09033203125,0.23583984375,0.0096280881146362,0.09756371263141038,0.18505859374625,-0.01110839843,0.35192871093,0.013281949635217985,0.1145906557681002,1.1535695612561363,0.99384383622,1.31197620339,0.009201934939808074,0.09538012108039208,973.4836473978663,973.47834597478,973.49008663467,9.91754741170279e-06,0.011740659889937888,0.003131269392642076,1.8149324882153005e-05,-0.6303366086801745,0.53,0.47,0.4766170623679687,Stairs up
-1.191372255732025,-1.31494140625,-0.927734375,0.009506191938452912,0.09688065026065933,0.0687626705877215,-0.13916015625,0.23828125,0.012995420875107123,0.11327365923588786,0.17387757119924055,-0.04455566406,0.43395996093,0.021071814007399287,0.14423966924712778,1.2194237289181014,0.93704753924,1.31778290754,0.010489984784066288,0.10177033048264342,973.4805722928104,973.4734930206,973.48931660627,1.4696834045938453e-05,0.015823585669977547,0.0038093041584965665,-7.943873280700076e-05,-0.29204352171811987,0.52,0.48,0.35618411247962845,Stairs up
-1.1223481830756579,-1.23315429687,-0.94409179687,0.0054896901444171885,0.07360337885830424,0.05403859991657896,-0.08801269531,0.23559570312,0.011233446680904265,0.10528835724782203,0.14824475739789475,0.00988769531,0.30700683593,0.008485763972277184,0.09151015890691193,1.141665123176842,0.94831177665,1.24148190449,0.006120608002305811,0.07771791097608066,973.4797057058363,973.46712533377,973.48826209059,2.110585313072934e-05,0.021136756819942093,0.004563786206309839,6.760749395903994e-05,-0.3185683246991666,0.36,0.64,-0.23920374146275983,Stairs up
-1.0614160156216,-1.24536132812,-0.88842773437,0.012550275819425439,0.11146646608389083,0.047993164058900015,-0.12329101562,0.1669921875,0.0030393304606025347,0.054853779778575966,0.189427490231,0.01916503906,0.353515625,0.009061099090851928,0.09471266071620736,1.0853247933442,0.90988369573,1.24697365382,0.011378148827439647,0.1061337238542267,973.4369109454866,973.41409559417,973.46712533377,0.00021766921100017356,0.053029739599992354,0.014679663446079811,-0.0004923802230714774,-1.1816747347414776,0.56,0.44,0.24838747088881233,Stairs up
-1.126750540222234,-1.23376464843,-0.99060058593,0.005086883599118233,0.0709420031867503,0.037396370095319154,-0.12329101562,0.13513183593,0.006170285230557575,0.078132220615554,0.1582550698107447,-0.03833007812,0.34973144531,0.013341461615061704,0.11488921260217724,1.1470787526231914,1.02951453583,1.24581043765,0.004611823294542801,0.06754821496235748,973.3816740923329,973.34936488589,973.41409559417,0.00038414624027138545,0.06473070827996708,0.0194951167767941,-0.0007028713148391857,-1.216269805748655,0.45,0.55,-0.1784725829274799,Stairs up
-1.102225370181744,-1.20007324218,-0.99865722656,0.004168840555766944,0.06419007450987736,0.04672454124255814,-0.11303710937,0.3154296875,0.009136995383301275,0.09503026492090458,0.22339434955976747,0.06579589843,0.318359375,0.005446834040744102,0.0733723296699823,1.132136436052093,1.0096927373,1.23212293817,0.003835287042757641,0.06156858518591558,973.3224738996738,973.29203138455,973.34936488589,0.000302339064521717,0.05733350134005377,0.017286511909694872,-0.0006767664072057757,-1.1750860032959718,0.49,0.51,0.13005528499054886,Stairs up
-1.108592066268161,-1.20373535156,-0.98303222656,0.003551979242183065,0.05925497358510732,0.06776445761390806,-0.09936523437,0.3154296875,0.014029549236418415,0.11776370429717688,0.21003530216862065,0.06799316406,0.28894042968,0.003863467503542844,0.06179854230552957,1.1378001173919543,0.99056353543,1.23639673943,0.004342528018498673,0.06551804257869366,973.2564834479708,973.22674845515,973.30199510308,0.0004165293163155576,0.07524664793004376,0.020291417472039112,-0.0007948840703694272,-1.245874193281742,0.51,0.49,0.21039685381732734,Stairs up
-1.1109594726523,-1.22924804687,-0.94787597656,0.005118942616005897,0.07118815343753368,0.074725341795,-0.09497070312,0.19152832031,0.006204147041830075,0.07837158650564485,0.1833312988238,0.09216308593,0.30908203125,0.004976052640374022,0.07018754956522048,1.1335457645392,0.96062268163,1.24596584345,0.0052720959260372634,0.07224524182793557,973.1867188592119,973.14950779542,973.22674845515,0.00040396826837789303,0.07724065972990957,0.01999821456265819,-0.0006797658029480014,-0.8192221167220732,0.53,0.47,0.0207877362070525,Stairs up
-1.0887835213274157,-1.27136230468,-0.90161132812,0.010797482524312025,0.10332551715790717,0.0009710761925842696,-0.2255859375,0.11499023437,0.0101236920832322,0.10004970131880654,0.13349005881011233,-0.09301757812,0.35754394531,0.020723480734397642,0.14314549464184453,1.1111845360191013,0.90359312319,1.27559087796,0.009826166241126914,0.0985685542090735,973.1266878040549,973.09834262179,973.15512596811,0.0003232296222710862,0.05678334632000315,0.017877299258065305,-0.0006835407879691157,-1.3970401822097867,0.48,0.52,-0.03109507486825911,Stairs up
-1.092481071562716,-1.22912597656,-0.814453125,0.01203233475951559,0.1090127855657561,0.05337185329716049,-0.10888671875,0.22961425781,0.006824508681505854,0.08209905899525899,0.21077323253888894,-0.044921875,0.43908691406,0.013925240248649481,0.11727456545376691,1.1227013679025926,0.84782553006,1.27109934284,0.012866654707918137,0.11272890986313801,973.0749688861886,973.04628623076,973.10798843071,0.000311342454933828,0.061702199949991154,0.017535641445989344,-0.0007323823790233117,-1.0280035588252572,0.57,0.43,0.16720374620452694,Stairs up
-1.0329172234747368,-1.33325195312,-0.80114746093,0.015008719584420592,0.12170142329485718,0.02984297902855263,-0.09936523437,0.17175292968,0.005798459240778589,0.07564498479378891,0.16003417968368425,0.0478515625,0.29187011718,0.004830247561016926,0.06904123168119305,1.0505007929521053,0.82184379793,1.3593646356,0.015369944562483797,0.1231572509023303,973.0319940198499,973.01680304472,973.05625356365,9.297298151459827e-05,0.039450518930038925,0.009578603907170335,-0.00032072228785661697,0.8104429095584473,0.62,0.38,1.082930482839025,Stairs up
-1.0639401553687642,-1.16650390625,-0.96459960937,0.0043572303178439275,0.06563743347986124,0.09430960322842698,-0.02197265625,0.15625,0.0021169269656750225,0.045750860860004405,0.14012848928786517,0.03430175781,0.31384277343,0.0066393430252527676,0.08102310575026403,1.0811978429292137,0.96980199299,1.17577927928,0.004527198427444445,0.06690538864234534,973.017494433318,973.01093954917,973.02220325395,1.147710360081169e-05,0.011263704780049011,0.0033687011414754277,-9.047815768465393e-05,-0.7553023672402461,0.43,0.57,-0.59055844336808,Stairs up
-0.9891126844585555,-1.02099609375,-0.94494628906,0.0003454869029443842,0.018483726885515687,0.09758300780966667,0.06628417968,0.142578125,0.00035392996969452786,0.018708217832698545,0.18199462890288892,0.13354492187,0.27795410156,0.001649286656604951,0.04038516125149608,1.0114813235762221,0.98652043497,1.04461554199,0.00021896271597864652,0.01471495147502081,973.0374374245228,973.03066673016,973.04966252541,1.947156577714984e-05,0.01899579525002082,0.0043880764631319515,-6.134390824778288e-05,0.23280106798419142,0.54,0.46,0.6376002341897185,Lift down
-0.9569649401971605,-1.00146484375,-0.93579101562,0.0003923714345275009,0.019685714179150594,0.07905183014691358,0.03173828125,0.13830566406,0.0007620669073936745,0.027434625457058118,0.15640070408493825,0.12377929687,0.19909667968,0.00035341839174147485,0.018683019074014113,0.9734204551751852,0.94890247774,1.02067190064,0.00043955411301152796,0.020835726985726496,973.0408665714309,973.03167371831,973.06523308759,0.00010314378598846362,0.033559369279942075,0.010093087035913837,0.00033922795132960553,0.47254084071836155,0.7,0.3,1.3347062352025192,Lift down
-0.5520720529048514,-1.29760742187,-0.04382324218,0.22286403219200607,0.4697419053223244,0.30571240717495046,-0.07116699218,1.23388671875,0.14606831016410854,0.3802921104511565,-0.30466091042653465,-1.03234863281,0.51098632812,0.3555583225463148,0.5933278546597683,1.0465549208886138,0.5685327272,1.77639841363,0.11423320726315142,0.3363066835628766,973.1320365397787,973.06428160242,973.19897091331,0.0013137148306169779,0.1346893108899394,0.03606532618854454,0.0011643004234933865,-0.2480186171537997,0.53,0.47,0.20892211833326504,Lift down
-0.9933583249292471,-1.01538085937,-0.96508789062,8.780290140456037e-05,0.009319806016498223,0.1386968140926882,0.01940917968,0.70349121093,0.011485653260236473,0.10659339384913562,0.18764569682096774,0.14514160156,0.51098632812,0.0042683003576722426,0.06498003274007773,1.0271130138610756,1.00113336591,1.33678913856,0.0019396032379432363,0.0438035077265297,973.3102761754246,973.19685740631,973.43198715758,0.005140975701551487,0.2351297512700512,0.07131406868867218,0.002647730723649179,-1.2783605287092112,0.52,0.48,0.012817489886151688,Lift down
-0.9950023832740474,-1.00659179687,-0.98388671875,4.076683060658235e-05,0.006346771714391438,0.11600894019392859,0.0869140625,0.13159179687,6.767263400045393e-05,0.008177224920791308,0.1682477678527381,0.15649414062,0.18151855468,5.3663774942185744e-05,0.007281821233632991,1.0158348853144048,1.00525215857,1.02616702522,3.5206657640419404e-05,0.005898095520059652,973.5387695711468,973.43198715758,973.65528439734,0.00419532989119173,0.2232972397599724,0.06438466811070134,0.0026469490494996336,-1.1594205808999294,0.51,0.49,0.023635436099163958,Lift down
-0.9911744749359739,-1.00451660156,-0.978515625,4.8730351784157965e-05,0.006935235401388722,0.11145970728207791,0.06872558593,0.1416015625,0.00029861015954211497,0.01716776355621452,0.17042600953298703,0.15576171875,0.20349121093,0.0001753044562047355,0.013154002240965421,1.0122386986594807,0.99948086525,1.02299292568,4.880590452922382e-05,0.006940609599542382,973.7562992425527,973.65528439734,973.86325903136,0.003870638959901275,0.20797463402004723,0.06180914917276405,0.0027716270568949254,-1.226903039851626,0.47,0.53,-0.014583882157743236,Lift down
-0.9920187557404901,-1.00317382812,-0.98022460937,3.503721660961589e-05,0.005890137051545762,0.09374281938990198,0.05676269531,0.13488769531,0.00043758538207959295,0.020815747147630966,0.17498539942921565,0.150390625,0.20349121093,0.0001724231745941153,0.013066474326067489,1.011986635742353,1.00244971567,1.02314448347,3.089167431398191e-05,0.005530715574126376,973.9723960720921,973.86325903136,974.0747006039,0.0036318313706088286,0.21144157254002494,0.05996853492208142,0.0020286003475794585,-1.1060517185024663,0.54,0.46,-0.018159947771520153,Lift down
-1.013387044267527,-1.04479980468,-0.97900390625,0.0005435549478233911,0.023188580615576174,0.12211756552129031,0.11096191406,0.1357421875,3.949521426008548e-05,0.0062506427299005626,0.17432165658236562,0.1552734375,0.18725585937,6.416890736269103e-05,0.007967365882867393,1.0355358419990321,1.00177623533,1.06745631182,0.0005659059204786301,0.023660534875209614,974.1798558955999,974.0747006039,974.27614851078,0.0037165493716030504,0.20144790687993464,0.060634861879402355,0.0022511967721034706,-1.2052885203258616,0.51,0.49,-0.025640672495251253,Lift down
-1.0131952194909524,-1.04602050781,-0.98388671875,0.0004223490404044017,0.020428437914771717,0.11620221818809526,0.10461425781,0.12866210937,4.9890087940777305e-05,0.007021122297926074,0.18114362443880952,0.15795898437,0.19189453125,7.560482431397797e-05,0.008643191938263822,1.035836264694286,1.00538034976,1.07016066706,0.00047067905011643536,0.021565614484434236,974.3367810365883,974.27614851078,974.36977556787,0.0006161193290410943,0.0936270570899751,0.024673560244195373,0.000998938328672649,-0.8175059851604796,0.46,0.54,-0.4412586198589624,Lift down
-0.9920313024991397,-1.04284667968,-0.94396972656,0.0006569971745174081,0.02549377745195696,0.07802524361258062,0.03125,0.1328125,0.0010820980130411796,0.03271792399488942,0.20206180695311826,0.1240234375,0.24865722656,0.0007911232439308022,0.027975284491550022,1.016361613137742,0.97087357404,1.06021245668,0.0005611344337447783,0.023560575760284908,974.3859807204354,974.36977556787,974.39945604147,6.819744273645026e-05,0.029680473600024015,0.008213655513872885,0.00027558147613170807,-0.6764605388637368,0.39,0.61,-0.5363531377036109,Lift down
-0.9856405452766326,-1.03869628906,-0.93835449218,0.0007772517535632381,0.02773662944953399,0.20783218071918375,0.08374023437,0.35595703125,0.005695872106022998,0.07508495829448124,0.10925915776081632,0.03491210937,0.2353515625,0.002075374548214439,0.045323252938267,1.0170186800893877,0.95813197459,1.06760356047,0.0007611029263785029,0.02744697742897905,974.3979280708779,974.39100858564,974.40383230183,1.4931014961067722e-05,0.012823716190041523,0.0038443019737719126,4.731469569012995e-05,-0.7846950835094897,0.49,0.51,-0.2965886431058262,Lift down
-0.9966742936910465,-1.01147460937,-0.98303222656,6.284991993978138e-05,0.007881567541880598,0.1342929573916279,0.02014160156,0.20520019531,0.00224033657115611,0.04705620199198092,0.12630444903441862,0.0888671875,0.16638183593,0.0003599041565362733,0.018860520260149928,1.0148544472267442,0.99732430685,1.0240256243,5.0219322940307296e-05,0.007045237918248207,974.4110925743908,974.400903221,974.42209761327,2.7094489975318902e-05,0.021194392269990203,0.005174885290158958,0.00018055834710964958,-0.6290161515214097,0.56,0.44,-0.007868174579191357,Lift down
-0.9951341846283542,-1.00634765625,-0.98156738281,3.245500959150583e-05,0.00566075849028063,0.16868571993227854,0.1357421875,0.19189453125,0.00026304804631879515,0.016115778734317927,0.11364591574025322,0.06884765625,0.13256835937,0.00028535016592464644,0.0167850570004358,1.0159721507582282,1.00170022252,1.02914783766,3.686790480505729e-05,0.006033342561611496,974.4232352539274,974.41325694189,974.43034067518,2.0033087963221657e-05,0.017083733289950942,0.004447415493439098,0.00011623887373304919,0.07773032092010945,0.42,0.58,-0.938608238325001,Lift down
-0.9634996202224444,-1.02404785156,-0.76025390625,0.00437841706531138,0.065800972536946,0.21578911674933332,0.1220703125,0.3642578125,0.005325732793960718,0.07257105473354326,0.07813042534288887,0.01037597656,0.32006835937,0.008174090877944596,0.08990699442183257,0.9985042911496668,0.86774276449,1.07480254522,0.0016883581486269658,0.040860722138041344,974.4409216903202,974.40819528184,974.71982632226,0.004771458632618572,0.3116310404200249,0.0686909195279076,0.0013660408181524026,9.299002074761232,0.79,0.21,3.0881398276245866,Lift down
-0.7755620166462626,-0.92687988281,-0.69226074218,0.003957628875191376,0.06259115613205286,0.564497514201212,0.34704589843,0.76159667968,0.00967693068987278,0.09787330542710612,0.1799032808522222,-0.20886230468,0.41345214843,0.023146777379530133,0.1513703126356475,0.9929904776047475,0.86774276449,1.13228550195,0.0029283748871481996,0.05384046194855289,974.4343965322126,974.35275857187,974.60754037636,0.005158685786426272,0.2547818044899941,0.07146032360120994,0.002050409886352403,0.3223662328499106,0.65,0.35,1.1521933850714725,Lift down
-0.9275041059977274,-0.94384765625,-0.88537597656,0.0001973507841920905,0.013968112314999944,0.35306479713772726,0.21997070312,0.42443847656,0.0029123519199697927,0.053658708629525535,-0.1829057173256818,-0.30688476562,-0.10522460937,0.00425623791713885,0.06486810909199807,1.0125969284407956,0.96691706517,1.03610245267,0.0003062969625054325,0.017401618177751012,974.6786010065832,974.47998722358,975.25341380739,0.05055421314923598,0.7734265838099645,0.223561475783191,0.0005222768582389,1.722330105024029,0.73,0.27,1.7547166682732127,Lift down
