avg_accX,min_accX,max_accX,var_accX,std_accX,avg_accY,min_accY,max_accY,var_accY,std_accY,avg_accZ,min_accZ,max_accZ,var_accZ,std_accZ,avg_magnitude,min_magnitude,max_magnitude,var_magnitude,std_magnitude,avg_pressure,min_pressure,max_pressure,var_pressure,range_pressure,std_pressure,slope_pressure,kurtosis_pressure,Pressure_below_avg,Pressure_above_avg,skew_pressure,Label
-0.5978967285125999,-0.79016113281,-0.42553710937,0.011314600541997826,0.1058369242588703,0.7316772460905,0.53833007812,0.92834472656,0.010445014244365312,0.10168856426325262,0.34183593749569996,0.06872558593,0.59069824218,0.01752316737402369,0.13171156251553412,1.0135272876489,0.80892223559,1.35465972128,0.021551808188594736,0.14606947013907043,949.9560588192684,949.85127467106,950.01269579129,0.0019659788968843014,0.16142112022998845,0.044117106749145034,-0.0005590345450845927,0.17696501881448112,0.43,0.57,-0.997135372636039,Stairs up
-0.5937499999971999,-0.78002929687,-0.42553710937,0.009467492199773097,0.09681331146993871,0.7466625976523997,0.51306152343,0.99609375,0.02114946800678692,0.14469959684366454,0.3396423339799,0.06750488281,0.53796386718,0.014975067453717685,0.1217592574680895,1.0225136146053,0.77933314724,1.33389175786,0.02525558343041677,0.15812345681812234,949.8835290310889,949.77456631066,950.08312466238,0.007915375077228998,0.3085583517199666,0.08852243402921492,-0.0007772551384600631,-0.6705988896591712,0.52,0.48,0.5798364560188584,Stairs up
-0.6357922363244,-0.86608886718,-0.44445800781,0.017257675707305135,0.13070998030078684,0.7659899902303999,0.51599121093,1.01977539062,0.01966338190627547,0.1395232886912171,0.2705371093715,0.13037109375,0.51904296875,0.008433583746043614,0.09137421905867747,1.0390570719183,0.77403505919,1.37724459654,0.02972147141187913,0.1715350013780288,949.8085176594976,949.60087596735,950.03649048698,0.011438768893015231,0.43561451963000763,0.10641607587242201,-0.0012983948771583137,0.19905039424471482,0.47,0.53,0.5429170870544282,Stairs up
0.4046874999997999,-0.54272460937,1.19665527343,0.3529771909527832,0.5911407776860393,0.5656372070274999,0.00903320312,1.6484375,0.25460895549853146,0.5020586279943271,-0.23190307617019998,-0.59118652343,0.51904296875,0.10059254891010878,0.3155734833933417,1.0748961867787001,0.50947452871,1.66656433675,0.08403187416583591,0.2884294635160866,949.7013754684962,949.55706831014,950.0391271894,0.016153217213962644,0.4820588792599665,0.12645823437729556,-0.0014884636154941264,1.9717992406706228,0.71,0.29,1.6711608395792423,Stairs up
0.8667321777306001,0.53942871093,1.17321777343,0.025513191070831394,0.15892784262086704,0.24624877929280004,0.08947753906,0.55346679687,0.016989832831857492,0.12969169018691568,-0.4709777831989,-0.78833007812,-0.33825683593,0.011965658741640803,0.10883934102255671,1.0311019985910999,0.77255311167,1.33640389917,0.0246826927306294,0.15631975500020176,949.6831433307806,949.58736242943,949.75231807726,0.0023160064153180033,0.16495564783008376,0.0478836752052808,-9.693937805608262e-05,-0.7128830418678471,0.49,0.51,-0.15292673630125025,Stairs up
0.7864648437467,0.376953125,1.15869140625,0.050155309739550014,0.22283122905498348,0.4402966308568,0.1904296875,0.62561035156,0.01588543830941982,0.1254056774086629,-0.07549682617129999,-0.4638671875,0.44470214843,0.05450101345800252,0.23228431570689936,0.9490921511701998,0.70983537195,1.3111526124,0.037018461446875255,0.19143739664027637,949.5761210471156,949.51808120594,949.70651630891,0.0014261414339872029,0.18843510296994737,0.03757499194474073,0.00020955801446001661,4.895530550374817,0.44,0.56,1.6467855954354647,Stairs up
-0.6827014160133998,-1.14916992187,0.376953125,0.2219996830690331,0.46880666189629044,0.45614990233929986,0.13415527343,0.77819824218,0.03761924324031434,0.19298458696981788,0.538439941403,0.26281738281,1.27893066406,0.08277163346023757,0.2862584795698377,1.1316045198429001,0.73299937559,1.49946843603,0.022736759769842897,0.15003130397401893,949.6324041791933,949.55336741426,949.71509357555,0.0025764307636436186,0.16172616128994832,0.050504123158482635,-0.00036772783119228995,-1.0674054017251877,0.64,0.36,0.2737728392469426,Stairs up
-0.6431591796839998,-0.9365234375,-0.33032226562,0.02014726975976078,0.1412295898958967,0.7301208496056,0.53137207031,1.03515625,0.012789823001868381,0.11252521838170187,0.26782104491869996,0.03527832031,0.55773925781,0.014483945988451388,0.11974600840348239,1.0196620899498001,0.77223006317,1.36683080107,0.025953887097120498,0.16029456705125503,949.5618205886358,949.15631975361,949.73587468009,0.029746409689553648,0.5795549264800002,0.17160695088678113,0.000575132813521151,-0.5769315574672405,0.52,0.48,-0.6854454537264075,Stairs up
-0.6530541992149999,-0.89245605468,-0.49877929687,0.013661324490052945,0.11629579203544906,0.7496948242145001,0.53698730468,0.99987792968,0.017605669119116044,0.13202125748501597,0.23884521483910007,0.08898925781,0.55773925781,0.012673806295356568,0.1120136966285954,1.032084001834,0.79310453595,1.36562154734,0.031197161422634272,0.17574182714541217,949.3644972797591,949.14361005324,949.43406264142,0.005684631507019055,0.2904525881800737,0.07501856564843709,0.0014553832115656883,1.8638814841387932,0.36,0.64,-1.6473726589922253,Stairs up
-0.6188000488247998,-0.85412597656,-0.45910644531,0.012112248815318541,0.10950400142079446,0.7743225097622998,0.56652832031,1.06640625,0.018366397142188025,0.13484336531978924,0.1551135253862,0.05639648437,0.27661132812,0.004253724516867275,0.06489366125977639,1.0064706695691998,0.7863709557,1.36052689035,0.025311496705593725,0.15829839461768963,949.3729057949233,949.31686098453,949.4277434786,0.0008612323084798607,0.1108824940699833,0.029199657282150796,-0.0004559969509273711,-0.32881020610866685,0.63,0.37,0.20598136299100434,Stairs up
-0.6087499999959998,-0.80700683593,-0.44543457031,0.013792141904647578,0.11685127507049764,0.7915332031208,0.60571289062,1.04919433593,0.019372150488641965,0.13848620503052117,0.21521972655720004,0.09020996093,0.37585449218,0.007624608001340533,0.08688130939003583,1.0272980372623999,0.80375699992,1.34452758513,0.028748140271596747,0.16870287154900707,949.3330975505597,949.25925153577,949.37431661457,0.0005851693324974488,0.11506507880005756,0.02406901824280488,-0.0003718061235342691,0.9887034016451666,0.43,0.57,-0.6691115413922872,Stairs up
-0.5797509765599999,-0.80041503906,-0.43737792968,0.009286098672911244,0.09588137298861615,0.7738281249968,0.56994628906,1.01586914062,0.014424473348164518,0.11949991052165217,0.2590722656212,0.14477539062,0.39611816406,0.00479815670946494,0.0689215143650391,1.0050114558524001,0.80158796846,1.33681553992,0.020419409819670928,0.14218022268049174,949.2540701609852,949.1950042601,949.30285788527,0.001039858886028953,0.10785362517003705,0.03208520371087993,-0.00045486934393062405,-1.20901020329516,0.43,0.57,-0.11165108267264719,Stairs up
-0.6001562499959999,-0.78527832031,-0.39111328125,0.015148507368688308,0.12246233010604292,0.7869873046831999,0.60034179687,1.07653808593,0.018880079490751926,0.13671605134673984,0.3188476562459999,0.14392089843,0.51806640625,0.009464906923912808,0.0968000922245102,1.0480521367663997,0.78206176545,1.33829289535,0.026106714651506047,0.1607658157227182,949.2036870176381,949.17065844791,949.22356066823,0.00019074929082272187,0.05290222031999292,0.013741972126099466,-0.0003086134971438617,-0.7157662920951178,0.59,0.41,-0.07503250345930329,Stairs up
-0.5506396484335999,-0.802734375,-0.41748046875,0.010669174435162973,0.10277393974549844,0.754956054684,0.56640625,0.96154785156,0.01195382951480363,0.10878552853967109,0.3131933593716,0.17724609375,0.48449707031,0.007865327440004247,0.08824213373215883,0.9914871806768,0.80503039785,1.29437044465,0.01857511708894972,0.13560739625131155,949.1612530224721,949.09086441956,949.26886583231,0.0022695680717732414,0.17800141274994985,0.047401185544831144,-0.0009811215595901689,-0.07045286000446005,0.51,0.49,0.6433507796019419,Stairs up
-0.6213037109327998,-0.91540527343,-0.41162109375,0.019051560873885726,0.13733552076992633,0.8102685546835999,0.57116699218,1.1572265625,0.01993467172000313,0.14048247222626423,0.1428417968716,0.01684570312,0.32421875,0.005375661850079295,0.07295138951095108,1.0359991314184003,0.75358461031,1.44367395774,0.03392049097227084,0.18325197423915557,949.1511164403139,949.09291999594,949.20446639722,0.0011594135771900702,0.11154640128006577,0.03387948407839425,0.0008732478367621255,-1.2162385602072623,0.57,0.43,0.1743755174675188,Stairs down
-0.6019287109335998,-0.92614746093,-0.41955566406,0.02072782227461559,0.14324993560860486,0.8171874999963998,0.62316894531,1.09997558593,0.022825557776088013,0.1503239907610463,0.1496826171844,0.04724121093,0.29321289062,0.004594725791877052,0.06744463309973804,1.0293534348348,0.77693603596,1.40035418006,0.04102686874918992,0.20153560494785536,949.2138772667162,949.15908367786,949.30907235343,0.0017959876525240137,0.14998867556994355,0.042166666645571754,0.0009610512080725784,0.13527751613882355,0.69,0.31,0.977064046714323,Stairs down
-0.615527343746,-0.96472167968,-0.3896484375,0.025840644884471544,0.15994448548051549,0.7947460937468,0.59228515625,1.07421875,0.018401926310350578,0.13497372724810955,0.15727539062120002,0.05493164062,0.32177734375,0.006081762940048932,0.07759475053538378,1.0208809138588,0.72632390893,1.44879377051,0.043286932761876486,0.2070122301562343,949.2882208339665,949.20053573729,949.35361926662,0.0018697374942421362,0.1530835293299333,0.04302371577746063,0.0006669509812435899,-0.5428535555975342,0.44,0.56,-0.41164687837432307,Stairs down
-0.6099365234339998,-0.87634277343,-0.3701171875,0.025878855676093604,0.16006269746362725,0.7885888671835999,0.54809570312,1.06140136718,0.02851509123128871,0.16801767859060493,0.18997558593359998,0.07531738281,0.31872558593,0.006108394198876309,0.07776445368474948,1.0180884969464001,0.70130776706,1.38002464823,0.05391799737052635,0.23103856257521402,949.3555667263103,949.28500854113,949.47470083746,0.001676159203845001,0.1896922963300085,0.04073570438579099,0.0006851290103081292,1.2302216586955819,0.45,0.55,0.8825385641008591,Stairs down
-0.6079345703087998,-0.86474609375,-0.39404296875,0.020661850168251915,0.1430217873841933,0.796523437496,0.56359863281,1.09997558593,0.02950437781756343,0.1709073843910432,0.1434472656216,0.02416992187,0.33825683593,0.006256008774180897,0.07869846686206211,1.0150834720447997,0.69398200863,1.41529984371,0.050580510553571385,0.22377378186024313,949.4371633920242,949.37026615328,949.53068985358,0.0010015222277593623,0.1604237003000435,0.03148820422764322,0.0007591844415219336,1.2753783534604413,0.52,0.48,0.6410597115961472,Stairs down
-0.628925781246,-0.95275878906,-0.36999511718,0.024143145156550944,0.15460179075607577,0.7644091796843998,0.56958007812,1.06103515625,0.01947353160758306,0.13884810510592943,0.1689404296832,0.06774902343,0.30407714843,0.0036622111001605243,0.06021286398402686,1.0101218234855998,0.71611483188,1.40278228129,0.03522212301634028,0.18673484352465364,949.4909668271916,949.45197998674,949.58565451053,0.0008640597731917113,0.13367452379009137,0.029247549905244957,0.0002081802645137616,2.075756601021558,0.49,0.51,1.2235615895212606,Stairs down
-0.6422460937468,-0.83544921875,-0.41125488281,0.016269132970552245,0.12691115648691695,0.8071972656215999,0.65490722656,1.01232910156,0.013002227147371691,0.11345573972213999,0.21318359374639997,0.1005859375,0.365234375,0.005518506271652768,0.07391428284801416,1.0565474387540001,0.7900364502,1.32184732827,0.027923426859564962,0.1662654281291493,949.5598946424324,949.49639205048,949.61360944586,0.001282539528197678,0.1172173953799529,0.035633048324774305,0.0008840205613041267,-1.1472970413084462,0.48,0.52,-0.33774211254885167,Stairs down
-0.6148486328087998,-0.69836425781,-0.49877929687,0.004210383819911396,0.06456221791196677,0.7835498046831998,0.67980957031,0.93115234375,0.004038316649607182,0.06322921384226686,0.1925976562464,0.03088378906,0.33618164062,0.005951736045724659,0.0767607887222859,1.0198947122875999,0.91309759775,1.1390315775,0.0029860635122252095,0.054370974582979084,949.5899750346734,949.5672202711,949.63650365701,0.00023661374888100787,0.06928338591001193,0.01530514983239948,3.2042244104770064e-05,1.3128519848987574,0.56,0.44,1.0326412844325237,Stairs down
-0.5935986328083999,-0.68041992187,-0.51696777343,0.002782936385187375,0.05248911336015785,0.8142285156215999,0.69921875,0.970703125,0.006356602582120015,0.07932866163183906,0.20624999999640006,0.09118652343,0.29968261718,0.0038627964077285705,0.06183986128421768,1.0322196520416,0.91976076889,1.1874218024,0.005314522206121452,0.07253534989272636,949.6071352205195,949.56474407815,949.64161225315,0.0004516883061548196,0.07686817499995868,0.02114642814030945,0.0003392631309282707,-0.7974612463322996,0.52,0.48,-0.22608589485889277,Stairs down
-0.6569287109336,-0.814453125,-0.40747070312,0.009593660277519674,0.09745626544632459,0.7307080078087997,0.5078125,0.86840820312,0.007624909709056987,0.08688302833100615,0.3220458984336,0.16198730468,0.45788574218,0.00571800964047449,0.07523848446154231,1.0399308856412,0.73127033498,1.19499298263,0.010559648026000536,0.10224505633887894,949.6658336834162,949.61184419856,949.77982780475,0.001955405254087323,0.16798360618997776,0.043998309075991206,0.0008356654938152517,1.3360509233858462,0.8,0.2,1.4126742418779472,Stairs down
-0.6357470703095999,-0.89526367187,-0.47180175781,0.013655900328973401,0.11627270240982475,0.7735302734331999,0.60070800781,1.00207519531,0.012829007861567987,0.11269746129772537,0.166987304684,0.03930664062,0.26538085937,0.004139149405728319,0.06401373221169843,1.0239817627692,0.82656039578,1.24292683341,0.012310452311289232,0.11039632144313659,949.6671181878529,949.52324279368,949.88339591926,0.01209038046165671,0.360153125580041,0.10940510343233603,-0.0024736718939488986,-0.6835822182580853,0.6,0.4,0.7522765390715683,Stairs down
-0.6144335937459999,-0.82653808593,-0.44323730468,0.010082420773023043,0.09990794045166186,0.8087695312459999,0.63452148437,1.04760742187,0.01810421856972828,0.13387746779809886,0.1521044921828,-0.02685546875,0.25622558593,0.006060012037039338,0.07745587076954816,1.0360199780968002,0.77793337634,1.22766070798,0.015494305242548974,0.12385217878633983,949.6436422955306,949.55846766291,949.77251502574,0.004040046418080169,0.21404736283000148,0.06324275416124259,0.0012588052281798541,-0.955257276986722,0.52,0.48,0.4985938706203747,Stairs down
-0.08092773437440001,-0.63635253906,0.18798828125,0.041632053200814395,0.20301658225082564,0.8979541015584,0.48986816406,1.41943359375,0.058432960124989254,0.24051742249521002,-0.06212890624959999,-0.88220214843,0.40698242187,0.15879330186892326,0.3964913225409026,1.018096000118,0.72796534396,1.47681658945,0.03684963058233824,0.19100035150887776,949.6274650961494,949.47106122683,949.76312178042,0.005557976055951003,0.29206055358997673,0.07417813893184091,0.0005090788251055405,-0.2768924809299085,0.44,0.56,-0.12560973621794397,Stairs down
0.19353515624759995,-0.23022460937,0.50634765625,0.04365707055403205,0.20789540603027215,0.6721435546836,0.13195800781,1.55603027343,0.16457731796013544,0.4036477979384182,0.19414550780999998,-0.75476074218,1.16784667968,0.3324728928159367,0.573714357400769,1.0050721231636,0.69045106458,1.56309723883,0.05258134218717785,0.22815680740513983,949.5449039410352,949.43794073743,949.80718917338,0.006634066463501566,0.36924843594999857,0.0810415066423777,-0.0003332908296188996,1.9327242460537644,0.48,0.52,1.0892985734012561,Stairs down
-0.6521643066373,-1.205078125,-0.06787109375,0.09128593870267306,0.3006211558018602,0.4675292968701,0.06884765625,1.22729492187,0.12032903143827907,0.3451459707484592,0.07033935546729998,-0.7998046875,1.01574707031,0.3292026127134272,0.5708857911932061,1.0510407710303,0.6455456698,1.69722953643,0.0803760160323334,0.2820855470810407,949.6707414890608,949.26631229535,950.21249686156,0.0950283648368643,0.9461845662100359,0.30672150428115674,-0.005076012660581949,-0.8343381946903725,0.72,0.28,0.5955238751051484,Stairs down
-0.22085937499599992,-0.57922363281,-0.06994628906,0.01858002431488945,0.13562530763740427,0.957675781246,0.63208007812,1.41333007812,0.052238477022911824,0.22741172408801333,0.18158691405880006,0.01635742187,0.40661621093,0.008485829083507824,0.09165680985432968,1.0073110648396,0.65301580702,1.50802846458,0.06336492791394788,0.2504621301410822,949.6546796741409,949.4901130011,949.76808927748,0.005415875568191515,0.27797627638005906,0.07322374486810682,0.0022520300876717352,-0.8202874667423625,0.44,0.56,-0.289195726935724,Stairs down
-0.18207031249480007,-0.35327148437,-0.02648925781,0.00737693107489199,0.0854585382752541,0.9877099609339999,0.625,1.416015625,0.05840298830884242,0.24045573069850923,0.21097167968480002,0.09204101562,0.40942382812,0.009330735688289179,0.09611154109370158,1.0308601259264,0.66679435242,1.49293621612,0.06557228741994402,0.25478729274778317,949.7234955721391,949.65674509184,949.76497001679,0.0010700859259640584,0.10822492495003644,0.03254819605914309,0.0007878733810643564,-0.8161240043865563,0.48,0.52,-0.39478067543338513,Stairs down
-0.1459179687468,-0.3505859375,-0.00646972656,0.007135498258871466,0.08404845790544137,0.9064355468708,0.59985351562,1.28076171875,0.04354423961307185,0.20762658119070673,0.44724609374639995,0.17175292968,0.78625488281,0.0257732454933469,0.1597357600489428,1.0301416187420003,0.67173064699,1.42152523098,0.05802345603396753,0.2396731555131443,949.8036462672029,949.74279680441,949.88421905906,0.0014407084487536286,0.14142225465002412,0.037766405233568265,0.0010284594511800272,-0.21063225204809033,0.56,0.44,0.5632067081979953,Stairs down
-0.13207519530960002,-0.35302734375,0.04907226562,0.01153097306825964,0.1068441076408851,0.891992187496,0.67492675781,1.25305175781,0.0260243187047876,0.16051191705832848,0.5041455078091999,0.33996582031,0.72766113281,0.014271999224081773,0.11886664474040207,1.0427696804908002,0.77068933009,1.3643121019,0.031512145807932525,0.17662679397490405,949.8683630649725,949.78934231176,949.93766112771,0.0010883580825321426,0.14831881595000596,0.03282490672807497,0.0004150166225752805,0.07664887173476442,0.6,0.4,0.2014121000018761,Stairs down
-0.15349609374639997,-0.31896972656,0.04467773437,0.0106572985407484,0.10271672480828482,0.8843066406204,0.64440917968,1.16931152343,0.021215028570006546,0.14492369814597778,0.4256152343712,0.25317382812,0.73388671875,0.018585326551318317,0.13564465815433033,1.0028798871443998,0.71266554323,1.37822064437,0.03120466894936741,0.17576297181111195,949.8867912353124,949.85329131792,949.92835237904,0.0006564452036911457,0.07506106111998179,0.02549275880822306,-0.0007336602076484702,-1.2500196180784435,0.6,0.4,0.3906434230788867,Stairs down
-0.6291406249967999,-0.64184570312,-0.61767578125,3.8505708323011354e-05,0.006174192355262446,0.4454785156215999,0.43518066406,0.46313476562,7.871411064540026e-05,0.008827625362403316,0.6669384765584,0.65563964843,0.68664550781,6.980375811012861e-05,0.00831298505526308,1.0194135659951997,1.00227657845,1.03082030187,5.7676995023538005e-05,0.007556469087695829,950.066362544411,950.0170790879,950.1114869437,0.0003579757781069104,0.0944078558000001,0.01882540890195592,2.3163659264700087e-05,0.6459621038345773,0.44,0.56,-0.17400868603108552,Lift down
-0.6334033203083999,-0.64575195312,-0.62243652343,6.522997462312183e-05,0.008036023573689328,0.4561767578084,0.43957519531,0.48376464843,0.00015863384862588282,0.012531859803701285,0.6560302734343999,0.62976074218,0.68395996093,0.00036705744386028756,0.01906270886893268,1.0199155785116003,1.00727765728,1.02922724537,3.0247446725179425e-05,0.005472199946815507,950.0869761396934,950.0529273862,950.10169489732,0.00014550253780333379,0.04876751111999056,0.012001979521116524,0.000122328401421503,0.3575617373051285,0.4,0.6,-0.8788114931905386,Lift down
-0.7663623046832001,-1.13952636718,-0.60925292968,0.0348170893121198,0.18565806855345285,0.37506835937079996,-0.02990722656,0.4833984375,0.0194551584451846,0.13878258846387306,0.5010839843716,0.19201660156,0.63037109375,0.020396010225145665,0.14209873371319748,1.0207473834276002,0.83241149559,1.22340169247,0.011180778044692658,0.10520917385972448,950.0517301379296,949.97814358786,950.1304031971,0.0019077711272025449,0.15225960923999082,0.0434591004961046,0.00011846527135854804,-0.8416432621610457,0.48,0.52,0.022413287574853218,Lift down
-0.966274414058,-1.1171875,-0.79553222656,0.006985006332501095,0.08315741860577494,0.28448730468480005,-0.05200195312,0.60241699218,0.03952223859597904,0.19780550095995622,0.4380468749959999,0.18371582031,0.77099609375,0.022832455201901754,0.15034670149319118,1.1238088467539997,0.96982368835,1.36824052857,0.012327589467203408,0.11047313507152484,950.2330205834021,950.06892454642,950.34830899366,0.0049127266829141585,0.2793844472399769,0.06973951115461749,0.001962950321904088,-0.6189847683542213,0.44,0.56,-0.361547618762051,Lift down
-0.9680517578079999,-0.98376464843,-0.94396972656,8.468136642961846e-05,0.009156121054536264,0.0635791015588,0.0263671875,0.16577148437,0.0011047554497719645,0.03307125481856177,0.28512695312119996,0.265625,0.3388671875,0.0004538481645431829,0.021196926260610312,1.0119544606920001,0.99979777824,1.02982565744,3.930198278506911e-05,0.006237704943103546,950.3882945115132,950.3073376985,950.496498672,0.002947545921386736,0.18916097350006567,0.05401916754424182,0.0006043708616101914,-1.1757108057465053,0.56,0.44,0.35382730431315984,Lift down
-0.9738588238675246,-0.98767089843,-0.96105957031,5.323928181557401e-05,0.00726031405749363,-0.0018443494744554455,-0.09826660156,0.07055664062,0.0033933537900009162,0.05796340421096469,0.2698612024253465,0.21350097656,0.30200195312,0.0004677073790119758,0.02151921496902581,1.012466085402772,1.00642487268,1.0231416726,1.7624429529283255e-05,0.004177311363426615,950.5866219381265,950.46135885715,950.73282422006,0.006590209894162666,0.2714653629100212,0.08077722631565264,-0.0001520979739437662,-0.8057193049706846,0.52,0.48,0.30422416351891945,Lift down
-0.7912597656222999,-1.09582519531,-0.08630371093,0.11380720921231886,0.33566223666089645,0.27580078124699997,-0.20275878906,0.85473632812,0.10744860543124807,0.3261504551229932,-0.0984399414061,-0.96740722656,0.2275390625,0.18098321381554633,0.42328876866436094,1.0420303321626998,0.66380975064,1.30799114529,0.02448276234277789,0.1556853709227367,950.7607224699252,950.58061716235,950.93638050182,0.008764262269256822,0.3557633394700588,0.0931483743635081,0.002933912376592185,-0.6651354843415,0.59,0.41,0.38479485798831387,Lift down
0.1982116699235,-0.16015625,0.892578125,0.15797423544746228,0.3954674361979601,0.29529052733870004,0.04711914062,0.74035644531,0.05870450866981382,0.24107563871763502,-0.7795739746063001,-1.0849609375,-0.16320800781,0.12491783344833798,0.3516655443938951,1.0350537790238001,0.95344811575,1.09766815559,0.0010749796278586427,0.032622535639953806,950.9684532449656,950.85661795229,951.10368181962,0.003138220886893867,0.24706386732998453,0.055739022937480065,0.0001853189159124483,0.7056103333299126,0.39,0.61,-0.08010159504984331,Lift down
0.3850939941399,-1.54443359375,0.892578125,0.6974380530128647,0.8309414374567777,0.5537219238246999,0.34460449218,0.80493164062,0.007799654324511861,0.08787296388120036,-0.026812744137799997,-0.29162597656,0.67211914062,0.07558536420266464,0.2735498319513978,1.0684567932605,0.45257523498,1.81742275056,0.08791838207637118,0.2950240638585393,951.0697869827851,951.03938325476,951.15685430324,0.001076615061332514,0.11747104848006984,0.03264734155669017,0.000228065630311462,1.535255488488298,0.69,0.31,1.5775312902610377,Lift down
-0.964736328121,-1.07763671875,-0.865234375,0.002015021497485199,0.044663981937466644,0.27833984374619997,0.00427246093,0.69470214843,0.026191192058545493,0.1610257126609289,0.3045190429652,0.24768066406,0.46374511718,0.0027050661257354155,0.051749545548517246,1.0598918060460998,0.96570029443,1.33468588818,0.008234975055368621,0.09029188947416558,951.099928254624,950.95602869034,951.22220518373,0.004673760672056996,0.26617649339004856,0.06802222478967022,0.002053765843471747,-0.6993906544385982,0.52,0.48,-0.12750037196258268,Lift down
-0.9800951408584846,-1.01000976562,-0.87536621093,0.0006466695904167038,0.025300940187113378,0.04880223129595959,-0.1513671875,0.21057128906,0.007405532036252093,0.0856196746218447,0.2429556798414141,0.12768554687,0.40222167968,0.008446787465717125,0.09144105412890224,1.0187153306752528,0.96570029443,1.07890152263,0.0005525947303897229,0.02338830830642292,951.1332203685328,951.08835284592,951.21164451994,0.0012023934624301558,0.12329167402003804,0.034499972085796825,0.00015020806504126936,0.3360712649296671,0.56,0.44,0.9683546559296757,Lift down
0.5678491210896002,-0.16247558593,1.20544433593,0.12122841265993034,0.3464334402642606,0.6977600097613998,0.3857421875,1.02014160156,0.042248426776618504,0.20451391764095744,0.11463500976530001,-0.51147460937,0.771484375,0.13873425790967225,0.370603447542755,1.0434348211529998,0.67719065598,1.39359080235,0.03150306205280016,0.17660133474091344,951.0962031031377,951.06097831839,951.1508573026,0.0005591726404717188,0.08987898421003138,0.023528300280024513,-0.0004377610297958222,0.14930133214667007,0.41,0.59,0.5243407425541067,Stairs up
-0.27956197719080805,-0.96008300781,-0.05029296875,0.0471300665338307,0.21599538248701336,0.8610913825723233,0.33813476562,1.181640625,0.036437892432697315,0.18992059633745656,0.3462740194874747,0.14538574218,0.66101074218,0.015716931293185552,0.12473241123074709,1.0059259304745456,0.72570329541,1.2717568359,0.026198632437267257,0.16104036694688004,951.0389291390375,951.00703253012,951.08711579791,0.0006890180316473134,0.08008326778997343,0.02611624501244131,-0.0008481387934841472,-1.0353005013247711,0.53,0.47,0.5195631541529491,Stairs up
-0.9681164550757001,-1.25549316406,-0.68603515625,0.02757397646086265,0.16522178033253976,0.2603955078090999,0.0751953125,0.50939941406,0.01105683160555938,0.10462439146539294,0.2211987304655,0.09033203125,0.30920410156,0.0038052351244684474,0.06137737998011778,1.031676145788,0.72570102646,1.3093304169,0.0319597802058524,0.17787687428048052,950.9995102339407,950.96650558521,951.0281150194,0.00033372172550415305,0.061609434190017964,0.018176482284785234,-0.0004701457612353236,-0.8860969539731163,0.44,0.56,-0.27797922667867875,Stairs up
-0.9896594238232,-1.28747558593,-0.71667480468,0.03184479393583299,0.17755659941684696,0.2775817871059,0.12646484375,0.56860351562,0.011284360492875307,0.10569539672070186,0.20174804687149997,0.07678222656,0.35668945312,0.006575544699178029,0.08068326500697805,1.0528463408421,0.7599000297,1.35759851417,0.038284780632197986,0.1946841874058497,950.9328886908194,950.89617003057,950.97167452924,0.0005440240484674519,0.07550449866994313,0.023207408471925022,-0.0006881309017854783,-0.9895747920769624,0.44,0.56,0.035165903071391086,Stairs up
-0.9853906249964999,-1.36401367187,-0.69689941406,0.03421835371916655,0.18405480211604067,0.26751708983949996,0.1142578125,0.52368164062,0.010992986836711847,0.104321891127149,0.20486450194899994,0.10412597656,0.29333496093,0.0032307133454114213,0.056554453511260344,1.0462006198673004,0.74670402173,1.41571877886,0.038334785554026134,0.1948112874001039,950.8640403672823,950.82238237924,950.93643410864,0.0007944975215154759,0.1140517293999892,0.028045544143416458,-0.0006569762177601258,0.053525619820645964,0.48,0.52,0.47216842501913253,Stairs up
-0.9518257367700991,-1.29382324218,-0.6806640625,0.025814282769973166,0.15987087230591637,0.2828115331036633,0.12158203125,0.51831054687,0.01230908760913116,0.11039572208462295,0.25349532023099014,0.08325195312,0.51013183593,0.010979632950643105,0.1042637219434834,1.032797531827723,0.73764395076,1.35846193385,0.03248217271250384,0.17933367514798498,950.7903492186288,950.71539934203,950.84619322783,0.0011523452416297656,0.13079388580001705,0.03377774241718573,-0.0008747833728430727,0.17320318343257535,0.45,0.55,-0.9969868687584037,Stairs up
-0.9635314941371,-1.291015625,-0.66076660156,0.034643799781445835,0.185195469122847,0.2877770996051,0.16259765625,0.498046875,0.00750041533446759,0.08617082557990792,0.17189453124499998,0.04089355468,0.35144042968,0.007568153684923611,0.08655906739374203,1.0283438585258002,0.6986772049,1.36328014056,0.03905702642004487,0.19663788077541017,950.7110680783824,950.65891594204,950.78204184565,0.0007479926197977159,0.12312590361000275,0.02721236288159738,-0.000507993701983785,0.5575601734572078,0.49,0.51,0.3099172315738716,Stairs up
-0.9722753906216,-1.33447265625,-0.64306640625,0.028845568281015418,0.16898849841987845,0.31931152343400004,0.07885742187,0.861328125,0.03267595081607022,0.17985880936976514,0.08616455077659997,0.00476074218,0.18798828125,0.0034699428022058874,0.05861094926874866,1.0391836752246,0.67869061775,1.37160171706,0.03953782873205334,0.1978445107773597,950.650100322643,950.5867222864,950.7663355029,0.002038803526019863,0.17961321650000173,0.04492677921640571,-0.000899767903445845,-0.06020878367110516,0.6,0.4,0.6709290445680651,Stairs up
-0.9952563476520001,-1.03002929687,-0.95373535156,0.0002882089337750325,0.01689162053910998,0.0762036132776,0.01708984375,0.10754394531,0.0005999085939198778,0.024370258676934042,0.10966308593400001,0.09582519531,0.12646484375,7.298062547225428e-05,0.008500048189129973,1.004516841364,0.96268564638,1.03548519018,0.00026826588134503553,0.016296724288383392,950.5755386042231,950.56968547154,950.58147070934,7.460588344058936e-06,0.011785237800040704,0.0027177164054805916,-4.831418630060626e-05,0.2011040540363025,0.64,0.36,0.41513477593593695,Lift down
-0.9536865234348,-1.05615234375,-0.8466796875,0.0026906265151716057,0.051611241508220766,0.0972241210908,-0.01147460937,0.34533691406,0.0066448505539243915,0.08110734891725378,0.11013183593359999,0.05126953125,0.14489746093,0.0006729731655625912,0.025811691806368782,0.9687568704634001,0.86235829896,1.06811589006,0.002543462270011875,0.05017995264357825,950.6033866060477,950.56968547154,950.66837423162,0.0007553530031877881,0.09868876007999461,0.02734592242283866,0.0009125817988503626,-0.717332924175766,0.58,0.42,0.6049244137493037,Lift down
-0.9813378906214,-1.03796386718,-0.91918945312,0.00041687286259043863,0.02031512082082049,0.250971679684,0.17602539062,0.34533691406,0.0010643336267492946,0.0324605959662142,0.0673999023402,0.01977539062,0.11865234375,0.0005425521881739907,0.023175993318351015,1.0160275346166001,0.98906279559,1.0704803544,0.0002476327253164853,0.015657470998322827,950.7773935015279,950.66837423162,950.89700655515,0.004030092686500821,0.22863232353006424,0.06316479842155608,0.0021779752822480886,-1.1334642397054213,0.54,0.46,0.09549892932389611,Lift down
-1.0098730468712,-1.04174804687,-0.97595214843,0.00042724647908591395,0.020566332057395522,0.24340576171500003,0.23107910156,0.25268554687,2.660684512479223e-05,0.005132326633559512,0.100927734371,0.07983398437,0.12487792968,0.0001816677324456479,0.013410855868332619,1.0437630004607998,1.00938371412,1.07818398798,0.00046899789058817094,0.021547805263698882,950.9889881782182,950.89700655515,951.07370731361,0.003187004537226986,0.1767007584600151,0.05617058386606567,0.0019245091435586398,-1.3471644980524449,0.46,0.54,-0.2142623717667388,Lift down
-1.0055273437461998,-1.03515625,-0.98657226562,0.00027545476202638303,0.01651363722521841,0.21123291015179993,0.17785644531,0.25268554687,0.0004165275469934776,0.020306705087816262,0.08254638671559998,0.06274414062,0.10363769531,8.516979337245883e-05,0.00918248852102382,1.0309710912170003,1.0083141483,1.06291432576,0.0003903807773951675,0.019659017514138795,951.1091758706875,951.07370731361,951.13594707815,0.00024146456641949298,0.06223976453998148,0.015461239302051373,0.0003721999046636191,0.07446317980274086,0.3,0.7,-0.6247441327212201,Lift down
-0.9883471679662,-0.99658203125,-0.97900390625,2.4140007558048635e-05,0.004888620202313548,0.20473388671540005,0.18359375,0.23840332031,0.00021277816010537883,0.01451379958881633,0.0717089843718,0.04113769531,0.09924316406,0.00019413663884694306,0.013863450957769268,1.012075275428,1.00245728923,1.01943709863,1.8836726754681267e-05,0.004318374634875308,951.1213398043479,951.11440630492,951.1293241769,1.4204894079199499e-05,0.014917871980060227,0.0037500460181719777,9.671248689150034e-06,0.2059681727498579,0.5,0.5,0.7453864342325639,Lift down
-1.019194335934,-1.35986328125,-0.62512207031,0.05073341791096495,0.22411176616111725,0.15441894530979997,-0.05163574218,0.42175292968,0.012753624506412896,0.11236586786630878,0.24800537108919993,0.12170410156,0.44152832031,0.006889476083808323,0.08258681082939479,1.0676374981448,0.64298144034,1.43428408556,0.05447666164579976,0.23223241597447536,951.1098788245451,951.08788667117,951.13535386704,0.00012451644912963943,0.047467195869899115,0.011102760226103374,-0.0002210789675361498,-0.09001820206735323,0.62,0.38,0.6574972595015156,Stairs up
-0.9603998974066668,-1.29565429687,-0.69567871093,0.025632596112973714,0.15929118306021037,0.2495018544791919,0.10168457031,0.44396972656,0.009196821425919724,0.09541448653008264,0.27049794822919193,0.14453125,0.37487792968,0.0035092838796965857,0.05893926168336738,1.0330250877823233,0.75550556034,1.36978193166,0.02889071354000536,0.1691120579695971,951.0519081322557,951.01244361921,951.09808140331,0.0007411016725813371,0.08563778409995848,0.02708534284628344,-0.0008468214315030538,-1.1414288821189524,0.49,0.51,-0.044429831021434725,Stairs up
-0.9884045289255445,-1.26867675781,-0.67797851562,0.020479001848396284,0.14239466090362274,0.2486390973041584,0.13122558593,0.50109863281,0.01048403513016597,0.10188342751470685,0.26960134977990097,0.10791015625,0.51342773437,0.014033874078606526,0.11787673574672608,1.0644437120909904,0.71064012197,1.3315000062,0.023190390012060757,0.15152815642697948,951.0091413411567,950.98471277671,951.02963620051,0.0001293031301258234,0.04492342380001446,0.011314720549561825,-6.518670800972415e-05,-0.7376595710619251,0.65,0.35,0.26948053411545836,Stairs up
-0.8489355468718,-1.25659179687,-0.58081054687,0.02659915868688069,0.16227497373289537,0.27897460937159996,0.06494140625,0.61511230468,0.01548793084685491,0.12382669961840362,0.46709472655959994,0.20556640625,0.6923828125,0.019094175858750936,0.13748903265411183,1.0220709751124,0.71235742355,1.36627723363,0.0329659126918864,0.18065506791941247,950.9880176124148,950.85997843234,951.27766847265,0.010862205863732466,0.41769004031004897,0.1036994879693007,-0.0011411710060243978,2.401082720116979,0.64,0.36,1.6396630732886113,Stairs up
-0.7832373046832,-1.11413574218,-0.54919433593,0.017715961668286602,0.1324341423183755,0.2034301757774,0.02502441406,0.47814941406,0.015390917658809145,0.12343827802679788,0.5859741210887999,0.34265136718,0.85571289062,0.01903917166331532,0.13729085893344162,1.0095328016874,0.76303308995,1.35974198353,0.03098817702168095,0.1751522059566026,950.9104272702575,950.7295691094,951.22848689843,0.024437439952368856,0.4989177890299743,0.15554120210685388,-0.004594361366224913,-1.3164697567027985,0.56,0.44,0.4630023075640319,Stairs up
-0.8669824218707999,-1.23889160156,-0.65966796875,0.022492333758953754,0.149222687354719,0.27049316405900004,0.01635742187,0.55310058593,0.02265943158763971,0.14977595692154103,0.44960937499599996,0.23461914062,0.67016601562,0.016771963750329282,0.1288574565666496,1.0290120516138002,0.7415724364,1.33312778701,0.029709445617783787,0.17150029493154217,950.850928936794,950.78531751593,950.90510415025,0.0009504369596289936,0.11978663432000758,0.03067462452961248,0.0008511881574861206,-0.6082966554205491,0.38,0.62,-0.028014104949231157,Stairs up
-0.8735375976529997,-1.2919921875,-0.63854980468,0.03656530891413665,0.19026207143042273,0.21154296874660003,-0.0078125,0.51611328125,0.01753709530587351,0.1317638962417808,0.49214599609079995,0.29724121093,0.76196289062,0.014099834308449995,0.11814751781296759,1.037094917572,0.73742417131,1.42466880563,0.04240443605848608,0.2048911703756441,950.8400749506001,950.68312234597,950.98484101122,0.0047414783801089525,0.3017186652500641,0.0685132366503573,-0.0008184310756596102,1.3192296028583348,0.38,0.62,-0.337990524318465,Stairs up
-1.0219384765594,-1.28173828125,-0.66821289062,0.02316101334313102,0.1514245792785957,0.2299414062458,-0.0078125,0.48278808593,0.018313279922236116,0.13464823475639684,0.266330566403,0.01977539062,0.40795898437,0.014722741186209939,0.12072909249368123,1.0932484798853999,0.7535294792,1.37092650716,0.028895046580523595,0.16913336783354832,950.7507041885649,950.68312234597,950.77161948447,0.00029340643799285923,0.08849713849997443,0.017043250089490872,0.00015899491035159345,4.4579382819661895,0.36,0.64,-1.9607894789090239,Stairs up
-0.9723461914024,-1.31311035156,-0.66821289062,0.04193175935398416,0.20374602268619704,0.21034179687040003,0.00598144531,0.45776367187,0.012607769918012091,0.11172149398764757,0.26818603515260003,0.10021972656,0.45971679687,0.009850649213631478,0.09875293778665606,1.0396444062696002,0.72914880435,1.36291110853,0.044959921322955225,0.21097469542512834,950.7193479711286,950.68048163338,950.76549175223,0.000584240484985094,0.08501011884993659,0.024049908110744273,-0.0007366118651631049,-0.7282862729278947,0.46,0.54,0.3434531570824729,Stairs up
-0.6358044433551998,-0.87719726562,-0.44970703125,0.010367000492687116,0.10130809685193107,0.7226599121055,0.498046875,0.94592285156,0.012489476726266229,0.11119614183506353,0.3761853027302999,0.16735839843,0.57543945312,0.015379142368384347,0.12339104888402766,1.0429249813394001,0.80250018711,1.302236356,0.01889555520495334,0.1367720719039666,950.5478331850167,950.48299565922,950.78347142393,0.0041761514314032685,0.3004757647099723,0.0642992217455953,-0.0006079937933876812,4.765995247188508,0.62,0.38,1.9708175868917934,Stairs up
-0.6165576171837999,-0.80883789062,-0.42614746093,0.009877659672369499,0.09888823527420137,0.6906249999966999,0.44067382812,1.03698730468,0.029520120885463203,0.17095297504462614,0.4141442871052999,0.1865234375,0.66455078125,0.015806190309882256,0.1250924794173632,1.0222149251379,0.74790480138,1.45223155806,0.03873763076219243,0.1958322099517097,950.4803756893649,950.4517534952,950.55731624541,0.0006281322175176615,0.10556275020996964,0.02493693837146984,-0.0005260479410094215,1.4665190725171247,0.54,0.46,1.1821565487366232,Stairs up
-0.6443676757775001,-0.76635742187,-0.50341796875,0.005405850247764447,0.0731559412849483,0.6741284179650999,0.51391601562,0.96911621093,0.011998031602840709,0.10898647295335463,0.4091906738245,0.22277832031,0.61938476562,0.011756633897857223,0.10788451028242493,1.0232863092892,0.80022762048,1.34353882771,0.01904027561269429,0.13729483914760726,950.464073988144,950.39311357225,950.59752628385,0.0023934949920597776,0.2044127116000709,0.04867812693745703,-0.00033954345990166204,2.0547813065855385,0.48,0.52,1.2894267054532178,Stairs up
-0.7079296874963998,-0.87390136718,-0.55419921875,0.008556988359508933,0.09204030897337233,0.6450268554648,0.4716796875,0.87731933593,0.012685343117088983,0.11206466742875781,0.39512207030859997,0.24938964843,0.57141113281,0.007702091944405291,0.08732165266966285,1.0396691786989998,0.82289949028,1.33680058088,0.021301530512434864,0.145218852795739,950.4093437914256,950.37293429457,950.50429942619,0.001104059582101578,0.13136513161998664,0.033060837652433464,6.921255236046701e-06,1.6264536671059648,0.52,0.48,1.244936401334927,Stairs up
-0.6713134765597999,-0.8818359375,-0.48449707031,0.012310103936708386,0.1103947593744436,0.6572558593711999,0.47900390625,0.95166015625,0.01957413437377427,0.13920629666087855,0.3966674804645999,0.17272949218,0.560546875,0.010686462726605344,0.10285717330035514,1.0255598039084,0.80158254029,1.39152874672,0.030670930486182385,0.17425332473534202,950.3367316645282,950.27296690276,950.50429942619,0.003358239657598947,0.23133252342995547,0.05765984097292463,-0.000733385705367086,2.308131325276366,0.74,0.26,1.7160358080259726,Stairs up
-0.6371533203098,-0.88500976562,-0.45935058593,0.014225428851079499,0.11867255184990631,0.714060058591,0.4755859375,1.0498046875,0.021482388232670967,0.1458340301518965,0.38189208983979994,0.20544433593,0.54992675781,0.009955411132268579,0.09927666906653292,1.0352807224022,0.73682216998,1.38848614423,0.03544253625761293,0.18731820759081805,950.278034962184,950.14504072848,950.62556303588,0.017013831021827464,0.4805223073999514,0.12978325281641384,-0.002105151955943844,1.4813284374022304,0.72,0.28,1.4772336574448814,Stairs up
-0.6784228515589998,-0.8720703125,-0.49365234375,0.010169490274977521,0.10033840427387584,0.610886230465,0.435546875,0.96081542968,0.011961942303001388,0.10882243739216363,0.37906005858979996,0.24365234375,0.57641601562,0.00911516842789542,0.09499482482544228,0.9921282267520002,0.77729721505,1.41983391385,0.023981612916922006,0.15408373304068404,950.1858091605568,950.12851932145,950.35510248325,0.0032819846465134547,0.22658316180002203,0.057001445596127825,-0.0006667928060541753,2.2177983160430514,0.72,0.28,1.750539464685257,Stairs up
-0.6843164062461,-0.85864257812,-0.48461914062,0.00837674546727289,0.09106578947442427,0.6810595703080999,0.43566894531,0.91833496093,0.013941153167298888,0.11748081390433886,0.3688012695276999,0.23022460937,0.5302734375,0.006827955468815571,0.08221724827630401,1.0384393871967001,0.76178486854,1.34091395129,0.017995895356639712,0.13347635147498343,950.141300493088,950.12295065677,950.22035655461,0.00028679334822361794,0.09740589784007625,0.01685008649062021,0.00011920498885196576,7.513805648645812,0.64,0.36,2.3442447874161805,Stairs up
-0.6348535156219,-0.86743164062,-0.42810058593,0.013804598312067248,0.1169040304221654,0.6577355956993,0.46801757812,0.94580078125,0.01555752244141226,0.12410458177278604,0.40064819335539986,0.22839355468,0.56469726562,0.010041134193367678,0.09970317372799123,1.0050167733834998,0.77992484239,1.40209121342,0.025378366264195304,0.15850735819372347,950.1294837401921,950.01557735217,950.2734802927,0.00694466984457163,0.25790294053001617,0.08291696536973549,-0.001191750144534876,-1.4154377063009234,0.58,0.42,0.2829869128903447,Stairs up
-0.6867980956998,-0.87097167968,-0.47583007812,0.012226331527331113,0.11001849031893594,0.6694384765596,0.486328125,0.93298339843,0.01893387476596088,0.13691068628233982,0.35452270507329997,0.17407226562,0.52099609375,0.007333760121625837,0.08520811299641354,1.0288371493658002,0.77452179013,1.35896307086,0.025382821622258977,0.15852127114692333,950.0501758482703,950.02237804627,950.14808796293,0.0007923928491866937,0.12570991666007103,0.028008372332122885,-0.00042554878246174057,3.547463336195399,0.56,0.44,1.8289087220057694,Stairs up
-0.6278356933555999,-0.7509765625,-0.53076171875,0.004089754595547989,0.06363062980666236,0.7684167480441999,0.59399414062,0.966796875,0.009118839241995387,0.09501395081552727,0.25733886718460003,0.06115722656,0.42175292968,0.008874545578955756,0.09373259904198858,1.0316027221721,0.87556524411,1.20861116111,0.008609475475549588,0.0923221572581257,950.0271606113616,950.01536229445,950.0437625948,6.872211561428218e-05,0.028400300349971985,0.008248326767177653,-0.0001618930532087115,-0.7071716288574903,0.6,0.4,0.26108784668733526,Stairs up
-0.6101550292926998,-0.72863769531,-0.48413085937,0.003729025792202259,0.060759653836079716,0.782241210934,0.587890625,1.01550292968,0.01159058715343472,0.10711993876912165,0.25263305663610003,0.11315917968,0.44799804687,0.007464911075483355,0.0859666328567574,1.0297799612315002,0.85440573118,1.2336853189,0.010226104432383845,0.10061731157241287,950.0180590437504,950.00654778428,950.03138417416,5.33168010245696e-05,0.02483638988007897,0.007265234546408251,-2.3807662446669965e-05,-1.1857159873093124,0.5,0.5,0.12755236938697156,Stairs up
-0.6427770996059999,-0.82348632812,-0.45141601562,0.009407433492596422,0.09650574675981974,0.7411633300742997,0.57214355468,1.00659179687,0.01938058748838754,0.13851635864945216,0.2719946289029,0.11926269531,0.41064453125,0.0064537700920137275,0.07993267411449206,1.0245943154372,0.79707924712,1.27903876576,0.02178022395424365,0.14684148499215477,950.0068906010633,949.97278052137,950.02420487325,0.0001925324856743146,0.051424351879973074,0.013806055222893012,-0.00024165087175157662,0.8859296603894538,0.22,0.78,-1.2687343131272246,Stairs up
-0.6505883789028999,-0.8095703125,-0.51477050781,0.007169609954925406,0.08424911783144172,0.7365624999970001,0.55505371093,0.99865722656,0.013404707017536674,0.115198350454168,0.2748864746057,0.13513183593,0.43029785156,0.006443635278004415,0.0798698874747196,1.0257604774235998,0.79911919213,1.29071728235,0.015112239719297232,0.12231564626859583,949.9918786198815,949.97694649442,950.01159879495,6.977416206349239e-05,0.034652300530069624,0.00831122256006043,5.9905688329687224e-05,-0.3303703740710935,0.5,0.5,0.21905157158018337,Stairs up
-0.7547924804645999,-1.23767089843,-0.07116699218,0.15242873798082537,0.38846422049014645,0.5431152343714999,0.06726074218,1.11462402343,0.10464777308326066,0.3218715510144195,0.25377685546479994,0.0791015625,0.43432617187,0.008774942165518046,0.0932051111466687,1.0777102279786,0.73276628661,1.37187794595,0.031133476716456422,0.17556235914709012,949.9968787207978,949.91728249035,950.09522614386,0.0017655134277664768,0.1779436535100558,0.04180739520095472,-0.00085192649796163,-0.08718879676059421,0.56,0.44,0.15889266923969364,Stairs up
-1.01864990234,-1.32543945312,-0.66491699218,0.03972434382823282,0.1983106159285238,0.2569738769486,0.00329589843,0.59143066406,0.02406062943023963,0.15433736791826286,0.2720263671835,0.03942871093,0.53332519531,0.015032997733563983,0.12199453986235755,1.0972005648180998,0.69151626401,1.50340432052,0.0523861144046077,0.2277328550309806,949.9956186581793,949.96353855501,950.06128087458,0.0007041045243152562,0.09774231956998847,0.02640195975817143,-0.00034363012973774023,0.7408229190967219,0.72,0.28,1.2173183318766132,Stairs up
-0.9122558593714,-1.26049804687,-0.57238769531,0.038635801787260796,0.19557465011955968,0.1493603515605,-0.17211914062,0.50671386718,0.023502827388380533,0.1525378612492542,0.34931884765239984,0.15832519531,0.59338378906,0.014195115511995055,0.11854604319366845,1.0053735383571,0.67358094256,1.32359053752,0.04175492981263859,0.20331596227181034,949.9924371510258,949.71265809235,950.26355032332,0.014960596578825036,0.550892230970021,0.12170041336428067,-6.332697093529226e-07,1.0531688369852041,0.64,0.36,0.36080971597540135,Stairs up
-0.9770324706992,-1.25634765625,-0.67102050781,0.02015273931512058,0.14124875901036926,0.23432250976229999,0.0458984375,0.51098632812,0.01600681358363849,0.12588385697857413,0.3585241699182999,0.19262695312,0.49560546875,0.008319519220897947,0.09075419565336341,1.0789083676846,0.78810108269,1.3389331626,0.018212205389126632,0.13427614581613284,949.926125544458,949.58146808304,950.3701179891,0.03333024230674427,0.788649906059959,0.18165059835760747,0.0025188433906974624,0.24931357962400869,0.6,0.4,0.6048073797363205,Stairs up
-0.9029663085906,-1.2607421875,-0.58447265625,0.03067571571983266,0.17426691757942564,0.2062976074195,-0.01989746093,0.6181640625,0.02429095437264679,0.1550743203400238,0.3713891601524999,0.23413085937,0.54211425781,0.0066481976738122835,0.0811277738944818,1.007436115512,0.64105545096,1.36803053885,0.042331270511642496,0.20471433219617544,949.7843304382295,949.58146808304,949.8975758203,0.0031108417245560207,0.3161077372599266,0.05549534491568153,0.0011650071980254775,3.015506712869434,0.26,0.74,-1.3671277040093766,Stairs up
-0.9509704589803999,-1.27880859375,-0.73193359375,0.022016415203090632,0.14763553451340813,0.17222778320030002,-0.0712890625,0.42028808593,0.015197939311139485,0.1226619742138047,0.3506604003864999,0.14514160156,0.52209472656,0.009487418482596063,0.09691513967265436,1.0375697516433,0.82538043772,1.3997020119,0.02692293464708523,0.16325962544552888,949.7889827382128,949.762343109,949.81441597486,0.00018035408746277428,0.05207286586005466,0.013362280740507833,-0.00043872430490497197,-0.4969485939609557,0.54,0.46,0.19167897608784115,Stairs up
-0.9267321777314999,-1.24133300781,-0.68786621093,0.02364215323875765,0.15298931892903528,0.24812255859029997,0.06384277343,0.53149414062,0.01225777008905934,0.11015984925629095,0.33744384765209984,0.2158203125,0.50598144531,0.008991838169817499,0.09434998562861217,1.024875905502,0.73817880111,1.32256924455,0.02862414732133397,0.16833866415093304,949.7371830942601,949.70821434175,949.762343109,0.00024715016098994194,0.054128767249949306,0.015642207624886027,-0.0005032751912205401,-0.9321787810074653,0.46,0.54,-0.4562147408740577,Stairs up
-0.9621069335903999,-1.26989746093,-0.75158691406,0.025640146653968802,0.15932277046119023,0.23870971679350006,0.09741210937,0.42517089843,0.007383288305975972,0.08549535322411513,0.3143798828091,0.16101074218,0.49877929687,0.00999358266281292,0.09946681273764024,1.0466080306322998,0.80373439082,1.41291417341,0.028954817100686512,0.16930820691767912,949.6782699863595,949.64060469113,949.71010428113,0.0003834265202913639,0.06949959000007766,0.019483127446291836,-0.0006310354561332618,-1.2321182482856667,0.5,0.5,0.11015221840000405,Stairs up
-0.8856933593701999,-1.15991210937,-0.64501953125,0.016295859307740905,0.1270153562159454,0.2967370605428,0.0283203125,0.61376953125,0.024868467737611838,0.15690692483200264,0.3508959960893999,0.15051269531,0.46716308593,0.006536850850936671,0.08044552406708098,1.0131006729942,0.7933795222,1.24346292743,0.01665131566022702,0.12839315598436216,949.6280686810059,949.60928172264,949.64498684176,9.344468306131214e-05,0.0357051191199389,0.009618224172408284,-0.0002930474615345983,-0.8404288703615057,0.7,0.3,0.29590841409526175,Stairs up
-0.9806347656212,-1.15954589843,-0.83190917968,0.008799364928023955,0.09333472707810163,0.1944677734342,0.06530761718,0.36364746093,0.003753228524783742,0.06095651105120686,0.32673828124580007,0.08862304687,0.5625,0.01626100549801794,0.12687945240675405,1.0634196676125,0.98814701028,1.21138510891,0.00392347108789957,0.06232364219957443,949.6067107314392,949.59462091034,949.61644808823,3.111389042178671e-05,0.021827177889917948,0.005550022659194181,-2.940243086106102e-06,-0.13874034385667722,0.52,0.48,-0.43481606150947855,Stairs up
-1.0025024414027999,-1.23779296875,-0.79895019531,0.015240429477482357,0.12283332276995333,0.22849243163730001,0.1298828125,0.37048339843,0.0053182944789959075,0.07256108829259625,0.2731347656215999,0.10046386718,0.40991210937,0.0052852921053304705,0.07233560108464687,1.0697814728658996,0.89867008349,1.30039832633,0.013106780544855064,0.11391098603473905,949.6059553160213,949.59030203402,949.61923558285,7.197130424298671e-05,0.02893354882996846,0.008441065762127248,-0.00024030845250768934,-1.2079793778913168,0.5,0.5,-0.14406746310273683,Stairs up
-0.8051159667931,-0.94494628906,-0.42431640625,0.03459461845972941,0.1850639680627542,0.5010498046837999,0.33020019531,0.90148925781,0.03938362574346288,0.1974583234154191,0.2523132324179,0.17687988281,0.48303222656,0.007444224085124322,0.08584743353340901,1.0199017609802004,0.88101889271,1.16401048838,0.0033669046141445776,0.05773418024015871,949.592114525321,949.54957087783,949.79693173124,0.004395800072187734,0.2473608534099867,0.0659684930210313,0.0017625934016264905,1.8342524197361785,0.69,0.31,1.710266801404884,Lift down
-0.46089721679319995,-0.4892578125,-0.42431640625,0.00022553315516865035,0.014942483850316313,0.7763952636688998,0.70715332031,0.90148925781,0.002379564280168187,0.04853626105672444,0.4058349609327,0.17687988281,0.48791503906,0.005134640919977912,0.07129722652935479,0.9936546398782998,0.96660131923,1.04040924075,0.0002329929621548272,0.01518759469215843,949.6084253996441,949.50085822728,949.79693173124,0.006658371470995416,0.296073503959974,0.0811898254480539,-0.0021320851103218902,-0.26375420935040017,0.59,0.41,0.7510481713636501,Lift down
-0.4878039550756999,-0.5078125,-0.47570800781,4.456262847362544e-05,0.006642063097328208,0.7019982910120999,0.68603515625,0.73950195312,9.402598245677875e-05,0.0096480942487214,0.5022180175745,0.48107910156,0.51940917968,8.154067576715352e-05,0.00898472420330652,0.9915074627218,0.97657814776,1.01307840927,0.00010920778907203518,0.010397870511855532,949.6288489208432,949.53980309277,949.71906911883,0.0028121708767851836,0.1792660260600769,0.05276408975825634,0.001766613357508251,-0.9664185632102127,0.49,0.51,0.11825786414060684,Lift down
-0.5361010742147999,-0.58068847656,-0.50268554687,0.000432805166097316,0.020699688752161053,0.7675817871057998,0.70837402343,0.91186523437,0.002292532648381361,0.04764039590408068,0.48846923827869987,0.17797851562,0.54553222656,0.008211399395078598,0.09016254988146583,1.0608743769154996,1.01184894946,1.10215438335,0.000566954200178716,0.02369144694139488,949.7822742420221,949.66758189882,949.88950422406,0.004217017927491315,0.22192232524002975,0.06461306174618567,0.00010473241804436376,-0.93612416232012,0.49,0.51,-0.1024161804891552,Lift down
-0.47572875976189993,-0.62756347656,-0.41967773437,0.0038529655714626813,0.061761119774078374,0.7200964355432998,0.64099121093,0.92700195312,0.003453629924403786,0.0584730162139747,-0.5259045410123,-0.64343261718,0.17797851562,0.026184797074597886,0.16100605300376725,1.0267728777166,1.01304433577,1.08701352112,0.00032954730724454905,0.01806244264135124,949.9240041876093,949.78850554434,949.95725758683,0.0019641640492179826,0.16875204249004128,0.04409673920740402,0.0012373207533889295,2.4030038422360462,0.29,0.71,-1.8088432489575215,Lift down
-0.4433605957,-0.44946289062,-0.43859863281,8.200905234425091e-06,0.0028493676810971307,0.7393847656216999,0.72644042968,0.74877929687,1.9071053969722128e-05,0.004345151715420868,-0.5523510742148998,-0.56677246093,-0.52429199218,8.093378159653136e-05,0.008951225825581994,1.0239183642162,1.00770741291,1.03935949483,4.895529752691571e-05,0.006961734306309496,949.960642188513,949.95577573986,949.96348591097,4.9206338792606224e-06,0.007710171110034025,0.002207131065539157,-1.758607151004079e-05,-0.32910430823743075,0.37,0.63,-0.8747910957748463,Lift down
-0.8350415039018999,-1.1396484375,-0.43640136718,0.03641642681909191,0.1898743335759233,0.22281005859109995,-0.22863769531,0.52722167968,0.06977283912900274,0.2628214426901137,-0.28772338867020003,-0.84448242187,0.15893554687,0.0910728057371651,0.3002700079591591,1.0019343600096,0.64412277456,1.19727939019,0.01817675610914672,0.13414540077116044,950.0578811868718,949.76278633784,950.57141021695,0.02314272362194826,0.8086238791099731,0.15136477921144265,0.0003079139628316508,3.3009176110649436,0.56,0.44,1.3276232236724275,Stairs down
-0.1744030761689,-1.00134277343,0.33203125,0.15781705857734502,0.3952706515687341,0.05455932617139998,-0.38647460937,0.92358398437,0.13063813591499776,0.35962724390102563,-0.7796972656206997,-1.28552246093,-0.20959472656,0.06351143786373127,0.2507515174133428,0.9685842072595001,0.39914194178,1.36630838195,0.052133917725961945,0.22718401913141323,950.0205084919438,949.84976657619,950.15417786788,0.009433073384730052,0.30441129169003034,0.09663717013076673,-7.6135054527331e-05,-1.281324735062042,0.45,0.55,-0.2549528971884004,Stairs down
-0.8315039062457998,-1.14233398437,-0.51684570312,0.020429421819938964,0.14221507515639675,-0.29052612304290004,-0.669921875,-0.00280761718,0.025224215603838637,0.1580252304152734,-0.5233471679657998,-0.71484375,-0.31335449218,0.014832351731598904,0.12117767209466815,1.0447895750897,0.82708550836,1.36085020786,0.01817404599945215,0.1341354000234749,950.1532322542553,950.03897951567,950.29512865295,0.005524997500326137,0.25614913727997646,0.07395774148338277,-0.0003674522764379793,-1.0300771061795164,0.56,0.44,0.547245215885478,Stairs down
-0.8569580078083999,-1.37048339843,-0.58032226562,0.037318895561697596,0.19221265984861827,-0.1634948730443,-0.60668945312,0.22351074218,0.05653827851773619,0.23658591617541147,-0.4581689453086999,-0.77758789062,-0.30358886718,0.012285597661538276,0.11028482073668568,1.0164907383509003,0.75790928684,1.5603941937,0.043287177754398776,0.2070128159724774,950.1907044388945,950.03897951567,950.47273818291,0.015482569834939645,0.43375866723999934,0.12380526699858228,5.4649604455466655e-05,-0.758067262377589,0.6,0.4,0.6306494021476039,Stairs down
-0.9328784179659,-1.34814453125,-0.51440429687,0.04151010845066965,0.20271903552987558,-0.09570800781160002,-0.71044921875,0.24963378906,0.06894924060168046,0.2612656659334779,-0.37973510741789995,-0.53051757812,-0.21826171875,0.0071210287118792445,0.08396319684695464,1.0486991810099,0.62770502512,1.39341957062,0.040662140410186724,0.20063778060496198,950.2348414788977,949.98997388847,950.58654031666,0.019694179848682027,0.5965664281900445,0.13963251072080315,-0.0001120474563653474,0.12751796126307458,0.53,0.47,0.21311976860062495,Stairs down
-0.9025219726516,-1.10327148437,-0.71423339843,0.011836995807843788,0.10825260204616492,-0.18187988281080003,-0.45556640625,0.11535644531,0.03110985801607242,0.17549575332728623,-0.38177001952749995,-0.53747558593,-0.18481445312,0.00805447963145407,0.08929689152002733,1.0165702669398002,0.82410905659,1.23055428101,0.010556326462315533,0.10222897435508378,950.3570699982946,950.24631474892,950.54938940637,0.0057051786342656695,0.3030746574499972,0.07515402083669917,0.0015500755955426648,1.0008213258463927,0.65,0.35,1.3376535518232855,Stairs down
-0.9566381835902001,-1.44580078125,-0.67858886718,0.036708808782527476,0.19063504581976054,0.3013305664034,-0.00561523437,0.62097167968,0.02846451103676895,0.16786859720150538,-0.1288793945286,-0.43811035156,0.08752441406,0.018369264548240328,0.13485389094408037,1.0296790121091,0.75834741099,1.56797872368,0.03919285777628995,0.1969795146672035,950.3432733674927,950.14174084375,950.56363000856,0.012292862352045603,0.421889164810068,0.11031742259736287,0.001426474217399646,-0.38416507167364644,0.48,0.52,0.027955021259524274,Stairs down
-0.8126513671843999,-1.19555664062,-0.53552246093,0.034129907723936426,0.18381678010099367,0.17014160155959998,-0.12878417968,0.41381835937,0.016179712131233384,0.12656190188963284,-0.5293359374963998,-0.84057617187,-0.10534667968,0.029188327981919088,0.16998954291985108,1.0151294578931997,0.85587929755,1.29881229821,0.017941511082261524,0.1332745135854523,950.4414778455689,950.34280142432,950.52862397896,0.0027838960648632204,0.18582255464002628,0.052498162865138316,-0.00106809080748784,-0.5111892007454895,0.39,0.61,-0.5589404744631494,Stairs down
-0.9969238281212001,-1.39453125,-0.64453125,0.04754377856410877,0.21695239288486237,0.29636718749560004,0.08959960937,0.51391601562,0.017290493069042446,0.1308342009504855,0.0651513671872,-0.10119628906,0.32824707031,0.014607729959716065,0.12025661171062033,1.0584730216256002,0.72880880679,1.42699501943,0.0446644177919351,0.21028022639805138,950.4779091728345,950.38259349668,950.51758072396,0.0009642714416477501,0.13498722728002122,0.03089706664444495,0.0008944750871219047,0.7895232931955363,0.33,0.67,-1.1927076728044876,Stairs down
-1.0136376953092,-1.20178222656,-0.84680175781,0.008574068570317329,0.09213212189358365,0.13981933593600002,-0.07946777343,0.34375,0.01712552585896166,0.13020856577188786,0.25626464843319996,-0.009765625,0.53820800781,0.015488822917690772,0.12383026564016514,1.0687207978516,0.87856013794,1.25656021164,0.01140887222449088,0.10627691895348666,950.5103535732496,950.4945360161,950.56656141487,0.0003022338277485978,0.07202539876993796,0.017297730760741762,0.0002718728665582049,4.99474462259574,0.65,0.35,2.358054046385891,Stairs down
-1.1295019531216,-1.3251953125,-0.90710449218,0.012741625092349594,0.11231299498021632,0.06681640624959999,-0.2763671875,0.33422851562,0.02752553438790693,0.16507658539001788,0.27077148437040005,-0.0263671875,0.54162597656,0.021413936374186215,0.14560150071494576,1.1843904153884,0.93318559191,1.36694789421,0.011959514980625658,0.10881139568454859,950.5111889295929,950.49128731796,950.56985408901,0.0005571255959512323,0.07856677105007748,0.023485194059060275,0.00021745916659047547,0.9691445857148784,0.6,0.4,1.396309522038806,Stairs down
-1.0020080566371998,-1.19274902343,-0.81323242187,0.014899192547288852,0.12145040395904809,0.14106201171509997,0.00122070312,0.28942871093,0.007479764951699812,0.08605211968442622,0.19783203124630003,0.05310058593,0.33312988281,0.005051869792240995,0.07072023115289276,1.0362751011535,0.84037342667,1.2513611416,0.016511700048454685,0.12785375648752031,950.5215343940718,950.49800018113,950.5477043166,0.00031454764188850256,0.04970413546993768,0.01764659076052985,-0.00014613322637396884,-1.3775797658396853,0.55,0.45,0.1828215115527685,Stairs down
-1.025119628903,-1.25183105468,-0.74645996093,0.020985415662108417,0.14413730088178886,0.15528442382500005,-0.046875,0.38818359375,0.014559181981060921,0.12005661231789906,0.2274047851528,0.10595703125,0.33215332031,0.003909443514611328,0.062212129681157954,1.0691320624571,0.78867454244,1.32031147296,0.022941995886315632,0.15070692063555832,950.5281488911959,950.49968516946,950.55202542044,0.00023857574901248069,0.052340250980023484,0.015368473949041131,0.00011843309133449114,-1.2306894657317842,0.53,0.47,-0.03848010699230302,Stairs down
-1.0175976562464,-1.40283203125,-0.68872070312,0.03779729650484064,0.19344074942935946,0.11154296874840003,-0.08850097656,0.34521484375,0.013053478953643715,0.11367912809353913,0.25198730468360003,0.1513671875,0.34924316406,0.0030067551256463786,0.054559028349026845,1.0621730220060002,0.72948843918,1.4595989327,0.036921062826709955,0.19118538698980855,950.5278807104842,950.50371727307,950.61025037982,0.0006588983036750727,0.10653310674990735,0.025540346916953224,5.96382351712042e-05,2.118228732435745,0.67,0.33,1.5661516484621043,Stairs down
-1.0212255859336,-1.61376953125,-0.56640625,0.06501331632771884,0.253699001110453,0.1000195312476,-0.13903808593,0.27673339843,0.012917725581397168,0.11308646393615461,0.28361816405879997,0.1318359375,0.44445800781,0.006483216478423928,0.08011481956317251,1.0739463553276003,0.64005097979,1.68516483596,0.06419617036692293,0.25209960068047255,950.5559246491373,950.49992123952,950.72103294537,0.001970985080427918,0.22111170585003492,0.044173241103904054,0.000658944763329347,3.460575044504047,0.53,0.47,1.4558004031106966,Stairs down
-0.8402880859340001,-1.20788574218,-0.57397460937,0.022054722670337645,0.14776391793544955,0.13983886718480001,-0.11267089843,0.37487792968,0.018147980419511277,0.1340391756738162,0.5489208984331999,0.21447753906,0.78857421875,0.023304744537346874,0.1518937032663744,1.0307646613748,0.77521309153,1.42418882199,0.027625974635372526,0.16537749208709993,950.637438775388,950.53271963709,950.81749138831,0.0063397780596699625,0.2847717512199779,0.0792236093539878,-0.0007785674796608969,0.2680705825880385,0.52,0.48,0.8895467685976788,Stairs down
-0.8994726562464002,-1.24951171875,-0.55529785156,0.02697766082477158,0.16342546991373122,0.12418457031159999,-0.15783691406,0.50402832031,0.03599624648136649,0.18877575060518983,0.46492675780879994,0.2158203125,0.76623535156,0.027158907832515906,0.16397353065111073,1.0425624499475998,0.67640993058,1.46773143208,0.043358365567962354,0.20718296723496055,950.6851406776726,950.64716761002,950.7431695851,0.0005863185455311548,0.09600197507995745,0.024092641201741316,0.0006925907045302949,-0.4657212850316026,0.57,0.43,0.5506175617035041,Stairs down
-0.9640722656207998,-1.15148925781,-0.77099609375,0.01079648398385963,0.10338529462172574,0.06762207030999999,-0.111328125,0.26135253906,0.010128837016754237,0.1001376484973893,0.4059960937455999,0.13659667968,0.61877441406,0.019126766763735755,0.13760631924478758,1.0614614804484,0.87719806402,1.25728621638,0.011911109375330593,0.10859096777162126,950.8212916953852,950.73249207297,950.98262824347,0.005961275370681815,0.2501361705000136,0.07682227943100228,0.0021306506469560473,0.031404873322728566,0.65,0.35,1.1287769005021513,Stairs down
-0.9064257812459999,-1.30078125,-0.69250488281,0.022424368039553572,0.14899706157893863,0.04011230468679999,-0.24633789062,0.28039550781,0.01306486852181239,0.11372871157537251,0.4563427734339999,0.22143554687,0.61938476562,0.0121354633869177,0.10960888993621148,1.0260813837492,0.73231543212,1.44089341797,0.026031179428017644,0.16053307333299724,950.8768371174962,950.81683506679,950.97436334745,0.002310484721752954,0.15752828066001712,0.04782656034606111,0.0015156175717388784,-0.972096804533447,0.53,0.47,0.5897836639941538,Stairs down
-0.9179833984332,-1.22534179687,-0.68579101562,0.01576373591562954,0.12492437134712044,0.1171923828108,-0.08752441406,0.2998046875,0.009292194915489826,0.09591284046640955,0.48270996093359997,0.26586914062,0.88916015625,0.02554146073090271,0.15901586752143224,1.052006936966,0.73643521205,1.5213248692,0.033140710097753996,0.18113338454513694,950.9859746570378,950.96219726945,951.01637998893,0.00019952710108803677,0.054182719479968,0.0140546017402542,7.59612066602594e-05,-0.75632800275767,0.49,0.51,-0.0034015877251956433,Stairs down
-0.9895312499971999,-1.34033203125,-0.662109375,0.04692624829054242,0.2155388266824263,0.19184570312080004,-0.02795410156,0.36181640625,0.010790174657578993,0.10335508168930642,0.2962646484340001,0.11340332031,0.4697265625,0.006073012496489111,0.07753890875892064,1.057949323866,0.71155439587,1.4320116434,0.048125636018963476,0.21827592551349734,951.1115672239507,951.05853713275,951.18065292422,0.0012216807383457454,0.12211579147003704,0.0347773479575756,-0.0007149212424798825,-0.8163405265924921,0.52,0.48,0.47573578051263504,Stairs up
-0.8932080078083999,-1.38439941406,-0.49291992187,0.057034879838727744,0.2376226652496358,0.35051269530959994,-0.10229492187,0.63305664062,0.03331882664566915,0.1816194878839065,0.285952148434,0.08020019531,0.57751464843,0.01769810628397814,0.13236738730192704,1.0272030645192,0.63667888165,1.57191088447,0.05482170188225491,0.23296670333640462,951.0398102392489,950.98881448025,951.07209133314,0.0005432962795705225,0.08327685288998055,0.02319188040618564,-0.0006937988232331213,-0.4450257270758704,0.4,0.6,-0.7984206617360152,Stairs up
-1.0508837890584,-1.57397460937,-0.4775390625,0.08271059445636288,0.2861529110664423,0.17348632812320003,-0.12390136718,0.49743652343,0.03422552648192032,0.18407409165089234,0.28591796874720005,-0.04174804687,0.70239257812,0.032262395462930714,0.17871701516168348,1.1252997666967999,0.55547301321,1.61592058875,0.0985962578955758,0.3124264638544885,950.9650218719559,950.91216952891,951.01986926856,0.0008458898892032566,0.1076997396500019,0.028938399926589305,-0.0008688327322661897,-0.5772677090082179,0.4,0.6,-0.05131242172891418,Stairs up
-1.0270312499948,-1.56872558593,-0.57946777343,0.07189597394717591,0.2667902063564256,0.17231933593279997,0.01599121093,0.49194335937,0.015211916788733404,0.1227183670884113,0.2576025390592001,0.07165527343,0.62719726562,0.014084688966941171,0.11808404666707421,1.0833238337567999,0.64275901358,1.62826928599,0.07821852046117546,0.27827384939401634,950.8828793907714,950.81090918818,950.94223653082,0.00105459278390948,0.1313273426400201,0.032311713914157894,-0.0009454451190122338,-0.5020299034848881,0.4,0.6,-0.0941607058731822,Stairs up
-0.9708447265588,-1.26403808593,-0.66125488281,0.04141822448892859,0.2024945486773392,0.1491894531216,0.04223632812,0.36877441406,0.005939854130648119,0.07668412866650855,0.29276367186999996,0.07824707031,0.48132324218,0.01171928911498222,0.10771302717792494,1.0326888702451997,0.73129471576,1.34630181071,0.04297761101714896,0.20627126534487897,950.7825465119005,950.73015032741,950.84576375517,0.001385376419304752,0.11561342775996764,0.0370340742440216,-0.0006934698431864321,-1.3566329426374089,0.56,0.44,0.1560017381685945,Stairs up
-0.9873291015592,-1.30114746093,-0.67663574218,0.033649444579747716,0.18251835560827911,0.15317382812119998,0.04577636718,0.34790039062,0.006874556493273715,0.08249733891672494,0.24115234374560005,0.05847167968,0.39831542968,0.00782518449455517,0.08801666120462431,1.0333565749592,0.71012550136,1.34353943217,0.03684374949535225,0.19098510936824034,950.7050584943115,950.63695570811,950.82071262197,0.0014055768420556934,0.18375691385995196,0.037303097373209325,-0.0008613415769504948,1.8358161179997659,0.56,0.44,0.9879165676512307,Stairs up
-0.9788378906207998,-1.26257324218,-0.67041015625,0.036585923252186466,0.19031569567343784,0.1414306640592,-0.00708007812,0.27270507812,0.004115863279792821,0.06383341324882207,0.2756005859336001,0.15808105468,0.42858886718,0.004711309490936565,0.06829492218333073,1.0306175659463996,0.72680711217,1.31231363994,0.03724073701514482,0.19201127478612648,950.621721368515,950.55945288728,950.67194765135,0.0007791273383162147,0.11249476406999293,0.02777293763599833,-0.0005180972698870802,-0.5064524212805663,0.48,0.52,-0.16964019454104518,Stairs up
-0.9767089843712,-1.21875,-0.7529296875,0.01384007087875926,0.11705413350228888,0.19257324218480001,0.01672363281,0.38342285156,0.010294928791580237,0.1009553342011428,0.28741699218280004,0.17810058593,0.44653320312,0.007408979107661367,0.08564396836079441,1.0431595535868001,0.78254494158,1.29459959366,0.016868793840115304,0.12922888957858514,950.5939519340996,950.5367905053,950.66713767172,0.0015283563895074034,0.13034716641993782,0.038898236793103225,-1.2722958054014468e-05,-0.8348052776503314,0.48,0.52,0.3461597622449622,Stairs up
-0.8784521484332001,-1.09741210937,-0.67980957031,0.014740857837013443,0.12080334953403944,0.16870117187199996,-0.05505371093,0.37145996093,0.010376448582782314,0.10135425051251916,0.5114306640584,0.18481445312,0.95068359375,0.049945248353886175,0.22236410652429342,1.0604904289632,0.87300375164,1.26062647069,0.011486430225464386,0.10663754462294103,950.6268329802994,950.45362795563,950.79638927188,0.009266891478538835,0.3427613162499483,0.09578216203319619,-0.0007909397075723261,-0.7592430846631202,0.56,0.44,-0.13675546806416045,Stairs up
-0.11836425780960001,-0.60388183593,0.15551757812,0.029164196119509732,0.16991925776178118,-0.5835107421835999,-0.75610351562,-0.30139160156,0.012231412945369115,0.11004135048205935,0.7649365234336,0.41650390625,0.98754882812,0.01918313223909269,0.13780892901659805,0.9960315323551999,0.82372063685,1.18023353217,0.0075928374749723755,0.08670011015115639,950.5973042310159,950.3634293115,951.0437977728,0.03086068877628065,0.6803684612999632,0.17479153837791417,-0.0006904932849694526,0.9690165688794035,0.68,0.32,1.105947639941825,Stairs up
-0.9064794921831999,-1.28234863281,-0.12426757812,0.10943500480311802,0.3291514161523338,0.11646484374800004,-0.44873046875,0.47692871093,0.05147646764215298,0.22574698882982128,0.5445898437464,0.00549316406,1.00634765625,0.07446633387096824,0.2715173484922438,1.1499998361508,0.81345981063,1.61106247995,0.04279962888817542,0.20584370915647063,950.5673381048152,950.48437203912,950.68612093722,0.0027623212778677022,0.2017488981000497,0.05229434066023804,-0.00013229458317423422,0.1328151651791334,0.6,0.4,0.5920991469930944,Stairs up
-1.0197119140584,-1.38122558593,-0.68286132812,0.045703867614017846,0.21271302014187488,0.12711914062159999,-0.00524902343,0.33410644531,0.008649626018963049,0.09253718041292061,0.2761865234332001,0.12060546875,0.41223144531,0.006000854896849781,0.07707688595085613,1.0707386747400003,0.7169483243,1.43972524713,0.04597995431396843,0.2133545283579159,950.5873641107828,950.53060905724,950.68464242019,0.0016405504993449009,0.154033362950031,0.0403006823062768,-0.0001236371799434576,0.4103199016887751,0.64,0.36,1.0172383071695832,Stairs up
-0.9762402343707999,-1.26391601562,-0.67126464843,0.03442310068369437,0.1846046307026382,0.17793457030760002,0.03991699218,0.39624023437,0.009385532658529101,0.0963933469278031,0.2931054687464,0.13928222656,0.41528320312,0.006274881170263236,0.07881708164199308,1.0409600887563997,0.69737122107,1.33289953218,0.03697100536386689,0.19131465001465053,950.5325965677874,950.47495612464,950.61267701378,0.0014332953431442593,0.13772088913992775,0.03766911718786115,-0.0008374747607307588,-0.38562923136400196,0.64,0.36,0.6394479728102825,Stairs up
-0.9717578124956,-1.36462402343,-0.73364257812,0.03655781033044247,0.1902425615553419,0.18621093749679993,-0.02722167968,0.36389160156,0.009526235984638622,0.09711320005432957,0.30994140624680006,0.04992675781,0.53466796875,0.012648524033899697,0.11190191595125036,1.050820972264,0.78199939072,1.41141131863,0.029264609690441673,0.1702115260302229,950.4738129661903,950.43355094828,950.5230784105,0.0004450509577489224,0.0895274622200759,0.020990484705490562,-0.00042126513406545393,-0.0786722321421025,0.4,0.6,-0.08683565816099754,Stairs up
-0.9835742187468,-1.2236328125,-0.68200683593,0.021879983767131225,0.14717738932818422,0.14634765624760004,0.046875,0.26342773437,0.003371156008519624,0.05777061924918607,0.3023193359344,0.1748046875,0.40380859375,0.004701713118899632,0.06822533244851677,1.0425736543616,0.71502485222,1.27962083864,0.02315794014882072,0.1514145328141672,950.409863615551,950.3817052024,950.45335061372,0.0004799476258808244,0.07164541131999158,0.021797893238155293,-0.0006223068099896509,-1.1732699442408805,0.48,0.52,0.33185026743013496,Stairs up
-0.9736035156219998,-1.3701171875,-0.63647460937,0.03688426364564677,0.19109008610911846,0.16332519530920003,-0.08020019531,0.50244140625,0.02152939936084401,0.1459935113874434,0.265791015622,0.13195800781,0.45141601562,0.007249134815058565,0.08471507225345427,1.034031369432,0.68319578303,1.43004524987,0.04142331910251506,0.20250700212953107,950.3411154999858,950.28900231744,950.42081559596,0.0008382269121681806,0.13181327851998503,0.02880702419630495,-0.0006882829125388665,1.0252830067366023,0.56,0.44,0.6635567703699989,Stairs up
-1.0064062499956,-1.23962402343,-0.77868652343,0.019745988219655248,0.1398160517875494,0.12513671874719998,-0.03833007812,0.26538085937,0.004915426860994475,0.06975867395804289,0.2614257812464001,0.14636230468,0.40026855468,0.00388701756786709,0.062033437694427505,1.0502129434127996,0.79670558325,1.29185748677,0.022395857900474218,0.14890231469480075,950.2766271942833,950.2247426995,950.31803896802,0.0005344260840785067,0.09329626852002093,0.023001778697259948,-0.0006731867311758792,-0.4924399330544347,0.48,0.52,-0.11745983657506712,Stairs up
-0.9701464843712,-1.25451660156,-0.72021484375,0.0264033345021101,0.1616765324872135,0.14756835937119997,0.046875,0.3203125,0.005652148699480681,0.0748039251141668,0.3044482421844,0.1435546875,0.48693847656,0.005851275367020432,0.07611020045532811,1.0323208808596,0.74220607132,1.35030391835,0.027768327192540902,0.16580302747723122,950.2028524140097,950.16369597516,950.2509873804,0.0005815742553909208,0.08729140524008017,0.023994968490019142,-0.0006255546558597794,-1.1678705791420532,0.6,0.4,0.21665859997808784,Stairs up
-0.9583935546836,-1.15734863281,-0.68518066406,0.01874525821580399,0.13622703708752515,0.153554687496,0.01110839843,0.34509277343,0.008061502822847537,0.08933581473641498,0.29165039062080006,0.14453125,0.42895507812,0.006811091394119524,0.08211565307648919,1.0202061765372,0.74710695264,1.24046368018,0.01981639325822948,0.1400650896035382,950.1393638986046,950.09545390077,950.21960704993,0.0006041078282539848,0.12415314915995168,0.024455403287851233,-0.0006141301197273054,2.6363832008469235,0.44,0.56,0.9444043015228065,Stairs up
-0.9820556640588001,-1.322265625,-0.70043945312,0.03740856502982123,0.19244344462600696,0.07677246093599999,-0.13366699218,0.26403808593,0.008701101601093348,0.09281212520507444,0.266499023434,0.12353515625,0.4248046875,0.006322261877751305,0.07911409014185648,1.0266933498508002,0.71836065029,1.38905014916,0.03955297187326232,0.197882394756405,950.0697493848711,950.01166359203,950.11089517623,0.0008698289034096334,0.0992315841999698,0.02934502708084518,-0.0007664597226008025,-0.9208434659889209,0.48,0.52,-0.3831463288313652,Stairs up
-1.0151599121059,-1.25305175781,-0.7294921875,0.013536329129275205,0.1157625407374184,0.1450524902318,-0.1357421875,0.33972167968,0.018828707166766954,0.13652992380829662,0.25576293944850004,0.06774902343,0.54333496093,0.011787849030852426,0.10802763785505957,1.0702792962929,0.76274830613,1.31136686934,0.01537185622771524,0.12336181607547,950.0171917462658,949.97692912795,950.06133521302,0.0009735224036838715,0.08440608506998615,0.031044921962327957,-0.0004177490036872732,-1.626779805123925,0.52,0.48,-0.01044451517042719,Stairs up
-1.0614160156204,-1.49499511718,-0.85095214843,0.02194735055008462,0.14740378911202986,0.1347167968736,-0.138671875,0.34338378906,0.021243686626987238,0.14502154929774183,0.28883300780840004,0.00146484375,0.60571289062,0.0348605872643418,0.18577400623256846,1.1315554587428003,0.88707645276,1.55210260938,0.025283264611589532,0.1582100880648059,950.0066128080352,949.97251851939,950.05480677337,0.0005144815411369725,0.08228825398009576,0.022568489664255398,-0.0001311221348760403,-0.47579554042992944,0.44,0.56,0.38815208964133624,Stairs up
-1.0383300781215998,-1.279296875,-0.85913085937,0.01627826329439145,0.12694676309952743,0.16648925781039994,-0.02465820312,0.34619140625,0.015301908290647774,0.12308082388309438,0.2417675781224,-0.00170898437,0.44580078125,0.016892795707180976,0.1293207939587024,1.0958438884136001,0.93601338615,1.27953563529,0.01152928865734902,0.10683630361808448,950.0133405686075,949.97835429982,950.09292633598,0.0008245726539647928,0.11457203615998424,0.028571435515653477,-4.613750330059328e-05,0.11829002233617425,0.6,0.4,0.8098040273442226,Stairs up
-1.1040917968708,-1.58374023437,-0.94714355468,0.02055760407694315,0.14266053426289177,0.1766406249976,-0.10131835937,0.5029296875,0.0263472187151546,0.16150463314717337,0.33476074218519986,-0.09606933593,0.69189453125,0.04277692043382216,0.2057890940489411,1.1969654066351998,0.99501698956,1.61833176235,0.018529395896112376,0.1354403999445928,950.0018814354061,949.95362133806,950.06949301436,0.0014028872583481732,0.11587167630000295,0.03726739038039411,4.088831183615349e-05,-1.1197327049930057,0.56,0.44,0.40006512517675163,Stairs up
-1.0505078124968,-1.322265625,-0.83349609375,0.014079371221381769,0.1180617529480566,0.13794433593480002,-0.05383300781,0.3916015625,0.014555117674306688,0.12003985378849652,0.3231298828092,-0.09521484375,0.53112792968,0.028467196309812672,0.16787651517325033,1.1267547159816003,0.89499289248,1.35721329108,0.014103740870018118,0.11816388391263186,950.0197483230979,949.9793511233,950.13111465894,0.0015976891234058134,0.15176353563992961,0.03977074593431402,0.0004034457146692377,2.1963153142467915,0.72,0.28,1.681281002089926,Stairs up
-1.0204687499956,-1.32006835937,-0.67687988281,0.03625728713130198,0.18945900416709932,0.18064453124720006,-0.00952148437,0.47973632812,0.01590071625151605,0.12546596785184774,0.34708984374559987,0.14233398437,0.47937011718,0.009517993445421449,0.09707117755012161,1.1052472564364,0.77142269032,1.37696025657,0.034290924264811756,0.1842498711591507,950.0568997325594,950.01197501579,950.12925737135,0.0013851881020550255,0.11728235556006439,0.03703155709708242,0.00033854734160862824,-0.3459825996839423,0.64,0.36,0.9361171715253271,Stairs up
-0.9590478515591999,-1.16955566406,-0.76831054687,0.013322379998609317,0.11484405164667096,0.23950195312119996,-0.00573730468,0.541015625,0.017309287581699567,0.1309052890676407,0.315913085934,0.09057617187,0.70166015625,0.020090546848874916,0.14103063986377629,1.0522736501212,0.82993283066,1.38087600417,0.020070911655401327,0.14096170593053745,950.023833486076,949.97952744845,950.07371448066,0.0006148116911631106,0.09418703221001579,0.024671108087223798,-0.0005467276876607025,-0.5255204320354068,0.4,0.6,0.0803518624535359,Stairs up
-0.9660498046835998,-1.22229003906,-0.79321289062,0.015286355692754975,0.12301825935944397,0.18715332030919998,-0.2236328125,0.40808105468,0.022529761814816238,0.14934679171869772,0.3711376953087999,-0.02905273437,0.67004394531,0.029856912872575844,0.17192540168296855,1.0790214026516,0.93291761742,1.3189856391,0.008819082838716687,0.0934392423467224,950.029548655563,949.98190527199,950.11063950438,0.0014950938032022324,0.12873423239000203,0.03847262488016915,0.0009189044711190236,-0.7552708567700845,0.6,0.4,0.6475621610206092,Stairs up
-0.9479296874959999,-1.29296875,-0.6552734375,0.03839507738762714,0.19496442396947927,0.1840332031224,-0.06555175781,0.47619628906,0.02702282655002604,0.16356221533265491,0.3788330078083999,-0.17053222656,0.62927246093,0.03677785516924835,0.19081424636948854,1.0659846414315999,0.71020329469,1.43710381293,0.04121606651018777,0.20199976694314747,950.0249085194897,949.7887167145,950.38586024478,0.021787657608354924,0.5971435302800501,0.14686654156843,-0.004530108475696527,-0.5302002879312466,0.52,0.48,0.29444220817978944,Stairs up
-0.872812499996,-1.18054199218,-0.59228515625,0.029986818535013764,0.17229901436068526,0.06889648437359999,-0.19897460937,0.47644042968,0.023346904551319315,0.15203103467978543,0.5480224609332,0.23461914062,0.84057617187,0.033649803411789296,0.18251932877827323,1.0599185151551997,0.74540494909,1.36084630969,0.029862056428375455,0.1719402101432114,949.9028839556942,949.52583177045,950.35358593893,0.07374128109758676,0.8277541684799417,0.27019228021283453,-0.003572713212999481,-1.1262248328942173,0.56,0.44,0.4404785876265955,Stairs up
-0.8917565917926998,-1.19360351562,-0.60815429687,0.033875756147867496,0.18313109672141656,0.14152221679289997,-0.02709960937,0.35693359375,0.006593632991464679,0.0807941622987084,0.4351879882784999,0.24133300781,0.61376953125,0.011085856388318637,0.10476162381538122,1.0108209238438,0.71711292627,1.3398797667,0.03427039897425283,0.18419472029488335,949.8282708468635,949.78546221436,949.88004768352,0.000439387730391013,0.09458546916005162,0.020856506253136044,0.0002134517597680253,0.4236018538604034,0.44,0.56,-0.2435965898615574,Stairs up
-0.3821826171856001,-1.13513183593,0.72839355468,0.37248603825169413,0.6072570937166376,0.5237890624967999,0.14111328125,1.36987304687,0.10323583636625072,0.31969278691047787,0.20382324218559997,-0.57067871093,0.64880371093,0.13742765575659427,0.3688541435296997,0.9985870205924001,0.4157459119,1.58826079048,0.07252974374107066,0.2679635167399845,949.7776811202764,949.66304437713,949.94056003496,0.0027053132274043423,0.2775156578300084,0.051751909096479705,-0.0008116562657555284,2.2635680140186505,0.52,0.48,0.6698748173257311,Stairs up
-0.8133251953092,-1.21240234375,0.02868652343,0.09887657777161318,0.31287027981880455,0.3771728515595999,-0.037109375,1.20361328125,0.13721791421486576,0.36857256418881357,0.4069433593712,0.19519042968,0.64770507812,0.01959093378049659,0.13926602041665304,1.0902680176223998,0.74517080131,1.41657794179,0.03414581037749562,0.18385959935157223,949.704691808993,949.65139115742,949.74344212268,0.00045626588918490097,0.09205096526000034,0.0212533110430599,0.000504309350648043,1.3032002533512088,0.28,0.72,-1.2340653495234153,Stairs up
-0.9334667968719998,-1.20568847656,-0.60217285156,0.0179941828562516,0.13347000047834376,0.2350195312476,-0.04528808593,0.58251953125,0.03575248853103206,0.18813549278570948,0.36273925780839994,0.11987304687,0.58850097656,0.013770429871482793,0.11675926332744638,1.052495221004,0.69456198187,1.32696739123,0.01744439403429893,0.13141518212883907,949.7661627925112,949.59108029331,949.97098617558,0.010641538143870635,0.379905882270009,0.10264074611201893,-0.0008914837000839198,-0.8020620154422358,0.64,0.36,0.5243347153627023,Stairs up
-0.8568408203092,-1.11059570312,-0.62365722656,0.020646108858662988,0.14296729615571652,0.18101562499720003,-0.09118652343,0.65844726562,0.0439987523619261,0.2087073665166298,0.4762255859335998,0.27258300781,0.703125,0.012543982062623605,0.11143851327973363,1.0159702236224,0.68333401786,1.35156958363,0.03833850111460958,0.19482072811552545,949.6374937172493,949.57175991099,949.74651348424,0.0025901189147662295,0.17475357325008645,0.05063810547027374,-6.873109898532805e-05,-0.674650407474827,0.6,0.4,0.6908284298780467,Stairs up
-1.0106933593707998,-1.28210449218,-0.76708984375,0.02072762238853677,0.14324924490080707,0.15561035155920003,-0.06530761718,0.39025878906,0.012431730260551244,0.11093878022560791,0.3090771484340001,0.0361328125,0.474609375,0.011946148920573847,0.10875057439557784,1.0799182445576,0.83975393125,1.34003962539,0.019874104544967918,0.14026889712091645,949.6728243785931,949.57289018765,949.77046229337,0.0021106201209984262,0.197572105719928,0.045711201250770495,0.0012339256878005527,0.14094241624199322,0.6,0.4,0.2673263660685614,Stairs up
-1.0530712890584,-1.35778808593,-0.83569335937,0.025025498120450424,0.1574015347423459,0.1550830078096,-0.03637695312,0.34875488281,0.012922610995693916,0.1131078462607125,0.2876513671832,0.08569335937,0.43615722656,0.006765416270640335,0.08183985647552133,1.1128933714779998,0.912652036,1.41647698088,0.021704971764204318,0.14658759172099894,949.7132883945903,949.68030657623,949.74845212802,0.0003446383698208718,0.06814555178993942,0.018471382896866794,6.398061855147582e-05,-0.9545638657112883,0.56,0.44,0.29595704642312787,Stairs up
-1.0310839843707997,-1.31311035156,-0.82263183593,0.016295422062655333,0.12701365218758484,0.1448876953088,0.00500488281,0.37084960937,0.009533304060253833,0.09714922037593145,0.21835937499719996,-0.01232910156,0.35888671875,0.0122279494698883,0.11002576959598791,1.0750272944392003,0.88684683559,1.33423955551,0.013939261389779153,0.11747284271643962,949.7274360641474,949.67840811586,949.81569518918,0.0014987593876096663,0.13728707332006707,0.0385197584848811,-0.0002616163097299602,-0.06867038853334817,0.56,0.44,0.8455139102168165,Stairs up
-1.037261962887,-1.21447753906,-0.87280273437,0.012065094641709854,0.10929063864436311,0.12248291015289997,-0.01379394531,0.29858398437,0.008604490630602694,0.09229542634549487,0.261005859371,0.06774902343,0.38940429687,0.009001744732647926,0.09440194534712432,1.0856970160547998,0.93455420054,1.27029701026,0.00968433494784775,0.09791573723548871,949.7270888900355,949.68667689054,949.80601981776,0.0010938304395249451,0.11934292722003192,0.0329073264658449,0.000335356876721187,0.3468705017355007,0.64,0.36,1.1914839865165268,Stairs up
-1.0055407714814,-1.22033691406,-0.77075195312,0.01904964022428396,0.1373285979759537,0.15057006835659997,0.03393554687,0.36584472656,0.009002834394336611,0.09440765885452962,0.26069702148039997,-0.00659179687,0.39294433593,0.009133305108475952,0.09508928466126555,1.0570518029918,0.83591722303,1.27277124563,0.016807971278776798,0.12899570367259922,949.7173340405766,949.67484057723,949.79935610453,0.0011794286498970656,0.12451552729999094,0.034170665246642404,-0.00015520027096604035,0.4822968564235155,0.76,0.24,1.1865330386378534,Stairs up
-1.0070263671844,-1.16918945312,-0.78210449218,0.014343101665181856,0.11916237094204712,0.1712792968716,-0.01391601562,0.30993652343,0.006286078414415667,0.07888737307244748,0.2296289062476,0.02685546875,0.38757324218,0.00941761493677527,0.09655795558837975,1.0552247559508001,0.83542276738,1.21915767649,0.012540583657445082,0.11142341684255887,949.7316530736865,949.6870293484,949.82044870251,0.0014005451968308997,0.13341935411006034,0.037236269212457235,-8.578217071556938e-05,0.12915546596693828,0.64,0.36,0.9931051815579971,Stairs up
-0.9814746093712,-1.4140625,-0.71057128906,0.03203349556578201,0.17808189298781665,0.15754394531,-0.20251464843,0.4990234375,0.0275692145020097,0.16520751301617492,0.35824218749679987,0.17395019531,0.70141601562,0.016737741075287794,0.12872592460159266,1.075051897202,0.80435082883,1.49806502827,0.036657003436425785,0.19050048136963205,949.7363415935226,949.5388436233,949.95772274523,0.014780386909320625,0.4188791219299901,0.12096521417427168,-0.0013099348045392156,-0.4191340221840645,0.6,0.4,0.4009189134481844,Stairs up
-0.9767822265587998,-1.30322265625,-0.69055175781,0.036610015714893994,0.19037834844788695,0.17452148437280002,-0.0634765625,0.41076660156,0.014671114622755456,0.12051723311015691,0.2579248046836,0.09350585937,0.39477539062,0.005867048851025389,0.07621271785283042,1.0334067569648,0.73033880414,1.35654917594,0.04013499349223212,0.19933299665963436,949.622081629966,949.54098820905,949.67997485568,0.0013196000050935688,0.13898664662997362,0.03614421122451883,0.0008267699700727975,0.014358739187463332,0.56,0.44,-0.2956473566019843,Stairs up
-0.9894238281204,-1.392578125,-0.63488769531,0.04839714474129365,0.21889077937154117,0.15586914062,0.03454589843,0.33825683593,0.006343973188714364,0.079249816762105,0.31166503905839993,0.03771972656,0.56896972656,0.014015580283206394,0.11779399169895861,1.0588326234564,0.69187155115,1.40223696097,0.047810509048023045,0.21756011573250922,949.6335734293525,949.60376203315,949.67898570477,0.0004635905429621921,0.0752236716199377,0.021423226590142067,-0.00038235132515877497,-0.048733767649172144,0.64,0.36,0.9030551754980137,Stairs up
-0.8459472656211999,-1.18286132812,-0.36987304687,0.04470504052727002,0.21037583065076018,0.3157373046840001,-0.00012207031,0.85668945312,0.04286876124565997,0.20600988722195684,0.47212402343399984,0.31311035156,0.97204589843,0.020022428252318092,0.14079134905879306,1.0538167428612,0.72500234677,1.45935400145,0.03455399542998989,0.1849552796642745,949.7025304851818,948.81612725715,950.95782966469,0.23830986170098184,2.1417024075400377,0.4857229283078698,0.0035027908197685777,1.705561649775416,0.72,0.28,1.0618269703284853,Stairs up
-0.7687365722620999,-1.0703125,-0.42211914062,0.025498169388202038,0.15888104888349655,0.6195446777303,0.37768554687,0.80639648437,0.015248605005280762,0.12286626451238743,0.18117187499649998,-0.10974121093,0.86083984375,0.0404540651736528,0.2001237730053985,1.0288856236576,0.78756418647,1.35051850697,0.028051651130232048,0.16664673599842791,949.4198433414163,948.94858206888,949.92208400942,0.053168870885749,0.973501940540018,0.229427945501178,0.001793620266333972,0.368381819439521,0.48,0.52,0.4180252560717644,Stairs up
-0.7974560546835999,-1.09130859375,-0.55847167968,0.023834396227741347,0.15361006563849888,0.5972924804638999,0.39782714843,0.88598632812,0.017703680673042104,0.13238823160051533,0.226340332027,0.04772949218,0.50329589843,0.008403357947748593,0.09121033038132856,1.0283516060855,0.689817489,1.42730917385,0.036221623270276546,0.18936580218606996,949.367643450074,948.84938360421,949.97788674178,0.10923151713242651,1.1285031375700783,0.3288452553422388,-0.005898708356907276,-1.1998379448912813,0.48,0.52,0.21708139622015687,Stairs up
-0.7596813964806999,-0.97424316406,-0.56518554687,0.015247936710856017,0.12286357207792493,0.6200708007775998,0.380859375,0.83190917968,0.019150124890525633,0.13769031789352648,0.18990234374690002,-0.05212402343,0.42492675781,0.011949456364049026,0.1087656278445012,1.0073036796286998,0.70074276557,1.27493876913,0.029181678877872427,0.169970179999592,949.2783305289408,949.01360565097,949.41275358218,0.010737366712582984,0.3991479312099955,0.10310185762369732,4.9106278428831606e-05,-0.00887197532399453,0.44,0.56,-0.7742688455725067,Stairs up
-0.7879882812462998,-1.07275390625,-0.58532714843,0.01576030194172013,0.12491076383684045,0.6197570800747001,0.43835449218,0.90979003906,0.015234044517728501,0.12280758963741295,0.19389526366810003,-0.02526855468,0.55004882812,0.01715588355727024,0.13032392229248452,1.031080077993,0.74671257279,1.37415283287,0.02743671054536332,0.16481002226779076,949.1146901145017,948.88404788124,949.5767293377,0.04116603961607964,0.6926814564600363,0.20187713892345227,-0.0015721305108560863,-0.2698076738488995,0.56,0.44,0.8057521148139222,Stairs up
0.2692810058576,-0.13549804687,0.57263183593,0.06540233570223039,0.2544568968316797,0.0975146484354,-0.10693359375,0.3125,0.01233685218883665,0.11051463100851526,0.9163391113243,0.6962890625,1.21118164062,0.02983091256061095,0.17185052643214346,1.0076372803111002,0.84060652935,1.21221959937,0.012990145952703215,0.11340301800735368,949.1201090442723,949.10787340895,949.16093376814,0.00012616725725363482,0.05306035918999896,0.01117611670845909,-6.167963797704579e-05,4.565506350379552,0.64,0.36,1.8475606925726138,Lift up
0.21875122069919997,0.05993652343,0.54064941406,0.01900215687638331,0.1371573377826337,0.12378662109230001,-0.02258300781,0.65795898437,0.031995266922303825,0.17797560016215924,0.9822961425733999,0.15600585937,1.15246582031,0.03446641066332545,0.18472072584496899,1.0522326405877,0.85953601715,1.16804853058,0.005552123265422291,0.07413907224107992,949.1414082077498,949.12492788556,949.20909182592,0.00038129840896598295,0.08416394035998565,0.019428984144219254,0.00032635392966029946,4.895282154332926,0.67,0.33,2.2338282893585943,Lift up
0.5760424804655999,0.51293945312,0.65234375,0.0020908670654806363,0.04549679543468781,0.8312402343710003,0.65795898437,0.95483398437,0.00549658154000986,0.07376730796640041,-0.1212951660162,-0.48620605468,0.15600585937,0.0444810963551122,0.20984824371807612,1.0421463300253,0.86477524952,1.10125951455,0.003006737539289258,0.054558868792308785,949.0275184361926,948.92497269649,949.20909182592,0.007729386872487236,0.28411912942999606,0.08747624251053747,-0.0028214642188329887,-0.8512662805879407,0.61,0.39,0.772001595774273,Lift up
0.4831249999961,0.37390136718,0.56628417968,0.0028210369987844543,0.05284720076594984,0.5984020996059999,0.14758300781,0.93188476562,0.09979022509330093,0.3143124605267312,0.40412475585699986,-0.048828125,0.96520996093,0.156456925678743,0.3935636624765497,1.0036867624913004,0.87517070808,1.14208865644,0.0039414600238535,0.06246635433267228,948.8222347888224,948.65356968512,948.92697114423,0.006715777497727123,0.2734014591100049,0.08153906868949296,-0.0022865660649937425,-0.6583862271541445,0.45,0.55,-0.6444708209528998,Lift up
0.43412231444899996,0.38293457031,0.47448730468,0.00043176612917080566,0.020674826912917495,0.06344726562200001,-0.0166015625,0.19494628906,0.004240962326978398,0.06479623988865878,0.9080456542931,0.81103515625,0.94653320312,0.000568632915413116,0.023726495448316526,1.0107860446326,0.9457864519,1.07137158475,0.0005405751846414996,0.023133729331758956,948.5578298905707,948.46647446236,948.65356968512,0.002512290077638215,0.18709522276003554,0.049871506663242415,-0.0017102398911123258,-1.025314327991046,0.49,0.51,-0.19019025354948693,Lift up
0.3934643554645,0.38415527343,0.404296875,3.053642885158777e-05,0.005498278327174052,0.0182897949183,0.00793457031,0.04309082031,6.267038710166585e-05,0.007876781273505645,0.8760058593715999,0.85705566406,0.90222167968,0.00011191257321410291,0.010525846639675209,0.9605309264103002,0.9398513394,0.9836601659,0.00011958472306381462,0.010880665229349558,948.35525825456,948.28425030025,948.46647446236,0.0028846979987574616,0.18222416210994652,0.05344016297476915,-0.0018282899920532933,-1.0950399896942602,0.53,0.47,0.34407905570315317,Lift up
0.4063085937474999,0.37255859375,0.43408203125,0.00031770313629356304,0.017734883843167043,-0.027752685544299993,-0.07116699218,0.01281738281,0.0005985454401303558,0.02434255503699339,0.9139868164016,0.88659667968,0.93811035156,0.00018320384052157427,0.01346743487514822,1.0010764607736997,0.97072444715,1.01933645528,0.00016481115413545262,0.012773528979655469,948.2655935455556,948.23864168677,948.29224879662,0.0002570395038737683,0.05360710984996331,0.015952087914596968,-0.0004733876748994355,-0.9690013054235624,0.53,0.47,-0.1066500825368078,Lift up
0.2940039062463,0.17883300781,0.44543457031,0.0058298575998617565,0.07597077743358388,0.7856787109342999,0.58569335937,1.15808105468,0.019960041021752594,0.14057183434648304,0.6214465331992,0.40734863281,0.83605957031,0.013375793411002009,0.11507404345416906,1.0484220618864002,0.77831759386,1.47884186404,0.02980842686374024,0.17178574619304954,948.3053198258615,948.27799132246,948.33742232847,0.0002214346509647342,0.059431006009958764,0.014806090113702769,0.0003790674753445081,0.23530719671302824,0.51,0.49,0.2773651204726355,Stairs down
0.22147094726139996,0.03735351562,0.38659667968,0.008561159111928002,0.09206273687442017,0.3850964355425999,0.12951660156,0.77758789062,0.020293880380368216,0.14174251859115716,0.905317382809,0.70141601562,1.16711425781,0.02082429014071044,0.14358289326832543,1.0230959311881995,0.79854611406,1.29830285256,0.019601475443090155,0.13930348412247,948.3733429540548,948.32076029584,948.41817249392,0.0008150144527435404,0.09741219807995094,0.028405357033772786,0.000973420304657059,-1.3163885480737774,0.51,0.49,-0.028633394030168336,Stairs down
0.3597216796840999,0.22924804687,0.48522949218,0.006404401292933759,0.0796263604593631,0.3825366210903,0.19738769531,0.57983398437,0.012845500737549012,0.11276987953426891,0.8487744140592,0.55773925781,1.20629882812,0.049190213800525066,0.22067693958028287,1.0010394076867,0.66039987165,1.40034876911,0.0624523012153018,0.24865192177650425,948.4507191413105,948.41817249392,948.49463381171,0.0004983291663460161,0.07646131778994913,0.022211390651702925,0.0007384400355018978,-1.0018990402538293,0.51,0.49,0.36508617793112647,Stairs down
0.3295629882774999,0.23388671875,0.44738769531,0.003362972200539664,0.05770045475153785,0.40450927734039993,0.21923828125,0.60180664062,0.009802198355744127,0.09850977805368706,0.9065844726536,0.5126953125,1.20471191406,0.036744176323905545,0.1907268585193666,1.0494831872586998,0.62494554282,1.38987524737,0.04255577558245125,0.20525646841604467,948.5359604151404,948.49439614997,948.57396381165,0.0005950236059000172,0.07956766167990281,0.02427083372776916,0.0008238917556486384,-1.110812298068418,0.39,0.61,-0.17055487574440037,Stairs down
0.2873059081988,0.12646484375,0.51782226562,0.009496741190969436,0.09696274428387298,0.4372753906214,0.22985839843,0.70263671875,0.011429655046197144,0.10637367388473133,0.8504406738231001,0.56396484375,1.16247558593,0.022386014971498194,0.14886958998325756,1.0069271923262,0.70784348257,1.39331820966,0.02624313967227511,0.1611853227671563,948.6108858755582,948.57054592329,948.6362951208,0.0002851581858711824,0.06574919751005837,0.016801982145344358,0.000542372971773312,-0.5896959310848677,0.39,0.61,-0.736347339645947,Stairs down
0.278131103511,0.1640625,0.46667480468,0.006441641749482459,0.07985753146690446,0.27585937499560004,0.10510253906,0.45581054687,0.012047676943728698,0.10921172178063768,0.9174121093712999,0.53125,1.34387207031,0.057340450455047855,0.2382583596655055,1.0059610902223002,0.61191505069,1.41896155834,0.05880206096273981,0.24127585944953633,948.6554750006358,948.63112292043,948.68953335034,0.00032184122512948587,0.05841042990994083,0.017850008764092835,0.0005894586287393472,-1.3517081819742698,0.51,0.49,0.17584950229041912,Stairs down
0.2457983398398,0.05541992187,0.39965820312,0.007271140266025163,0.08484355522586799,0.3396667480427999,0.16198730468,0.45336914062,0.006144735059145544,0.07799543389554345,0.9300097656209999,0.65502929687,1.27233886718,0.015832173559377626,0.12519525479739177,1.0264893190673,0.73842567968,1.33964814073,0.01614518584117884,0.126426792978257,948.6875987545583,948.66799553358,948.69451574342,6.771808257413705e-05,0.02652020983998682,0.008187850862613198,-0.0002066370409239465,0.7359987788375215,0.32,0.68,-1.400476844658114,Stairs down
0.2364184570282,0.06018066406,0.40185546875,0.010277955405702876,0.10087207666964058,0.2755456542937,0.19262695312,0.32824707031,0.001113098635536124,0.033195898077635476,0.9407836914014,0.77502441406,1.15222167968,0.010089119726618962,0.09994112531562155,1.0137490153054998,0.88086303744,1.21785388916,0.010577125689910651,0.10232963614228062,948.6708323177407,948.66720302904,948.6773513112,9.959586642744801e-06,0.010148282160002964,0.00314006222491169,-7.93400500582593e-07,-0.7148298510821482,0.56,0.44,0.6368959957112914,Stairs down
0.16140014648099998,-0.0166015625,0.33715820312,0.008491046108034419,0.09168498048728634,0.517908935543,0.26257324218,0.71801757812,0.020411383713118438,0.14215227706930075,0.8391467285121,0.70031738281,1.03979492187,0.008186922318622072,0.09002806837556748,1.0134888930756,0.88777562314,1.18024459215,0.00808649192176479,0.08947416947112247,948.6752254967911,948.66376906097,948.68264879073,1.484596674255757e-05,0.01887972975998764,0.0038337327860887742,-4.6069486227768696e-05,1.3899199477285205,0.6,0.4,-0.6292861193713719,Stairs down
0.21535400390219997,0.03796386718,0.40014648437,0.01030097958418174,0.10098499783799533,0.5018762206996,0.34619140625,0.64343261718,0.005607228885617959,0.07450608429357819,0.8498217773411,0.65771484375,1.06555175781,0.01153584701237856,0.10686668583920236,1.0176514490331001,0.84964502194,1.21218619415,0.012130590254521118,0.10958688038253442,948.6890926928598,948.67387270111,948.70813375843,8.91726125932894e-05,0.03426105732000906,0.009395790890997761,0.0003148438132941062,-1.2000500473433804,0.51,0.49,0.02701947130596159,Stairs down
0.3103735351532,0.19311523437,0.400390625,0.0035120186118763083,0.05896523065127063,0.4257775878871,0.23217773437,0.68981933593,0.023338103370877734,0.15200237609053666,0.789051513668,0.57678222656,1.25231933593,0.02746678244397768,0.16490031722085285,0.9636268999673,0.70202153827,1.41652057983,0.025674252458882635,0.1594286985906045,948.7133683362698,948.70231499222,948.74326729228,0.00012975864295333752,0.04095230006009842,0.011334066195492425,0.0003083829097403246,1.380361524298773,0.71,0.29,1.4783487600426661,Stairs down
0.2895666503868,0.13244628906,0.45629882812,0.009252134192806747,0.09570586633471681,0.3065014648403,0.22351074218,0.39208984375,0.002138620380268383,0.046013413006054,0.9581542968704,0.72680664062,1.22436523437,0.019624584853266135,0.13938557674570734,1.0531444373847998,0.85649807287,1.32688514955,0.017619827895767038,0.1320743336792178,948.7791292653362,948.73667178268,948.79935382202,0.0003270106992706124,0.06268203933996119,0.017992792787055217,0.0005389598190346736,-0.4956207849603653,0.43,0.57,-0.8080848478328486,Stairs down
0.21829467772970004,0.11267089843,0.38708496093,0.00478753563571494,0.06884519067703851,0.2817211914024,0.16442871093,0.43591308593,0.005507959566914075,0.07384361835151995,0.9044006347607998,0.60424804687,1.23461914062,0.029162742084516195,0.1699150218893875,0.976454443399,0.67355064539,1.32447898468,0.030868968738356446,0.17481498520142053,948.820642590928,948.79522756082,948.85751719349,0.00033953962721979046,0.06228963267005838,0.01833423657935046,0.0006229401873708329,-1.113921824986283,0.51,0.49,0.254301610608854,Stairs down
0.17814331054299998,0.07275390625,0.30847167968,0.00403850709988163,0.06323070479508205,0.2898034667926,0.21496582031,0.42810058593,0.0033756176193769404,0.05780883533840801,0.977116699215,0.73901367187,1.21105957031,0.011632024766050197,0.10731125066082166,1.0385225689974,0.80085513076,1.28123313032,0.013732735122534695,0.11659934721648037,948.9004476321716,948.85751719349,948.94271220496,0.0006480438168289936,0.08519501146997754,0.025329101418342968,0.0008682658100974045,-1.2629648298917884,0.47,0.53,0.08095258645256607,Stairs down
0.1830847167943,0.09313964843,0.26904296875,0.0015034007469769,0.03857935639052486,0.28396972655979996,0.13049316406,0.46875,0.006893014089005918,0.08260801382502704,0.9432946777307998,0.62377929687,1.37829589843,0.04597440526160428,0.21334165371297806,1.0041861008154997,0.67237520449,1.45166830143,0.04990005554098847,0.22226348099851803,948.9770564818208,948.94271220496,949.00755030311,0.00036734802580615754,0.06483809814994856,0.019070252896804907,0.0006501308675673334,-1.0256800476407317,0.55,0.45,-0.1572728533186569,Stairs down
0.2141210937472,0.05029296875,0.33715820312,0.0023219861405825645,0.04794545107908298,0.3442468261686,0.21337890625,0.55139160156,0.008029933305279744,0.08916071989518112,0.9366979980438,0.62548828125,1.30053710937,0.024938113537377172,0.15712648536132728,1.0247743913308,0.71132358086,1.4297340104,0.026799433513623242,0.16288474200638625,949.0341090579026,949.00755030311,949.05284865405,0.00017638077176745774,0.04529835094001555,0.01321427122658617,0.00041962876302804793,-0.6590419201489492,0.35,0.65,-0.7705458516258339,Stairs down
0.1695898437464,0.05029296875,0.27551269531,0.004163145440999079,0.06419901857964098,0.2796362304644,0.14929199218,0.48571777343,0.006988928047075204,0.08318075959381743,0.9251293945269999,0.642578125,1.29089355468,0.026457074982692647,0.16184098440403075,0.9861460604637001,0.67111328105,1.39009878296,0.027849027807861172,0.16604378196663241,949.0527527102845,949.04379235744,949.0734975205,6.439376040253668e-05,0.02970516306004356,0.00798434861454028,0.00021844990653873493,0.2828306981882909,0.6,0.4,1.1267281708755463,Stairs down
0.13859374999830001,-0.14099121093,0.30810546875,0.011517439682922596,0.10678139016745085,0.22781249999500006,0.06518554687,0.47790527343,0.010796743547103905,0.10338653738099977,0.9888989257775997,0.62121582031,1.37634277343,0.03289580821383677,0.18046287743383238,1.0362031046573,0.67192491079,1.39088658754,0.03027158133773663,0.17311517993624725,949.0851499646953,949.07165217619,949.09900114061,4.5991858337958524e-05,0.027348964419957156,0.006747735898401695,-2.4924265770275627e-05,-0.2240483524502186,0.48,0.52,0.2958092595581975,Stairs down
0.0135058593749,-0.45593261718,0.60217285156,0.06184117044882286,0.2474323316471286,0.4905676269505,0.22607421875,1.1123046875,0.0791594469957239,0.2799425879100332,0.8799072265582999,0.4033203125,1.19201660156,0.024428800501066866,0.15551370517113983,1.0726992738944,0.83364123179,1.38478678591,0.028451640153059083,0.16783064008555915,949.0878243174004,948.99831588026,949.26691053445,0.004468149490879691,0.2685946541899966,0.06650915723395459,-3.5761118359487425e-05,2.049585579072275,0.76,0.24,1.562649659752618,Stairs down
-0.1277490234364,-0.49853515625,0.23046875,0.06277494372598985,0.2492933899820249,0.4222875976546998,-0.11071777343,1.12329101562,0.18098587964870708,0.4232918861166843,0.6447485351531,0.12658691406,1.14807128906,0.11084458851434352,0.3312644602567563,0.9660572452738001,0.70170301122,1.25273327614,0.025361183426279944,0.15845368910826008,949.0488113664247,948.98148419563,949.09097127039,0.0008276134897194744,0.10948707476006803,0.028624069501422746,8.369925973200591e-05,0.25221543215737885,0.43,0.57,-0.7887234051767522,Stairs down
-0.40995971679169996,-0.57055664062,-0.20751953125,0.0101967182708899,0.10047263850512238,0.12551879882410003,-0.04541015625,0.25476074218,0.004536614687216495,0.06701677805105472,0.9258117675733999,0.71984863281,1.18139648437,0.015774972924806303,0.12496888891063344,1.0270917581604002,0.81237244521,1.22008039535,0.014174328068303743,0.11845921149332671,949.0816676655165,949.06899787231,949.10213464072,8.140249609592037e-05,0.033136768410031436,0.00897710817217667,-2.9999307811830758e-05,-0.12622168048093085,0.55,0.45,0.7365363628955127,Stairs down
-0.4930029296827999,-0.71850585937,-0.32104492187,0.016400645742473505,0.1274230720279839,0.38308593749519987,-0.02465820312,0.89538574218,0.0756766612835039,0.2737149880270879,0.7251245117146001,0.35803222656,1.0966796875,0.05484963444150266,0.23302604596286577,1.020886364678,0.68760080032,1.22182990598,0.019051499133496907,0.13733529823815122,949.1207306409992,949.01527819867,949.31924242341,0.00624479938813759,0.303964224739957,0.07862793011555254,0.0008305475540873887,0.6996040962723153,0.68,0.32,1.2701482483324837,Stairs down
-0.5922338867151999,-0.9228515625,-0.38806152343,0.021847005498752556,0.14706643207668102,0.6398144531205998,0.42114257812,0.90979003906,0.017684818373864895,0.13231768661114904,0.4295874023398,0.25231933593,0.55969238281,0.007922981537934663,0.08856495764440536,0.9757235197744001,0.63571169262,1.41160493232,0.03999264400356801,0.19897918876991214,949.0846933475455,949.01527819867,949.13965510369,0.0012575134927688086,0.12437690501997167,0.03528368401741973,0.0011448799064513908,-0.8632833391266073,0.51,0.49,-0.44273966928607517,Stairs down
-0.6367126464810999,-0.9365234375,-0.42724609375,0.019850697594158098,0.14018627114741486,0.6609875488243998,0.47253417968,0.91796875,0.018496365467423764,0.13531962833509972,0.47728027343309987,0.287109375,0.67163085937,0.010412865600173212,0.10153195036130981,1.0395455899489003,0.7433202632,1.42369041247,0.03810231221681983,0.19421969286004864,949.1604606694732,949.10726697002,949.19434368619,0.0006505900372748607,0.08707671617003143,0.025378812755960673,0.0007016838152849232,-0.7249112359014318,0.51,0.49,-0.6224513163496667,Stairs down
-0.6377514648400999,-1.02111816406,-0.41552734375,0.02879409038054863,0.1688376423572159,0.6519885253873001,0.37292480468,0.8955078125,0.027716964211079755,0.16564961385095034,0.4724060058553,0.29626464843,0.66162109375,0.014334245575618973,0.11912557710190866,1.0294705253559,0.63206694682,1.47371134412,0.06597039101177754,0.25555955685839604,949.222004488565,949.18284576349,949.27974575598,0.0006908512258855522,0.09689999248996628,0.026152298438697444,0.0007762645633405548,-0.11947001418904213,0.59,0.41,0.5688306038693293,Stairs down
-0.6256665039023999,-0.96447753906,-0.4072265625,0.02323813493189888,0.15167647669490444,0.6466052246062,0.43078613281,0.9091796875,0.021672545507429662,0.14647805314228943,0.4500256347621,0.29284667968,0.66015625,0.014455417158447894,0.11962801923823455,1.0084523747996998,0.66118782749,1.45562665188,0.054420411030709374,0.23211248764425035,949.3019127528877,949.26545918391,949.35888056338,0.0008314923010617315,0.09342137946998719,0.0286910679140933,0.0008580141749968798,-0.9262151903818197,0.47,0.53,0.18482426797165588,Stairs down
-0.6270983886691,-0.93127441406,-0.39428710937,0.026895057882631305,0.16317508174903725,0.6892053222614,0.43054199218,0.91540527343,0.022136711549199554,0.1480383208284516,0.4266137695274,0.27990722656,0.60168457031,0.009759817575151972,0.09829658895099286,1.0253485758674001,0.66392423648,1.39613479293,0.056131294246837396,0.23573286004367108,949.3761801691423,949.33513992832,949.43316153791,0.0006151960726440979,0.09802160958997774,0.024678819094876823,0.0007641885343734776,0.26571955717053,0.47,0.53,0.5074659953764425,Stairs down
-0.6225903320273999,-0.98547363281,-0.44201660156,0.023519137176745565,0.15259077889891678,0.7121752929648,0.4599609375,0.90515136718,0.016728466213193422,0.12869025429713585,0.4016357421852,0.216796875,0.64172363281,0.012055845573502186,0.10924873966214513,1.0316954761916,0.72335758715,1.44346700326,0.04394797750174819,0.2085869068919013,949.5889153751718,949.40942671137,950.0418201773,0.03322983148894477,0.6323934659300221,0.18137677131886357,0.001668223992812804,0.543591828650341,0.64,0.36,1.21889161599214,Stairs down
-0.639604492183,-0.96704101562,-0.35217285156,0.019288909411112123,0.13818835087300593,0.6636865234331999,0.45629882812,0.92370605468,0.015185406617271998,0.12261138834178201,0.4190917968707999,0.24060058593,0.59594726562,0.008992882690115497,0.09435546546551685,1.0162703625053995,0.63928135246,1.43556840841,0.035796685900960405,0.18825174379524562,949.5099760739263,949.40353128462,949.57745029501,0.002609122322882962,0.1739190103899091,0.0508235289964612,0.0007341934705884139,-0.2561273898164913,0.51,0.49,-0.6075670648138516,Stairs down
-0.7018798828079997,-1.03039550781,-0.44555664062,0.027409835295093766,0.16472928380267676,0.6519360351521999,0.48779296875,0.93225097656,0.015823805338209523,0.12516216395072205,0.43564453124599994,0.1748046875,0.78283691406,0.017539493363233124,0.1317729047627045,1.0609267598832002,0.74024347385,1.47472405903,0.042466600252624866,0.20504129888902534,949.5695876745804,949.4827753915,949.72800821651,0.0036622917025387392,0.24523282501002086,0.06021352659920653,0.0003054294195123795,0.01739034512241444,0.4,0.6,0.15787180901328077,Stairs down
-0.6189624023397999,-0.82922363281,-0.4384765625,0.0113487846983902,0.10599668320945849,0.7108081054650001,0.53125,0.9794921875,0.015912711265344742,0.12551328277394108,0.39971435546479994,0.33508300781,0.5126953125,0.002122644348518924,0.04584122495127868,1.0335868805668,0.8879012319,1.2187585219,0.00901277121195107,0.09445974539364141,949.5902538606227,949.374031215,949.75403166784,0.006088531264716472,0.38000045284002226,0.07763791568601844,0.0009120700425824837,0.8770141669265343,0.43,0.57,-0.3797013237200637,Stairs down
-0.6276538085904,-0.83703613281,-0.46752929687,0.009451050234565096,0.09672920826833767,0.6847705078085999,0.51245117187,0.87426757812,0.011654880769397675,0.10741662795723807,0.42482666015199994,0.33740234375,0.56921386718,0.003994668186237244,0.06288657650385233,1.0283184133266001,0.8615295192,1.20175424739,0.010857047468134352,0.10367486191672988,949.592057689996,949.52185905337,949.75403166784,0.0034353553171782795,0.23217261446995963,0.05831810837129833,-0.0007992725786346049,0.7891231095850171,0.64,0.36,1.2984530270153432,Stairs down
-0.6459765624961998,-0.79711914062,-0.51147460937,0.0076093134012803435,0.08679412576475173,0.6740087890583999,0.50891113281,0.94384765625,0.013178289683136486,0.11422130618367626,0.4044506835902,0.33215332031,0.5078125,0.0032836841874640654,0.05701620248306112,1.0229866367841998,0.8454182081,1.21670449826,0.012608927112119443,0.11172662100411991,949.5629549026952,949.45309946363,949.62360562632,0.002149198485379244,0.1705061626900033,0.04612706906498018,-0.0003770322285500696,-0.4030149224859332,0.45,0.55,-0.5620747427566609,Stairs down
-0.6456762695271999,-0.779296875,-0.53796386718,0.004662747870939645,0.06794203700383326,0.6808129882770001,0.53002929687,0.84851074218,0.009305843975770943,0.09598325653994676,0.43063720702720004,0.3330078125,0.5380859375,0.0032162836646267294,0.056428014567061126,1.0370746698607998,0.90730377295,1.17626525574,0.007415888895524762,0.08568389584145619,949.5413020125416,949.45309946363,949.60363021726,0.0007882902913139191,0.15053075363005064,0.027935772557793708,4.7331285221713135e-05,2.267465335147871,0.47,0.53,-0.1812887808303043,Stairs down
-0.6267626953079999,-0.93676757812,-0.44079589843,0.012527163076899765,0.11136377977659867,0.6421606445269998,0.48742675781,0.82482910156,0.008277738991337687,0.09052602720446927,0.3952099609327999,0.26354980468,0.50415039062,0.004386201747817873,0.06589643184831553,0.9835591944926,0.71936496051,1.33546933676,0.019134531859299034,0.1376342491558916,949.5731910226662,949.5360950601,949.64473555292,0.0010236101123537505,0.10864049281997268,0.031833535952360256,0.00019985076296953838,-0.06132672626624869,0.51,0.49,0.9295972119405971,Stairs down
-0.6885839843721999,-0.97082519531,-0.42590332031,0.02012309320032048,0.1411448272814745,0.6493066406208,0.45727539062,0.94287109375,0.015501588667467968,0.12388128503044069,0.4159082031217999,0.23034667968,0.66027832031,0.01748485555578134,0.13156749978708088,1.0401397043888,0.70096848707,1.43963469727,0.039812614056589736,0.1985308235917633,949.6480404639485,949.48348046492,949.88875433126,0.009611991131245456,0.40527386633993956,0.09754932711163619,0.0008180031000983081,0.8038078630876799,0.64,0.36,0.8492412756555846,Stairs down
-0.6255664062461999,-0.95764160156,-0.41052246093,0.01977639292249371,0.13992365415921917,0.6186108398403999,0.44152832031,0.88525390625,0.01726574946547769,0.13074055212833896,0.4298632812456,0.27429199218,0.7353515625,0.015448401166996618,0.12366857788188014,0.9858524312044001,0.68908190797,1.33589235307,0.03924824481289928,0.19711865047420116,949.6180580848562,949.25672207113,949.84240830315,0.0195401835175419,0.5856862320200662,0.13908551931227953,-0.003107563685935345,1.513992682873651,0.33,0.67,-1.1698977447918244,Stairs down
-0.3936035156208,-0.68469238281,-0.14379882812,0.01651512372385036,0.1278670109395377,0.7523095703083998,0.51086425781,0.98693847656,0.023374961385905724,0.1521223578966835,0.5520385742151999,0.41320800781,0.79162597656,0.014503492400011194,0.11982678113014253,1.0178481687224,0.72039493701,1.34162012682,0.04391389058114342,0.20850599913511358,949.6907756124089,949.54907773606,949.78486678295,0.005490573612985438,0.23578904688997682,0.07372698201374842,0.0020651300243046847,-0.6208223729958005,0.43,0.57,-0.678253931258696,Stairs down
-0.2858227539024,-0.45458984375,-0.14379882812,0.008179351061338934,0.08998642981430892,0.8159619140587998,0.52392578125,1.09802246093,0.03160839114516605,0.17689631775058062,0.6226977539017998,0.42504882812,0.85607910156,0.02118301392218283,0.1448143079359253,1.0675894148479999,0.71301402238,1.43332636883,0.0564190650832749,0.2363363586764469,949.8126051965504,949.74087726228,949.96511708731,0.00317167007595251,0.22423982502994022,0.05603528687526267,0.000770076650870492,0.18034690305047718,0.63,0.37,0.7623670060239863,Stairs down
-0.20769042968359996,-0.37268066406,-0.03625488281,0.006747526953793258,0.08173158315030565,0.7834277343712001,0.55810546875,1.04113769531,0.02133516432057906,0.14533345340069942,0.5938403320282,0.40234375,0.78076171875,0.012969827898915614,0.11331429574385773,1.0077848284795998,0.70211559531,1.35367922324,0.034901417149895815,0.18588276676011917,949.8617204241849,949.78502289399,950.10744866227,0.0022313414484608288,0.3224257682800271,0.04700029823284338,0.0006169253117628516,5.684340989347486,0.6,0.4,1.2362958534126416,Stairs down
-0.2806616210902,-0.59826660156,-0.111328125,0.016581081194273792,0.12812209170291847,0.7386669921836,0.47680664062,1.04040527343,0.027305395530704563,0.16441515007868804,0.6801611328086,0.38952636718,0.93676757812,0.022962377312477137,0.15077384899030855,1.0496554995468004,0.66543371335,1.44201154327,0.051942156815501815,0.2267658158703529,949.9459345302863,949.81602067762,950.17834718141,0.012272185708803668,0.3623265037899728,0.11022460638040688,-0.002634196821717635,-0.6283303490086736,0.61,0.39,0.71392320094843,Stairs down
0.4739038085893999,0.40942382812,0.54125976562,0.0012660696590463146,0.035403516244235565,0.7947314453085997,0.75219726562,0.83190917968,0.0004009834202679792,0.019924195995454856,0.4350122070272,0.3515625,0.53466796875,0.004757055664308755,0.06862568839483993,1.0252926925452,0.96999789434,1.08211202354,0.0005588611063819293,0.02352174515885482,949.9365613032552,949.91941527991,949.9586632637,0.00021558352208141988,0.03924798379000549,0.014609164481947818,-0.0004153238012290155,-1.7293592006380034,0.54,0.46,0.2634557170685308,Lift up
0.5090063476518,0.47729492187,0.53979492187,0.00016192251383926755,0.012661093503361977,0.7636865234338001,0.70483398437,0.79833984375,0.0003351741608052926,0.018215993500142663,0.5024707031219999,0.46496582031,0.55871582031,0.0006547103987750479,0.02545905133321541,1.0468153711541999,1.02361415474,1.06750190258,0.00010024569698638888,0.009962090142963223,949.9191904284723,949.86037488558,950.00468935079,0.0015288527291201974,0.14431446521007274,0.038904552456351375,-0.0008267464646873505,-0.3160080377856902,0.42,0.58,0.335177855166158,Lift up
0.5163012695274,0.46154785156,0.58862304687,0.0008201130773508501,0.028494068620983942,0.750300292965,0.61462402343,0.81237792968,0.0032670547323460164,0.05687164658265625,0.49123535155939996,0.46044921875,0.53625488281,0.0003878137077441086,0.019594273925478013,1.0367333706528001,0.9891393502,1.06172512352,0.0004483343826694951,0.021067772517349814,949.7886252815885,949.67643030093,949.87686420099,0.002649500049277509,0.20043390006003392,0.051215281399058364,-0.0017436069085776274,-0.8268687090912401,0.46,0.54,-0.2966152216614114,Lift up
0.4665209960891999,0.33752441406,0.55932617187,0.0034209458575051124,0.058195673369504555,0.7148828124963998,0.59460449218,0.83215332031,0.0024840250401123665,0.04959016827669818,0.4766967773393999,0.41687011718,0.53625488281,0.0010681731833208793,0.03251909364492914,0.9810762507254001,0.95086211344,1.02757934943,0.0003352483104242916,0.018218008324733213,949.5806563455578,949.48182161046,949.74173273041,0.006516013574702407,0.2599111199500612,0.0803172051241537,-0.002056484124738327,-1.2391610973508325,0.66,0.34,0.5353711225035859,Lift up
0.5103979492163999,0.49475097656,0.537109375,9.884659088246617e-05,0.009892326570309005,0.737473144527,0.71423339843,0.77807617187,0.00017219534425778226,0.01305654589909615,0.4776977539027999,0.44787597656,0.50708007812,0.00039913874082890614,0.0198783136462985,1.0164462131061998,0.99528514728,1.02979375149,6.911543405599594e-05,0.008271896984092343,949.5003872353878,949.49164327467,949.51568098222,4.7518512975581935e-05,0.024037707550064624,0.006858813880389679,-0.00022135735339542017,-1.1217755552222495,0.5,0.5,0.2946345591256246,Lift up
