avg_accX,min_accX,max_accX,var_accX,std_accX,avg_accY,min_accY,max_accY,var_accY,std_accY,avg_accZ,min_accZ,max_accZ,var_accZ,std_accZ,avg_magnitude,min_magnitude,max_magnitude,var_magnitude,std_magnitude,avg_pressure,min_pressure,max_pressure,var_pressure,range_pressure,std_pressure,slope_pressure,kurtosis_pressure,Pressure_below_avg,Pressure_above_avg,skew_pressure,Label
-0.5789257812468,-0.60009765625,-0.54931640625,0.00017946426314245778,0.013329276818756267,0.8333593749959999,0.81750488281,0.845703125,7.201604169685626e-05,0.008443688843147152,-0.11749999999720004,-0.14233398437,-0.08911132812,0.00020300629164690553,0.014176608505931046,1.0216863523320001,0.99796697964,1.03716078952,5.6663915535878124e-05,0.00748981150500594,970.5008122016902,970.48497661764,970.52390789755,0.00010463866311107085,0.03893127991000256,0.010178029105871143,-0.0001961685982052701,-0.1427708719731111,0.51,0.49,0.7321879400872735,Lift up
-0.6065673828088,-0.68237304687,-0.55212402343,0.0011385233715203794,0.033572878008969916,0.8135595703083999,0.74938964843,0.87585449218,0.0011814745026592064,0.03420028885305816,-0.1314501953088,-0.18237304687,-0.09826660156,0.00035564547837437074,0.018764035375969292,1.0242589873324004,0.94659958853,1.074264782,0.0006310423902771953,0.024994638752629,970.4943023094733,970.47941861513,970.51808839952,0.00012062581820577863,0.03866978438998103,0.010927925696293915,-4.769582346651027e-05,-0.23306747312487452,0.57,0.43,0.7886926748502765,Lift up
-0.6281356040851515,-0.6904296875,-0.5615234375,0.0016771161575248456,0.040745252364872156,0.8028860381123233,0.73779296875,0.84680175781,0.0014144139906733493,0.03741827067979689,-0.07890551017585858,-0.1240234375,-0.04443359375,0.0006679229037607342,0.025713346879843373,1.0241999418522225,0.99983769828,1.05551118828,0.0001438174406372532,0.01193166959049214,970.505858932249,970.48603775306,970.53405631379,0.00015812395542240485,0.04801856072992905,0.012511064852820141,0.00011830605417610614,-0.589548524384162,0.56,0.44,0.46262023548186393,Lift up
-0.6203687263219191,-0.63073730468,-0.60192871093,4.7993239750492665e-05,0.006892638069055472,0.8668582800624242,0.82604980468,0.87878417968,0.0001751103737493001,0.01316592503758345,-0.06353204900131314,-0.07543945312,-0.05249023437,3.275618039549535e-05,0.005694322601192343,1.0678864067098992,1.02380739327,1.0836137155,0.00021098443373030013,0.014451756911671138,970.4990089018788,970.47561280185,970.51091349797,9.112175676598334e-05,0.03530069611997533,0.009497438337808167,-0.00022221339446235682,0.42854617384557825,0.36,0.64,-1.1018977040457578,Lift up
-0.5977260044612245,-0.837890625,-0.21740722656,0.016983958863704674,0.1296559029161951,0.5879441864596938,0.04028320312,0.98571777343,0.1219583946608035,0.34743908997966444,-0.3624379683468367,-0.79821777343,-0.06359863281,0.09353623902880201,0.30427255480923804,1.0252327129736736,0.69364156219,1.18178204407,0.013457592340292337,0.11541347395115108,970.376785755714,970.21517511324,970.48082349455,0.008612881049400547,0.26564838131002944,0.09233089682267866,-0.0027822184091118064,-1.3931488726728178,0.39,0.61,-0.5434240737498782,Lift up
-0.6309915129626805,-0.8955078125,-0.55749511718,0.006886117057978304,0.08255377738464409,0.3806970340646392,0.00012207031,0.62585449218,0.044920846112405266,0.21085005242136368,-0.539859103170103,-0.79406738281,-0.24084472656,0.029697689566924923,0.17143957483268646,0.9520620198524741,0.82614797643,1.19103849394,0.00886204265898106,0.0936519161280509,970.1829307639559,970.10344084461,970.29948514981,0.002517134234549422,0.19604430520007554,0.049911766118620166,0.0005633984929439697,0.3683121879641611,0.59,0.41,1.1070041914272668,Lift up
-0.7463517336458765,-0.92419433593,-0.634765625,0.005330040701971333,0.07262982740413979,0.7069934962895875,0.50854492187,0.96618652343,0.00904097357179419,0.09459264061586879,-0.023359475675773195,-0.25708007812,0.14501953125,0.012416248887495047,0.11085236272468252,1.0382058252623712,0.86241272781,1.26217271769,0.006129338478842031,0.07788548916427966,970.0375755514424,969.99370251371,970.10344084461,0.000933522780779915,0.10973833089997242,0.030395704212705904,0.00014848545836884113,-0.6042008010689042,0.49,0.51,0.4189126669854473,Lift up
-0.8188602408153607,-0.99035644531,-0.3720703125,0.039948441238086614,0.1988381292350488,0.42553459245845365,0.27880859375,0.76428222656,0.012176389489010548,0.10977640775897181,-0.31551400410484537,-0.58203125,-0.08374023437,0.017838828377824998,0.13287182895795077,1.0017640191085566,0.7250635929,1.15265573707,0.01704785553255411,0.12989266509156563,969.9987077766795,969.95803458457,970.09591207239,0.00044055372657941387,0.13787748781999198,0.02088089882126126,0.0004238320400161668,3.408279986071782,0.44,0.56,0.549062096063985,Lift up
0.5350857204825555,-0.50695800781,0.83630371093,0.07166624202344099,0.2662141063982199,0.7886990017337777,0.36791992187,1.32788085937,0.050937224297504746,0.22443541418110374,-0.058569335935888894,-0.39575195312,0.39892578125,0.03348707188272274,0.18197525465361505,1.0001487197296668,0.56743851353,1.5562397765,0.06659185755601617,0.256616344038364,970.0490433688267,970.00983921765,970.23887300197,0.002505687409730302,0.229033784319995,0.0497779714181994,-0.0005724619370887828,6.665775674917439,0.62,0.38,2.4590424677424827,Stairs down
-0.005765047940795442,-1.43505859375,0.7197265625,0.5707443256194974,0.7511714815184004,0.6353898481852273,0.26879882812,0.86181640625,0.027927328605739044,0.1661624885431596,-0.14731251109625,-0.67932128906,0.0751953125,0.04266070889542561,0.205367787426663,1.0097951381192045,0.70884629683,1.55081847408,0.04027036303126106,0.19953131400745644,970.1039859037274,970.04932221148,970.24465089109,0.0026002483196712885,0.19532867961004285,0.05070207139073696,0.0008118204305066638,2.4993699649084746,0.58,0.42,1.8107846102152971,Stairs down
-0.9632979832303371,-1.74060058593,-0.54846191406,0.08832635288293635,0.2955231326845115,0.34931174288584266,0.11315917968,0.55432128906,0.013412790527162809,0.11516112632143563,-0.24277042002752808,-0.46520996093,-0.01904296875,0.009478178130094215,0.09680744675183832,1.0646588419220224,0.61830736521,1.84132336287,0.08633850970402622,0.2921787365455848,970.1992056165233,970.1151764829,970.27927507427,0.0015232047036880616,0.16409859137002059,0.03880837595282829,0.0008317362509493055,0.010046164553367376,0.44,0.56,-0.06555258298436657,Stairs down
-1.0096657492863637,-1.640625,-0.5419921875,0.05635409538268779,0.2360375138302326,0.331452803175,0.10021972656,0.6123046875,0.0156311391050814,0.12431215758863587,-0.15918801047295456,-0.34887695312,0.1181640625,0.013333711060623202,0.11481372573326103,1.0867739997418182,0.59244742061,1.67263421975,0.05856389304076147,0.2406208516654518,970.3030171674135,970.21481474623,970.4186137432,0.0028744763640039463,0.20379899697002202,0.05330864713972338,0.0018513040569953232,-0.7794401657692154,0.57,0.43,0.29951857763989814,Stairs down
-0.8906513560867046,-1.25561523437,-0.43493652343,0.04077759948542301,0.2007840075132695,0.35643976384511367,0.24353027343,0.57336425781,0.0064848280875681045,0.08006957511627176,-0.23873762650420458,-0.47290039062,-0.05883789062,0.010672495794732229,0.10271911912311385,0.9992781408613635,0.61899184596,1.40940468116,0.03643864230277813,0.18980138782965927,970.381543006431,970.33282911828,970.45332627573,0.0006161625357086314,0.12049715745001777,0.024681180861375787,0.0007896180722124271,1.027740537729752,0.52,0.48,0.5465597854993037,Stairs down
-0.9630842537677011,-1.29724121093,-0.59350585937,0.031367372479226496,0.17608755767506976,0.36908309760758623,0.09106445312,0.82177734375,0.025261266577929056,0.15802185669069913,-0.3004725664465517,-0.57092285156,-0.16162109375,0.01172907436981924,0.10767663359819395,1.0862256547519538,0.66101006589,1.42392434212,0.04220834896244996,0.20426256516087318,970.4433538159395,970.40391866676,970.4840713447,0.0005044523102472381,0.08015267794007741,0.02233056219244386,0.0003264675959241703,-0.6003212373316278,0.52,0.48,-0.08323399619298376,Stairs down
-1.015554028884186,-1.23303222656,-0.66430664062,0.02522257477552235,0.15789011692413998,0.36006767804825585,0.28649902343,0.46850585937,0.002092702753983495,0.04547932498432885,-0.257373898525,-0.33630371093,-0.16125488281,0.0028525550146410914,0.05309788856710594,1.1098487657341858,0.75041831788,1.31771313687,0.02559036538128327,0.15903711199946008,970.4655063525445,970.45242877799,970.4840713447,6.677838821034622e-05,0.031642566710047504,0.008124155052938084,0.00014019690674545315,-0.7035831932890977,0.58,0.42,0.29401479377510864,Stairs down
-0.9622059087597701,-1.23706054687,-0.63879394531,0.03320324086724074,0.18116731057365412,0.33700666756034486,0.24877929687,0.39929199218,0.0015415032815808984,0.03903568691667895,-0.22647410425275866,-0.30773925781,-0.11511230468,0.0029583499493529594,0.05407722188635992,1.0464235840548277,0.71965983067,1.32150105582,0.033355023745276303,0.1815809259469298,970.4709519444185,970.46085644142,970.48359293062,3.6192252513737644e-05,0.022736489200042342,0.005981325071527286,-3.0056818801263006e-05,-0.32736118885821597,0.49,0.51,0.39523877988635986,Stairs down
-0.987431066172,-1.4052734375,-0.38293457031,0.08044148713566435,0.28194878382212285,0.3630040785807059,0.18981933593,0.57751464843,0.008487449298426573,0.09158382473853777,-0.21953268611800003,-0.31628417968,-0.07604980468,0.004602247510029293,0.06743962797699886,1.0783045213816467,0.43411270222,1.50908698439,0.08568490574059076,0.2909928659365992,970.4648985881257,970.43637779918,970.50435098969,0.00028770904140517576,0.0679731905099743,0.016861916532629088,-0.00021656227610754953,-0.0585246774516901,0.48,0.52,0.20864707754296474,Stairs down
-0.9161118451259999,-1.4580078125,-0.33642578125,0.07776714722796661,0.2772223649230342,0.4861141429197646,0.17419433593,0.81652832031,0.029164256406229702,0.16976792249224493,-0.26827177159482346,-0.57800292968,-0.04895019531,0.029491448761534263,0.1707175753717535,1.1029825855810589,0.61977031948,1.6832908349,0.06656806341207985,0.256485691072385,970.4738570872047,970.43937549569,970.53751716342,0.0011126712454289777,0.09814166773003308,0.03315993057113893,0.0008183841435387862,-0.5705404979561077,0.73,0.27,1.0007991704957573,Stairs down
-0.8151668772941176,-1.52087402343,-0.11767578125,0.12220306357609094,0.34751313712605997,0.5249511718710588,0.1591796875,0.97387695312,0.04689089464261624,0.21526550364279332,-0.2968520220554117,-0.54553222656,-0.06970214843,0.018274138546667717,0.13438433197889105,1.0457762120536473,0.21799775617,1.61850689771,0.12113286675363719,0.34598811280677605,970.5156742853916,970.47219243621,970.5578385014,0.0004701040388108361,0.08564606519007611,0.02155396490347241,-4.529367624208178e-05,0.24053442723347773,0.44,0.56,-0.2946256687286231,Stairs down
-0.9522036597801191,-1.39099121093,-0.55041503906,0.04729475759782672,0.21617521775004914,0.36198788597071424,0.18957519531,0.54187011718,0.006131607049552539,0.07783708452616951,-0.16678437732107143,-0.33715820312,-0.03479003906,0.005904304973990371,0.0763807281260261,1.0384867868875,0.65813527196,1.44207664344,0.04626437982108098,0.21380742128055225,970.5994319383889,970.51852223711,970.66811764079,0.001346905676712903,0.1495954036799958,0.03648110586760582,0.000653664121477745,-0.6839433550503222,0.44,0.56,-0.06857192467667533,Stairs down
-0.9369793627599999,-1.44116210937,-0.61560058593,0.044145648466575656,0.20883910836777156,0.31867999340855424,-0.02331542968,0.48461914062,0.010122541505410594,0.10000291582759027,-0.18836478727000003,-0.3779296875,-0.02319335937,0.007914400393204492,0.08842537063309161,1.019157181092048,0.73346543291,1.4678817374,0.03818060759792721,0.19421791955808365,970.7158122970891,970.64630814452,970.78921956389,0.0015011971232911164,0.1429114193699661,0.038511172547227225,0.0014167936280791173,-0.8939242308105739,0.48,0.52,-0.13998595631372038,Stairs down
-0.2570219494035715,-1.41845703125,0.71826171875,0.3956361052011486,0.6252408748376913,0.8224850609148808,0.32849121093,1.47692871093,0.08558026666345298,0.2907945218966109,-0.19288417270964284,-0.55895996093,0.03796386718,0.02534307091241017,0.15824464505082766,1.0714719096436904,0.47673066095,1.83018544634,0.1338162324400536,0.3636250569664617,970.8181663426733,970.76732366578,970.87976866379,0.0008817605506421823,0.1124449980098916,0.029517171294515594,-0.00015826603091393228,-0.7015224052029376,0.56,0.44,0.2874352171252519,Stairs down
0.44049072265402445,-0.27978515625,0.90466308593,0.09013688683741328,0.2983917835834756,0.8340349895160974,0.54321289062,1.1865234375,0.04161360931684476,0.20274645811060532,-0.08964724656914634,-0.48754882812,0.21862792968,0.027144432345287395,0.1637479852778042,1.0134953526591464,0.73116657767,1.31762379223,0.02780652892019447,0.16573299281969353,970.9026968401307,970.80844383549,971.0168740039,0.0030343526756091465,0.20843016841001827,0.054748044482767454,0.0009757035339509761,-0.06434366488707788,0.61,0.39,0.7823264817928662,Stairs down
-0.3019275200045122,-0.66955566406,0.02526855468,0.038074767793919925,0.193934116022449,0.7883032821993902,0.455078125,1.16101074218,0.0459087928960015,0.2129528810981469,-0.553719869470122,-0.91467285156,-0.16247558593,0.036394584613251374,0.18960682534004097,1.0562052608220733,0.79636570606,1.34535779245,0.022806682333390987,0.15009514336257707,970.8845573979754,970.82243778262,971.02281034881,0.0033585566059465702,0.2003725661900262,0.05759859892876717,0.0010915279822977435,0.44142198402964095,0.57,0.43,1.0365403808556948,Stairs down
0.1606165874425301,-0.94873046875,0.84606933593,0.33699833413332303,0.5770078970344777,0.778833596099518,0.39416503906,1.09643554687,0.03545167560942088,0.1871484624238752,-0.1441870999608434,-0.78674316406,0.34582519531,0.08889841856813867,0.2963568006376523,1.014908509146988,0.61175098358,1.59229998916,0.07988255030988474,0.2809272324725843,970.8937289489401,970.82274668316,970.98068567858,0.0018851186722561,0.15793899542006784,0.04315560680950261,-6.528481755521888e-05,-0.5875270540194419,0.6,0.4,0.44421048128023316,Stairs down
-0.9874779971990124,-1.42858886718,-0.45397949218,0.06762938717909643,0.2584462351692933,0.3807825159097531,0.20886230468,0.52990722656,0.007743720503404624,0.0874535248901282,-0.22724518952111114,-0.30712890625,-0.10534667968,0.002535927585563203,0.05004617705273088,1.0923332926814817,0.65633619968,1.48503355676,0.05619746442248661,0.23559216575561012,970.8820922266559,970.84458564873,970.90698936066,0.0002580875348015489,0.06240371192996008,0.0159656277339728,0.0005101178160566983,-0.020686432895489215,0.53,0.47,-0.37060426456689993,Stairs down
-0.9551926601040741,-1.59509277343,-0.44982910156,0.07090590162018434,0.2646328024238503,0.3472945601817284,0.16552734375,0.85717773437,0.020849956364924763,0.14350104353704884,-0.17114860628493825,-0.44262695312,-0.05603027343,0.007687315680571916,0.08713443950994924,1.0484648289295062,0.48477127416,1.61995788674,0.06200079951435424,0.24745778942082472,970.9106807308376,970.88123005054,970.98603284273,0.0007573483583121039,0.10480279218995747,0.027349559019842637,0.0007292191265322042,3.065119562764286,0.78,0.22,2.065608369342209,Stairs down
-1.0212417414123458,-1.56140136718,-0.72912597656,0.040109480728805005,0.1990334191897816,0.3634967568451852,0.2060546875,0.51635742187,0.008476724576760906,0.09149903636683916,-0.199417679394321,-0.37963867187,-0.01635742187,0.012253979759094733,0.11001225412818869,1.1128052205192591,0.82684401637,1.58248829774,0.037042930479148854,0.1912736530465622,970.9606151806897,970.91486550193,970.98373482471,0.0003511576391137227,0.06886932278007407,0.0186231672821379,0.0005593328444649316,0.027494467836381986,0.52,0.48,-0.8904351907334211,Stairs down
-0.963639831539125,-1.59020996093,-0.60339355468,0.0781467329639456,0.27779470621647256,0.41159973144275,0.16796875,1.01037597656,0.035764609249113066,0.18792964543546384,-0.14781188964475,-0.38342285156,0.04321289062,0.009563494473560344,0.09717999172998956,1.0692615466965,0.62650766917,1.88654319862,0.09972209069166897,0.3138081652188533,971.0427156457263,970.96831944927,971.15365723754,0.002737420594051797,0.18533778826997604,0.05199233440254582,0.0015526567633045187,-0.310656753448209,0.6,0.4,0.7325948382158499,Stairs down
-0.7504699707004999,-1.61499023437,0.56311035156,0.2056845268477363,0.450681118155775,0.58822174071925,0.16906738281,1.55944824218,0.10840008801799025,0.32717745478221044,-0.19361724853112502,-0.43725585937,0.04443359375,0.022409012043222532,0.14875785489406013,1.061739860553125,0.40851785308,1.89458165445,0.15361372880142238,0.3894785709014099,971.1727995204617,971.06318274618,971.36270813146,0.006335601542374842,0.2995253852799351,0.07909744953596896,0.0028413731598533436,0.10333575790590155,0.6,0.4,0.8644247218705701,Stairs down
0.704110717769,0.439453125,1.18176269531,0.029136471271447355,0.1696238938963325,0.76171417235975,0.38208007812,1.623046875,0.08994496564534818,0.2980279409296741,-0.003013610839,-0.26245117187,0.38122558593,0.018523033884183228,0.13524605709827897,1.04967019155225,0.6389928472,2.04356971348,0.11145961416373107,0.3317625189600001,971.2209996517234,971.18269429605,971.2884291338,0.0009337999265389158,0.10573483774999204,0.030366551128786085,0.0010184851462468644,-0.8116691681170338,0.64,0.36,0.6544676254564821,Stairs down
-0.21260167375354425,-1.66101074218,0.75024414062,0.6896596761685047,0.8251847107465794,0.6298287307121517,0.2275390625,1.23876953125,0.09949956710044427,0.31343273426574225,-0.12579113923936708,-0.427734375,0.16870117187,0.025957049031525906,0.1600889714834239,1.0891234872715192,0.59143125614,1.72470847219,0.0772939103798647,0.2762526134736207,971.314279421889,971.27986831949,971.35717449591,0.0006458573429446513,0.077306176420052,0.025252364909851287,0.0006191698789063829,-1.343677434414638,0.49,0.51,0.2431965721636985,Stairs down
-0.9745027566215189,-1.21557617187,-0.69677734375,0.017442578064735866,0.13123180230925027,0.32525248466797474,0.234375,0.39099121093,0.0015986312793373684,0.03972902516244785,-0.2199954262225316,-0.30676269531,-0.0615234375,0.0031839480689532618,0.05606821674389091,1.052466898216456,0.78732344222,1.27966967676,0.016325460624096174,0.1269598724943876,971.3625322534936,971.34327078355,971.37578855971,7.041744080108784e-05,0.03251777616003437,0.00833823007543852,0.00022026075047593417,-0.25602824453705963,0.29,0.71,-0.7103810434310768,Stairs down
-1.0129488431447435,-1.34777832031,-0.65942382812,0.033400796748365165,0.18158353836578195,0.3377888997366666,0.19250488281,0.50537109375,0.008123483524964111,0.08955074706715228,-0.25002034504794884,-0.31518554687,-0.16809082031,0.0016113710931778989,0.03988373715462492,1.0997634203929487,0.72106145205,1.46176692041,0.03624459622450041,0.1891558138517817,971.3646745637831,971.34816495001,971.38861601196,0.00013328950395036362,0.04045106195007975,0.011470861526325222,-0.00011868209538231107,-0.12450758498843273,0.76,0.24,0.8032674411393548,Stairs down
-0.9740209334905126,-1.1953125,-0.6904296875,0.019614703757421612,0.13915183504513703,0.33232390574487186,0.25854492187,0.43054199218,0.0019076119536777178,0.04339533834606004,-0.19508557441551289,-0.27893066406,-0.07263183593,0.0028278950454467943,0.05283597241237809,1.0498342684228208,0.74283857398,1.26523811408,0.019348432794453686,0.1382041097932893,971.3615212990951,971.3519152123,971.38141688014,9.390299755332142e-05,0.02950166784000885,0.009628037856661371,-0.0001515462435574121,-0.7052520895485701,0.58,0.42,0.7531337193394164,Stairs down
-0.9184085161212818,-1.28491210937,-0.45715332031,0.0491686480156011,0.2203140502404461,0.3085311498361539,0.11669921875,0.60290527343,0.016138585644535113,0.12622076176435637,-0.2012532552048718,-0.47436523437,0.03857421875,0.020072849797900052,0.14076755865511714,1.00552907093859,0.63928787901,1.43809504217,0.05304536896930288,0.2288346567641429,971.3850274831153,971.34423655099,971.46343046119,0.0012697627004549805,0.11919391020001058,0.035404571618292295,0.0012552334080417327,-0.4991106153890388,0.56,0.44,0.6553876696662386,Stairs down
-0.9317944018836363,-1.82788085937,-0.45373535156,0.10096418873404707,0.31567857941858324,0.5022400694971427,0.29553222656,0.89294433593,0.0237450163481518,0.15309029855762094,-0.2779636135300001,-0.58923339843,-0.15051269531,0.01380692726913456,0.11673738272455643,1.1067328462684414,0.63760228084,1.94506608022,0.11105152131966907,0.33107294327695064,971.4462499318373,971.39064562011,971.57217399579,0.002117389452519977,0.18152837567993174,0.04571532443504624,0.0015921854474947972,0.4572793332388203,0.6,0.4,0.9222583584959616,Stairs down
-1.0431177708983117,-1.59338378906,-0.64025878906,0.05344254234205016,0.22967037978501922,0.3811922940297403,0.09228515625,0.85339355468,0.04011230509369973,0.19897579266460738,-0.1559313489203896,-0.27221679687,-0.01525878906,0.0035452172770916476,0.05915382907532086,1.1348049127766235,0.65259229756,1.81440484729,0.06663911243601231,0.2564637779830961,971.5735180862296,971.4936665724,971.62943797037,0.0018952715016192906,0.13577139796996107,0.04325109924630639,0.0016600695840145463,-1.2554078902142478,0.44,0.56,-0.43679252717156686,Stairs down
-0.6202103464205265,-1.39440917968,0.78552246093,0.3067701819975291,0.5502124428204107,0.5905617161764473,0.15307617187,1.29113769531,0.1109298423799406,0.3308628706741372,-0.2395983244214473,-0.4326171875,-0.06494140625,0.008103696233324043,0.08942633086125484,1.0590874062826316,0.57827140913,1.62986875588,0.0905578277835939,0.29894192984260387,971.7062490027395,971.61462076739,971.78294227205,0.002276822468163795,0.1683215046600708,0.04740109996395884,0.0016497202679974482,-0.9165050965257762,0.36,0.64,-0.27148834727179494,Stairs down
0.6422895951664933,0.26318359375,0.84033203125,0.027905022591872154,0.1659596930012484,0.6728816837415583,0.21240234375,0.98266601562,0.035144041304336675,0.18624614139224774,-0.12493183086129869,-0.50085449218,0.21398925781,0.025093554859181348,0.15737745879361134,0.9651914931572726,0.41654426048,1.26661803882,0.041956254785949124,0.20349783379721165,971.7823155275312,971.73847415513,971.8192655129,0.0007459549580524689,0.08079135776995372,0.027134244624173985,0.0008997375047562966,-1.2234087548520751,0.48,0.52,-0.27579488811743347,Stairs down
-0.08793081888439024,-1.19506835937,0.70837402343,0.6155737072004762,0.7797863237908204,0.725529368327439,0.3759765625,1.27075195312,0.04997288746404133,0.22217889640369262,-0.1194785513514634,-0.32385253906,0.10144042968,0.014876505216435403,0.12122328332920627,1.087472262557561,0.6396596893,1.40305748524,0.04483008060131401,0.21043614780093742,971.8453806010474,971.79468610252,971.89995716706,0.0008432462228491235,0.10527106454003388,0.028861093747925996,0.0008662848745757295,-0.6519662018881895,0.4,0.6,-0.2261776247685855,Stairs down
-1.003849283849238,-1.29382324218,-0.65759277343,0.02543334406886196,0.15871711232377123,0.362763904386,0.22106933593,0.52062988281,0.0065158028224869555,0.08033521990703013,-0.18842192150028575,-0.28686523437,-0.10815429687,0.003267645830369432,0.05689046839225111,1.0876250137650476,0.70318317172,1.34823046627,0.02702445540925657,0.1636064779996627,971.8895255493843,971.86367619393,971.91416861806,0.00019310558803616157,0.05049242412997046,0.013829912768984551,0.0003897466700638096,-0.8514877844186128,0.5,0.5,-0.06755620490198556,Stairs down
-0.9768530804136957,-1.19592285156,-0.65026855468,0.03222057742154258,0.17852269814765043,0.32942796789804346,0.2392578125,0.412109375,0.0027704101698857748,0.052347846334546345,-0.22384643554347824,-0.32727050781,-0.14501953125,0.002039873870136497,0.04491883043969195,1.057039459734565,0.7361042178,1.28236464536,0.0325213793692573,0.17935408028601868,971.9085689539485,971.89474541741,971.92512296105,7.643360751528174e-05,0.030377543639929172,0.008694987488984323,0.00016739732785479963,-1.0661336297398494,0.48,0.52,-0.09058847865706576,Stairs down
-0.977345784502262,-1.32092285156,-0.62475585937,0.03116466848548478,0.17548122556935897,0.30040777296809523,0.14587402343,0.41052246093,0.004606224094238778,0.06746397626227561,-0.19689941405821423,-0.28100585937,-0.05383300781,0.0034483570650480334,0.05837212686913192,1.0450132123095235,0.68711140877,1.35147837007,0.031291246551766065,0.17583723073303928,971.9078633954795,971.89239678283,971.92311567006,9.177000180208688e-05,0.03071888723002303,0.009522473511679277,-2.088826659192763e-05,-1.0768415768798925,0.43,0.57,-0.3047749678148653,Stairs down
-1.020144092789796,-1.55224609375,-0.64538574218,0.04934217173419341,0.2209947514894535,0.2588314134220408,0.01000976562,0.50817871093,0.012224846925307974,0.11000047085960787,-0.13113714723734693,-0.27514648437,0.06652832031,0.007117954351267935,0.08393641738846196,1.0689260746818368,0.65642494185,1.59796701034,0.050783978680286994,0.22420030066037475,971.9687765704872,971.90954606704,972.0361580748,0.0011872854851713772,0.126612007760059,0.034280757388940875,0.0011417270012823635,-1.0379137994075187,0.51,0.49,-0.011764505888358062,Stairs down
-1.031775272249899,-1.8994140625,-0.28540039062,0.1514089029830926,0.38714276452579804,0.36457346906131316,0.04260253906,0.73010253906,0.04004752545052136,0.19910551220753578,-0.24556107954373738,-0.71337890625,0.08605957031,0.044996372732813525,0.21104943477140742,1.1483303903771716,0.30579568387,2.01945963645,0.17494307590101207,0.4161441746849692,972.0643043825992,972.00350141678,972.15008592934,0.0015391023824238913,0.14658451256002536,0.039032754113853395,0.0009770596179989725,-0.39878029610134913,0.58,0.42,0.417304642164635,Stairs down
-0.8512503884011363,-1.21728515625,-0.45788574218,0.0392471404112219,0.19698007558957886,0.53945784135,0.19445800781,1.06811523437,0.06435924734023125,0.25224569819289194,-0.2749619917404545,-0.67700195312,0.00537109375,0.026467180112909695,0.16176036814540118,1.071932473892159,0.50670088363,1.5642838833,0.07161613350404551,0.2660870417835786,972.1877772802471,972.08688893981,972.28035035843,0.0032852192577812835,0.19346141862001787,0.05699023794266034,0.0017634755063167618,-0.9003352149020394,0.49,0.51,-0.3035999110455465,Stairs down
-0.8333489833703848,-1.90832519531,0.29968261718,0.3371346509118711,0.5768989615154602,0.6018066406202564,0.13073730468,1.02355957031,0.058432853841175234,0.24017434227944767,-0.1569401667642308,-0.37561035156,0.04553222656,0.013660240028710243,0.11612540095212108,1.1499291004503844,0.53759196015,2.16953751106,0.16503207168741765,0.4036288838729871,972.4071680350156,972.24453032203,972.65311504323,0.009834764962154104,0.40858472119998623,0.09853262521556033,0.004049010252658577,-0.04903486849751015,0.5,0.5,0.6920721606900304,Stairs down
-0.4588545787139239,-0.48547363281,-0.44201660156,0.00011359473900798698,0.01059041221668346,0.8539189205851898,0.82421875,0.8955078125,0.0003712320000877835,0.01914504794577872,-0.3696938043872153,-0.38464355468,-0.35400390625,5.31604027895312e-05,0.007244824794190987,1.037575611671646,1.01511144858,1.08391735797,0.00037128337556861595,0.01914637265918681,972.4839796997221,972.47704380124,972.48917596072,1.4387806112580214e-05,0.012132159479961047,0.003769042581952726,2.8247193460387974e-05,-0.9677642015850747,0.35,0.65,-0.46492655148467993,Lift up
-0.47233339113345785,-0.48815917968,-0.45629882812,8.055040642626946e-05,0.008932950178388736,0.8871739467699064,0.85815429687,0.90258789062,0.00016167944616948135,0.012655766405401307,-0.3729966778583177,-0.388671875,-0.34594726562,0.00014433122843232626,0.011957522253668501,1.0721949803637383,1.03194422185,1.0948385884,0.0002662758337018967,0.016241529315566963,972.4624233788312,972.41479588184,972.48665395941,0.0005614277165180617,0.07185807757002749,0.02358348423183521,-0.0007062194244118104,-0.8681497195406256,0.38,0.62,-0.765303145734637,Lift up
-0.2474482110198936,-0.4609375,0.19836425781,0.06551043995746005,0.25458499638322074,0.9122444315119146,0.75891113281,1.12145996093,0.008401964770780626,0.09117336325285007,-0.11705374210340426,-0.44958496093,0.34924316406,0.08175129982195127,0.28439691479162416,1.0281775024322342,0.85857064144,1.15901906058,0.004023634309093143,0.06309381656536274,972.3283240766125,972.23255619249,972.41301477507,0.0027473028348512225,0.18045858257994496,0.05213517247452577,-0.0018485324048085952,-0.8813678807968564,0.47,0.53,-0.4202714649493202,Lift up
-0.08760052849317647,-0.572265625,0.22351074218,0.0906142230442221,0.29924600809592916,0.9603644875881174,0.75366210937,1.20458984375,0.010419017510751057,0.10147137938430711,-0.1976821001795294,-0.36145019531,-0.07983398437,0.005663765077853236,0.0748139863095501,1.0326912463517646,0.85196856345,1.28179915801,0.008138295449332091,0.08968026983114517,972.1091909941764,971.95679470595,972.23255619249,0.004889672940957867,0.275761486540091,0.06951364885363591,-0.002598318961223662,-0.6395105143158721,0.48,0.52,-0.4885384235125112,Lift up
-0.5902758789033,-0.60314941406,-0.572265625,4.1194160776109594e-05,0.006386095768804951,0.8218591308552999,0.78369140625,0.89575195312,0.00024471712080810596,0.015565023276565471,-0.16778320312079997,-0.18786621093,-0.140625,0.00016866352823064406,0.012921953913721316,1.0258243353011998,0.99976323722,1.07438900378,0.0001149661500170229,0.010668481078244113,971.8950045458663,971.79505593981,972.0003183469,0.00280972747937609,0.20526240709000376,0.05274116233628464,-0.0017949887221163769,-0.9384091534276453,0.52,0.48,0.32464641379297143,Lift up
-0.5904767537823711,-0.60546875,-0.56970214843,9.28194354964924e-05,0.009584494462391919,0.814232895051134,0.77856445312,0.85668945312,0.0002704823511278661,0.016361353039439832,-0.17393383536835053,-0.23461914062,-0.13464355468,0.00043329243514491256,0.02070810234724155,1.0209946890260826,0.97804286142,1.05613209021,0.00025180605747118556,0.015786390300963966,971.7089208094834,971.59247109391,971.79505593981,0.0036071006465979816,0.2025848458999917,0.0597487576606734,-0.0021146432128459885,-0.9857628611287947,0.47,0.53,-0.22562725257130575,Lift up
-0.6013323904413792,-0.62756347656,-0.58227539062,0.00011864457895959397,0.010829628256175507,0.7825576957567815,0.73937988281,0.82702636718,0.0004875572988843862,0.02195343235124425,-0.2751689340836781,-0.349609375,-0.22827148437,0.0012415455277834226,0.03503248334807338,1.0253034546544828,0.9780636503,1.06747971467,0.0002978921223409994,0.017160072114002594,971.4949366290133,971.40353105966,971.58055739973,0.0030429146030182307,0.17702634006991502,0.05484467679819511,-0.0021353497748920628,-0.9832484322841899,0.39,0.61,-0.20333421487111997,Lift up
-0.6011978540632049,-0.63244628906,-0.58837890625,0.00012912320379558626,0.011290162891025942,0.7590394631371792,0.73034667968,0.77465820312,0.00010727283919038317,0.010290653350504527,-0.3334350585907693,-0.35986328125,-0.29760742187,0.00030367627937348795,0.017314242511311157,1.0243013740642308,0.99435184236,1.04514517849,9.982788240354873e-05,0.00992713643289692,971.2988754667238,971.24097232713,971.39065057652,0.0022730670333389216,0.1496782493900355,0.04737008706236579,-0.0019765249164649763,-0.9920035468883603,0.55,0.45,0.5149686445631507,Lift up
-0.5878511316591175,-0.61877441406,-0.54577636718,0.00039233965500910735,0.019710230536529393,0.7107747395799021,0.630859375,0.77026367187,0.0014725715020308878,0.03818552771038762,-0.3327600815678431,-0.43811035156,-0.27893066406,0.002165363996341782,0.046304804691890425,0.9821997154431372,0.93017887305,1.03207894445,0.0007810947326832445,0.027810734279884626,971.0784998867323,971.0033041149,971.18284307489,0.0020614251994517095,0.17953895999005454,0.045179809079683955,-0.0014319823403226458,-0.5461739245373507,0.46,0.54,0.21425560836308521,Lift up
-0.6246312459266666,-0.64697265625,-0.58715820312,0.00022109212974381258,0.014791520771227274,0.7290712992310416,0.66613769531,0.77746582031,0.0011086796051026976,0.033122965737026194,-0.33019765217687497,-0.38854980468,-0.28881835937,0.0008798715250194101,0.029507731133277447,1.0161322603286458,0.96277230021,1.03835777534,0.00040572421419809887,0.02003741301416433,970.9717057300008,970.92336708362,971.02869323878,0.001345260821116464,0.10532615516001442,0.036486267109190104,-0.0011943896176781635,-1.4029556581030618,0.58,0.42,0.3881001213815086,Lift up
-0.1595164331894253,-0.63146972656,0.30590820312,0.10790917657141329,0.32660196142785713,0.8610124259124136,0.66259765625,1.10620117187,0.01126559860182022,0.10552776394257028,-0.24633368130149425,-0.60266113281,0.24072265625,0.07402509708889084,0.27050736386272567,1.001691066242184,0.74806963335,1.20880513256,0.015237508237801609,0.12272882491474166,970.9516171776185,970.91638264934,971.00805524289,0.0005299571383611365,0.09167259355001534,0.022888112132735273,-0.00025060041287231546,-0.39975477920146085,0.48,0.52,0.43586433663439667,Lift up
-0.5290474840352688,-0.60205078125,-0.37426757812,0.007201475913925128,0.08440403242170491,0.8008521295330105,0.73291015625,0.85290527343,0.0006000306692049767,0.024363471150994746,-0.3022014658903226,-0.54309082031,-0.15563964843,0.02388598341821064,0.15371774421592332,1.0213025199080648,0.95678450069,1.08003784573,0.0007039884690330493,0.026389746125130172,970.8900580341166,970.84025079304,970.93253851822,0.0008351612375270862,0.09228772517997186,0.028743364611099026,-0.00022082764493409137,-1.027683759733693,0.47,0.53,-0.22704758849920806,Lift up
-0.49563110351209994,-0.61206054687,-0.31689453125,0.007454892690354335,0.08590892714643102,0.7984289550746999,0.66040039062,1.01696777343,0.009471781884303206,0.09683524185677533,-0.3497729492157,-0.62902832031,-0.16687011718,0.02242194137790251,0.14898899947352987,1.0193613880786998,0.86450483164,1.21041945789,0.005391508446432793,0.07305883493437645,970.9355242016791,970.91151836823,970.98263469032,0.00047831637188601255,0.07111632209000618,0.021760818186988107,0.00028385414476550286,-0.28895468840454264,0.57,0.43,0.8779279358473225,Lift up
-0.5406768455892135,-0.73266601562,-0.46252441406,0.001797837544797439,0.042162034141461704,0.8231091445714607,0.61462402343,0.95239257812,0.0068835435403655,0.08249969911774648,-0.22829480117235956,-0.47802734375,-0.09436035156,0.011974592736015754,0.10881197889119482,1.0199360827607864,0.8862961926,1.12427390031,0.0021369130481363376,0.045966322336777325,970.9034434545196,970.8496370016,970.98533156907,0.0010569275378033887,0.13569456747006825,0.03232726322302881,-6.503801973736517e-05,1.0139784593882037,0.53,0.47,0.8188250477159807,Lift up
-0.8243767233412744,-1.7314453125,-0.34118652343,0.0703623995893036,0.2639556253281025,0.5806896733276469,-0.0009765625,1.14392089843,0.07682728781949552,0.2758152989146592,-0.23877431831823523,-0.47351074218,-0.02294921875,0.01824842848446861,0.1344229233533335,1.0698259068106863,0.44878135616,1.86152199599,0.0940211322904716,0.30512187152628417,970.9418634505023,970.86356098923,971.02117045255,0.0018766454557715398,0.15760946332000003,0.0431073888203755,0.0006387579627647516,-0.4149775062720833,0.52,0.48,0.05952101917246408,Stairs down
-0.9108371310733332,-1.53039550781,-0.48095703125,0.08930164139500697,0.2971689770737559,0.4212782118023333,0.07763671875,0.77075195312,0.024314077196503858,0.15506102277235684,-0.23492296006622226,-0.38842773437,-0.05908203125,0.007921439959842205,0.0885066322954862,1.0399042346955556,0.53595430497,1.65915722127,0.10221000329039855,0.31792190328313635,971.0214602034083,970.95327933037,971.16971740875,0.0036851706355105745,0.21643807837995155,0.060367410869740075,0.0012487073575097017,0.6116086356787642,0.59,0.41,1.0850770224578499,Stairs down
-1.0011354009755422,-1.67846679687,-0.515625,0.080441229130565,0.2819078886715606,0.4459346173713253,0.19018554687,0.89611816406,0.03274173148347293,0.1798534202924731,-0.16345361916,-0.33752441406,-0.02429199218,0.006514795485857304,0.08022657897467339,1.1135446148048194,0.58710224099,1.89830390632,0.0945580753750405,0.305644927088377,971.1166216497523,971.02859965287,971.20682502738,0.002648300837428962,0.17822537451002063,0.051150694994533494,0.0017659750314543276,-0.8751471117584275,0.45,0.55,0.002154407137699645,Stairs down
-0.9959752009424039,-1.85620117187,-0.33813476562,0.07685501409285199,0.27589132565691227,0.4578129694975,0.20544433593,0.9921875,0.033281740783508186,0.18155363958126872,-0.19902273324403846,-0.40844726562,-0.01159667968,0.01025230804074818,0.10076570922561398,1.125318215501923,0.45171454024,2.13646359288,0.09497295540950304,0.3066916267444889,971.2222591440611,971.15490714745,971.29851162789,0.0010349965511885029,0.14360448043998986,0.03201631867147172,0.000698462420062357,-0.07160799091748027,0.52,0.48,0.05610328254139545,Stairs down
0.3358910602057609,-1.37634277343,0.92163085937,0.46521564264561516,0.6783501683332348,0.7132939877692389,0.44445800781,1.16174316406,0.0352484759852834,0.18672262952504634,-0.05792369013173911,-0.55151367187,0.35339355468,0.046202811399324965,0.21377700280337258,1.045959633091848,0.58031089042,1.5709558801,0.07244708361559968,0.26769313647426624,971.2727387322424,971.2027668838,971.34944384496,0.001414337738398393,0.14667696115998297,0.03740273388552572,-0.0007754970862824898,-0.27547954557710463,0.52,0.48,0.10583177205498918,Stairs up
-1.0325118834679516,-1.34057617187,-0.79760742187,0.021695116408453837,0.14640262792646064,0.40664562546698785,0.18017578125,0.66735839843,0.022434139975004843,0.14887528045962667,-0.1527452583746988,-0.47094726562,0.06555175781,0.01593628944757584,0.1254762366356899,1.1331532939759037,0.90814117712,1.44022179089,0.030444850504527058,0.17343023115005546,971.218363659969,971.18851354226,971.2418641889,0.0002125030935049261,0.05335064663995581,0.014489403551213796,-0.0002817610120085317,-0.5771956718028961,0.57,0.43,-0.1998173766383944,Stairs up
-1.0128597861812632,-1.18603515625,-0.82446289062,0.0116536023668749,0.10738218133506236,0.32782560649400005,0.23193359375,0.45861816406,0.0034884483156042076,0.05875140685140144,-0.1546618009830526,-0.27331542968,-0.02905273437,0.0061676329421299185,0.07811984696674398,1.078313988822421,0.87082983731,1.24787465848,0.011633730116958431,0.10729058579361851,971.1597188201555,971.12609740856,971.19716197508,0.0004440485988099754,0.0710645665200218,0.020961259576490823,-0.0007350070475794167,-0.8866889858397484,0.52,0.48,0.055406105251599204,Stairs up
-0.987673364501313,-1.2265625,-0.77673339843,0.010336334602085695,0.10115298899124339,0.34604590829828286,0.25341796875,0.44970703125,0.00412940148103405,0.06393504793900602,-0.16469258009505053,-0.35363769531,-0.02770996093,0.008023993612153706,0.08912319098656028,1.0645145594084848,0.82762228804,1.27778867969,0.011558154079193519,0.1069645036827197,971.0979976145182,971.05713447714,971.12807140044,0.000324020640279968,0.07093692329999612,0.01790943060288529,-0.0005575752257668845,-0.4167775745234943,0.52,0.48,-0.19276409579045112,Stairs up
-0.9751881802977529,-1.2265625,-0.79675292968,0.010344656532644504,0.1011356734133515,0.28754690791325843,0.09851074218,0.40942382812,0.008910289477577561,0.09386252641746838,-0.20557052097606743,-0.35729980468,0.00476074218,0.010022697953059038,0.09954940165222893,1.0460685578097753,0.88474000805,1.26886753632,0.01074442828604316,0.10307135573337935,971.019927240613,970.98561428749,971.05713447714,0.0004867409446339512,0.07152018965007301,0.02193791114158414,-0.0008106990179070638,-1.3571997502725146,0.48,0.52,-0.07626110952195493,Stairs up
-0.9828033447225001,-1.21752929687,-0.74548339843,0.01827077612551945,0.1343992323993989,0.31247503106874996,0.12976074218,0.47155761718,0.010251231631816323,0.10067144760692058,-0.1766829057143182,-0.29943847656,0.06335449218,0.011324871350313917,0.105812001353457,1.0566226545026136,0.83267497739,1.26910581649,0.017906025832012843,0.13305092358093562,970.9556471534642,970.93078411153,970.98856506467,0.00020131339918615012,0.057780953139968005,0.01410764852562861,-0.0004844861456567971,-1.051751439937008,0.5,0.5,0.06933228176234899,Stairs up
-0.935027779881165,-1.18725585937,-0.6103515625,0.02356066327409886,0.15274789350582493,0.29096229330708745,0.13244628906,0.46508789062,0.006524152811307951,0.08037917343365616,-0.20414304269854366,-0.28796386718,-0.12731933593,0.00222714787406737,0.0469630182076654,1.0045589613940777,0.71977990417,1.25575745971,0.023700033222047216,0.15319900721651047,970.9018026840348,970.86173252945,970.93078411153,0.00025778950553740287,0.06905158207996465,0.01597769366348066,-0.00044035109864234013,0.11948971762683858,0.48,0.52,-0.42600333640927135,Stairs up
-0.9208835177913333,-1.26342773437,-0.59020996093,0.02774081432001127,0.16562784503153122,0.40330132378088884,0.19836425781,0.65588378906,0.02160165916375019,0.1461562202870525,-0.18026665581244442,-0.32397460937,-0.01782226562,0.010428518914424362,0.10155120128310581,1.0419601155698888,0.78408442354,1.30183952973,0.01678698821394953,0.12884279616138197,970.8691734107522,970.85575830993,970.88974243727,6.42860776872302e-05,0.03398412733997702,0.007973191828568397,-0.0001539806930610662,0.20762661347634292,0.49,0.51,0.4998938003390005,Stairs up
-0.9449859986781927,-1.12817382812,-0.59020996093,0.013990045360039996,0.11756483571487701,0.3482518942912048,0.13732910156,0.49145507812,0.007568146905404128,0.0864694420738791,-0.21018007576746986,-0.38635253906,-0.11999511718,0.00496878448022484,0.07006368251076388,1.0341209282227712,0.78408442354,1.25140322958,0.012426253259782276,0.11079954587039652,970.8665287411761,970.85176636543,970.88342010713,0.00010885338883316877,0.031653741699983584,0.010370241184308153,-0.00014888091968660354,-1.1092658371213613,0.61,0.39,0.2916676855053189,Stairs up
-0.9854897299930769,-1.29516601562,-0.61682128906,0.044434293180151,0.20963302279007803,0.347487229563956,0.18615722656,0.47375488281,0.004711622585663223,0.06826306844329003,-0.21125676081351652,-0.49426269531,-0.08715820312,0.0080811764695834,0.0894000689739947,1.0734011122006593,0.68699138424,1.40455685518,0.04635446425536756,0.21411462943543957,970.8723248848287,970.85187333066,970.89984040338,0.00024720755494196,0.04796707271998457,0.015636207609396092,-0.00015638943536496765,-1.219554421888626,0.46,0.54,0.2237985349738841,Stairs up
-0.9857721611965345,-1.17517089843,-0.78442382812,0.014259301267742518,0.11881969561933661,0.31545748568633664,0.22119140625,0.43591308593,0.0035614573600271193,0.05938177671615632,-0.207478438269703,-0.31335449218,-0.05297851562,0.005924578093708892,0.07658928714031923,1.0594116801060396,0.83965970174,1.27574853125,0.015619253922257438,0.12435677642902797,970.8726574790604,970.85841881951,970.8942617383,7.296950230213757e-05,0.03584291878996737,0.008499825408931317,-7.729677754380545e-06,0.24560654999862308,0.58,0.42,0.5862170546656338,Stairs up
-0.9994194878437779,-1.1904296875,-0.73376464843,0.014999272217659993,0.12178921806737972,0.3052449544238889,0.17114257812,0.45068359375,0.006618080196237762,0.08089836816546499,-0.1653103298581111,-0.40307617187,-0.01208496093,0.009062702996684739,0.09466787362522501,1.0648463697080002,0.794271639,1.2725113268,0.015960008290631125,0.12562911631138565,970.8669528686548,970.84908571681,970.88232271405,8.400469333147263e-05,0.03323699724001017,0.009114346265641426,-0.00014929367512678913,-0.6518764122427023,0.49,0.51,-0.21631514121977133,Stairs up
-0.9950401669423808,-1.31237792968,-0.73388671875,0.021309578195848104,0.14510648759147754,0.32404581705357144,0.04443359375,0.48291015625,0.011103647016748408,0.10474474088344243,-0.17010352724690478,-0.46313476562,0.046875,0.017187174721508932,0.13031717269275692,1.0729034395277377,0.76044926617,1.3736147893,0.022198228415114145,0.1481011944284201,970.8203845376387,970.78736492353,970.88127984571,0.0005056662684106772,0.09391492217991981,0.022352772353378868,-0.0008357537267148711,0.5850744634113032,0.5,0.5,0.6875505131730794,Stairs up
-1.0158299859926416,-1.2060546875,-0.84497070312,0.008240999081881755,0.09035072665742308,0.38703313863150934,0.20202636718,0.63012695312,0.01422262644422411,0.11869477967902456,-0.19408373562424527,-0.40173339843,-0.04626464843,0.009099102096600092,0.09493819837548588,1.112626282031415,0.8926835363,1.3456416898,0.01282239584579024,0.11270062043859852,970.7660281473458,970.72789232949,970.81317626699,0.000607279852062461,0.08528393749998031,0.024526532507762377,-0.0007483902955718644,-1.1095587326258503,0.56,0.44,0.5146066383526218,Stairs up
-1.0229111538095699,-1.31530761718,-0.80847167968,0.016189049760370035,0.1265502823248336,0.32630969631677426,0.19396972656,0.47937011718,0.00617674356752666,0.07816858045293118,-0.1907013923846237,-0.28247070312,-0.02355957031,0.004608289096981134,0.06751842416196241,1.0950607317881722,0.8821628425,1.39528559736,0.0169000204304593,0.12929926442431686,970.7026345204889,970.64372461396,970.7341806847,0.0006233534953474533,0.09045607074006057,0.02483245395829879,-0.0007846981080372516,-1.0208114002715158,0.37,0.63,-0.5859891352211748,Stairs up
-0.9670642671092857,-1.23999023437,-0.70812988281,0.026928817104299927,0.16312031126838974,0.374017624625119,0.21875,0.5322265625,0.005536888343915433,0.07396602602876451,-0.18917701357511907,-0.37963867187,-0.07360839843,0.007290982740231435,0.0848774724332508,1.0585098153438095,0.77423233074,1.36692569405,0.030088990081868296,0.1724261807817737,970.628358249454,970.59498974949,970.66022676919,0.00033347131683992843,0.06523701970002094,0.018152173980294527,-0.0005479849515662764,-1.1238468702491629,0.56,0.44,0.059504347031311924,Stairs up
-1.019651813268395,-1.1923828125,-0.79760742187,0.012763521631741026,0.11227620981583063,0.317021122681358,0.1201171875,0.53186035156,0.012371522726463108,0.1105386261810244,-0.16356065537851852,-0.38793945312,-0.00024414062,0.013639564812189873,0.11606539158229076,1.0906137841191357,0.84473900758,1.27306544245,0.01599930700372535,0.1257051498349904,970.5576648792522,970.52498480954,970.59498974949,0.0005044536255639466,0.07000493994996759,0.022320972268835428,-0.0008827829390068307,-1.1894802090108085,0.46,0.54,-0.1504938530134127,Stairs up
-0.9739583333294285,-1.41040039062,-0.57263183593,0.04374577152803213,0.20815653997058814,0.38780459449095234,0.2197265625,0.638671875,0.0200248305969663,0.14083365338090978,-0.22179361978780954,-0.38891601562,0.02429199218,0.014206316397832252,0.11862132247797748,1.0909767813465714,0.8210330251,1.46531639611,0.0355218958863901,0.18757289813841319,970.505335986478,970.47596287402,970.5366929031,0.0003344452664428936,0.060730029079991255,0.018200551459479235,-0.0005063116544251434,-1.386744587944113,0.52,0.48,-0.14445795244456994,Stairs up
-0.9362569829429032,-1.36437988281,-0.43359375,0.0579304623685422,0.2393899625528,0.3639742943511826,0.23486328125,0.46923828125,0.004303245169001963,0.0652454880859346,-0.19481109290569895,-0.3681640625,-0.07702636718,0.004346404536464192,0.06557186137219256,1.0301915982064518,0.56615447663,1.43428154019,0.05213585544946222,0.22710186008316058,970.4561721699347,970.42500920886,970.48674288347,0.00027626007775162194,0.06173367460996815,0.016531471177157052,-0.00037943200842128615,-0.7821960881642283,0.41,0.59,-0.39722795958654983,Stairs up
-0.9763872931950586,-1.18103027343,-0.59912109375,0.02347664870186881,0.15231694861304174,0.36921673942552946,0.26000976562,0.53393554687,0.004302466900860726,0.06520620862466657,-0.2092385684701176,-0.31127929687,-0.06982421875,0.002393501930187175,0.04863479293622703,1.0683409226509415,0.70468006891,1.24420964694,0.022159949358356103,0.14798393180270353,970.4163828542639,970.39770707271,970.4381833751,9.6158133602267e-05,0.04047630239006139,0.0097481722103295,-8.257618592998262e-05,0.02035543771331705,0.61,0.39,0.784811599939773,Stairs up
-0.9753955078091999,-1.17443847656,-0.69360351562,0.017065362292289322,0.12997964713510507,0.3271899414024999,0.23608398437,0.43383789062,0.002772026958985863,0.05238613069693165,-0.17631713866720006,-0.30895996093,-0.02697753906,0.007297890022231283,0.08499947718668022,1.0479771128837998,0.77594141771,1.25913484735,0.018328570858389744,0.13470443626624123,970.4118407686535,970.39770707271,970.42434970018,6.618866706082972e-05,0.02664262746998247,0.00809486135707224,0.00010243399324726884,-0.9756224891618173,0.53,0.47,-0.055591907892930975,Stairs up
-0.9919395840001032,-1.24548339843,-0.68286132812,0.02029841127920937,0.14173619617888283,0.3382392175387628,0.28771972656,0.39294433593,0.0011960004113634288,0.03440451293384855,-0.16565444788515465,-0.26403808593,-0.05358886718,0.003269843110675657,0.056887023018305206,1.063168429510103,0.74575876035,1.30171382683,0.020181200000458296,0.14132638250590776,970.4078402522146,970.39298758665,970.41951681732,4.5055208709037196e-05,0.026529230670007564,0.0066776284728423735,8.853139532218936e-06,0.299071737150316,0.44,0.56,-0.35380765029322175,Stairs up
-0.9647778039651721,-1.15881347656,-0.71728515625,0.01507115357324816,0.12205704372538662,0.3044195065519541,0.14306640625,0.38916015625,0.0053164861365535615,0.07249397975350244,-0.167251762298046,-0.26672363281,-0.05358886718,0.004256649351515087,0.06486695882708457,1.0299977052786204,0.8076107297,1.22231413469,0.013845568301594273,0.11698899024420015,970.4081676591254,970.39598451114,970.42383725434,4.850457521272785e-05,0.02785274320001463,0.006924380936929163,8.319137297019736e-06,-0.33828604179616084,0.45,0.55,-0.06200854648956964,Stairs up
-1.0064017380303796,-1.20703125,-0.73400878906,0.019296276166889902,0.13802905312487485,0.32533437994126585,0.20520019531,0.41711425781,0.003801108069234592,0.0612616746197732,-0.13316171380139247,-0.19177246093,-0.05688476562,0.0017958301513621578,0.04210817170252973,1.069391774933924,0.81253948482,1.26514610013,0.017621356358124642,0.13190262019516866,970.4014100246999,970.38565572472,970.41429440339,5.951304670537791e-05,0.0286386786700632,0.007665488699375046,-0.0002156803378739082,-0.692835594491851,0.44,0.56,-0.15048959910955081,Stairs up
-1.0040473090237778,-1.21850585937,-0.67907714843,0.01901815611040031,0.13713804455631265,0.32813042534366665,0.14135742187,0.60974121093,0.010829069946179796,0.10348307565383723,-0.19725206162855555,-0.3701171875,0.00219726562,0.011934509921678726,0.10863656960656617,1.0856674037267777,0.7930759489,1.29172773819,0.01752748337789067,0.1316538399082259,970.3553073656734,970.33169445422,970.38642571017,0.0002572266067638506,0.05473125594994599,0.015948935179358005,-0.0005658085661338939,-0.6031692797828039,0.5,0.5,0.4374606399762878,Stairs up
-1.0131249521264705,-1.298828125,-0.86926269531,0.013516115000467406,0.11568752771621613,0.38438026577401957,0.2451171875,0.60974121093,0.007199661491270054,0.08443385917207015,-0.18779799517186277,-0.35546875,0.02868652343,0.01637583574828546,0.12733926471826568,1.1088799378169607,0.92714519865,1.39125323302,0.016715575000692852,0.12865339799014852,970.2838636397954,970.23566925621,970.33169445422,0.000663624658588167,0.09602519801001108,0.025634323367008566,-0.0007877113206903953,-1.1081011670160794,0.4,0.6,-0.1947581612710402,Stairs up
-1.030058808376044,-1.20385742187,-0.771484375,0.012940969513714047,0.11313160945341222,0.42693622295329675,0.24011230468,0.61218261718,0.009996413624063208,0.0994311969398824,-0.1799799321735165,-0.29223632812,-0.03308105468,0.005450985789110624,0.07342400728898651,1.134388917317033,0.84334696751,1.34872916262,0.017114730224915598,0.13010248370573116,970.2046510264453,970.17204607608,970.24456598775,0.0004291761614872554,0.07251991166992866,0.020602425583713446,-0.0007017397493496776,-0.8662966857805876,0.41,0.59,0.08865634852031665,Stairs up
-1.1071702910598782,-1.38452148437,-0.86047363281,0.022071435991345506,0.1476559248313203,0.3620039777017074,0.12658691406,0.55480957031,0.019370525411445568,0.13832678515672153,-0.14669129906231707,-0.28527832031,-0.01257324218,0.005550228404766523,0.07404419418504919,1.181315497189878,0.87226278609,1.48329121526,0.02966585969545298,0.1711843477619352,970.1284036423908,970.07891065457,970.17598655745,0.0007896698868388918,0.09707590287996481,0.027929192008858506,-0.0010673611641063376,-0.8937682646715666,0.54,0.46,0.07072355904019703,Stairs up
-0.9806547619015237,-1.365234375,-0.68933105468,0.03725562648621512,0.19209583804931904,0.4284481956818095,0.29724121093,0.62524414062,0.01002616486318465,0.09965278510294315,-0.1076613653252381,-0.30981445312,0.14404296875,0.017104353733199927,0.13015934513594124,1.0873372956679999,0.75352154932,1.46744175232,0.03605353526171369,0.18897134242847824,970.0516530569754,970.02490633617,970.09884844445,0.00045187554838894197,0.07394210827999359,0.021155896854957928,-0.0005959918677694925,-0.11754091425769975,0.5,0.5,0.7511683238992616,Stairs up
-0.9163860942001161,-1.10668945312,-0.60852050781,0.015111787335663414,0.12221321073546827,0.3458138399305814,0.19421386718,0.58386230468,0.007980934180930337,0.08881515985847777,-0.1417875068101163,-0.3291015625,0.03002929687,0.007144357080718139,0.08403144150361164,0.9972078357254655,0.70567015838,1.21892686318,0.015091886702057791,0.12213271325645189,969.9082355717906,969.89058475309,969.96243066995,0.0003385974494256305,0.07184591685995656,0.01829372214124688,0.0002656816660648467,3.4427971111071223,0.69,0.31,1.9723661613084646,Stairs down
-1.1062183869152562,-1.61193847656,-0.50646972656,0.07677640145634528,0.2753036298655747,0.3225473257183334,-0.09716796875,0.65319824218,0.0474954035784734,0.21653288006208238,-0.10391313601628205,-0.314453125,0.11743164062,0.01418572603649927,0.11833789652507792,1.1816668267634618,0.5832510206,1.65985392791,0.0799244542509531,0.2808910496269973,969.9491924887142,969.90525085633,969.99416770534,0.0004956980324793299,0.08891684901004737,0.022121096932539885,0.0005109471384882853,-0.9740956338312485,0.47,0.53,0.010818092061839384,Stairs down
-0.9025289601263218,-1.41223144531,-0.43383789062,0.052146833255581074,0.22704062272550674,0.3964086072155173,0.02062988281,0.71154785156,0.0282559676368639,0.1671262588573638,-0.17265933683183904,-0.42260742187,-0.01147460937,0.009564896181696791,0.09723659211569988,1.0139098533317241,0.46821648117,1.57631262962,0.06315587890813872,0.24985985925217444,970.0188930886741,969.94647272625,970.08740634082,0.0013175756266627125,0.14093361457003084,0.03608921001116273,0.0009959298796324671,-0.6783166760263604,0.56,0.44,-0.16869904758475404,Stairs down
-0.9271311343237864,-1.35693359375,-0.53552246093,0.05034342607617839,0.22328155980560777,0.3656136225698057,0.02575683593,0.60998535156,0.0205253508491441,0.14256954653144385,-0.15691131295213595,-0.46984863281,0.0986328125,0.02492958906913886,0.1571227361771918,1.0339551286082522,0.57010931811,1.38997592136,0.04409985207573085,0.20897774563834057,970.1207727121329,970.0510220775,970.20804021526,0.0020943324430723765,0.15701813776001927,0.04554118046759826,0.0013103877858948953,-0.9030132563769246,0.48,0.52,0.4079876066826883,Stairs down
-0.9173020582895604,-1.40771484375,-0.41296386718,0.06986705074953309,0.2628674208818519,0.4002766032751648,0.17224121093,0.60229492187,0.011836094592008581,0.10819439735249707,-0.21548763735956047,-0.46154785156,0.16162109375,0.03366035622497512,0.18245674062781247,1.049674278466703,0.52323878487,1.51588308948,0.06690075002440506,0.25722670341007325,970.2082704609879,970.15028157018,970.25904137941,0.0007857432389899061,0.10875980922992312,0.027876669419105736,0.0007568381137581971,-0.3828802928613335,0.35,0.65,-0.4448275635303609,Stairs down
-1.0359337216307143,-1.5400390625,-0.46826171875,0.08674356620725904,0.2927642476546473,0.34609404063976196,-0.26953125,0.73620605468,0.04517286146186132,0.2112701808149959,-0.16287231444952383,-0.39538574218,0.15576171875,0.020253991461007505,0.1414668601300076,1.1347345623757146,0.67113786003,1.66946134407,0.08319389436582994,0.2867115115607931,970.2772519225591,970.24577438062,970.3338364068,0.0007198610616318657,0.08806202617995496,0.026670044752280207,0.0008126336055625249,-0.8393108490659524,0.52,0.48,0.6159533822867825,Stairs down
-1.0328430175739,-1.41418457031,-0.64172363281,0.04865634241904923,0.21947614675599428,0.3213037109335,-0.06115722656,0.59643554687,0.014647197626869123,0.1204189588503423,-0.1950231933569,-0.49548339843,0.01208496093,0.016300245564055557,0.12703244903730307,1.1111416778043002,0.7014089412,1.51138603136,0.05273407995759796,0.22848794094661096,970.3380052586512,970.3051705738,970.37472951123,0.0002419187644897197,0.06955893743008801,0.0154757738690129,0.00027794400934546615,-0.08774675063983217,0.54,0.46,0.6472510446326262,Stairs down
-1.0669157067085713,-1.30871582031,-0.63037109375,0.033764829041368544,0.18281217128385585,0.25477319833908163,-0.31677246093,0.59643554687,0.03134995652441383,0.1761535097829691,-0.17685621611622446,-0.408203125,0.01147460937,0.012602820119234581,0.11168804731902277,1.1315541464132652,0.71514829808,1.39013389423,0.031326065348167294,0.1760863754528577,970.3509413895672,970.32304204073,970.45799551652,0.0011352522398515067,0.13495347578998462,0.03352115799495014,-0.0004075287187521384,5.5528813279252205,0.68,0.32,2.5645572801919,Stairs down
-0.9233000999224417,-1.25415039062,-0.64685058593,0.03298329200531574,0.18055405105976197,0.29677705986151165,0.03234863281,0.4814453125,0.014996092747282587,0.12174448478597524,-0.06297976471511628,-0.2333984375,0.43273925781,0.035986451467320255,0.1885948152978632,0.9999012301077906,0.74137659445,1.34161088034,0.028039205126633854,0.16647272406529398,970.3788622965908,970.28835731855,970.48956416058,0.002854756841080926,0.20120684203004657,0.05311837717863389,0.0010485602268412086,-0.78150249707359,0.62,0.38,0.535437316115691,Stairs down
-1.054673767086125,-1.38879394531,-0.72094726562,0.041732202222884186,0.2030038169471159,0.24788360595349998,-0.05786132812,0.46032714843,0.01514247019942415,0.12228323401812428,-0.1326416015585,-0.24401855468,0.02746582031,0.006685024424311854,0.0812493791915234,1.1002997078187502,0.73700406849,1.41764749087,0.04403299762452876,0.20852478306959618,970.2971368542687,970.24480615805,970.33853140539,0.0006042311833912577,0.09372524733998944,0.02442699927536878,0.000636887139610861,0.02563018750018564,0.26,0.74,-0.8288803336957217,Stairs down
-1.04873962401875,-1.708984375,-0.54028320312,0.09056385671628757,0.2990515148052823,0.368873596187875,0.10595703125,0.86364746093,0.025122921713199128,0.15750836546604163,-0.22102661132487497,-0.40783691406,-0.08227539062,0.0068275713844548796,0.08211106345766807,1.1468801270181253,0.63165812518,1.75241591381,0.09156879651625932,0.30070614652814476,970.3578154047111,970.31586833028,970.43030033934,0.0010078470637316134,0.11443200906001039,0.03154756687028285,0.0008927033524683357,0.09900603628594995,0.55,0.45,0.8718793014686206,Stairs down
0.3705554780483809,-1.38110351562,1.12438964843,0.5037927188198548,0.7063955640619017,0.7054013206818095,-0.33825683593,1.24536132812,0.16756746630718988,0.40739610414888955,0.08791387648638095,-0.33386230468,0.33361816406,0.0194146802486788,0.13867147699517993,1.0778595723868571,0.1318941341,1.78135260068,0.16663301565954364,0.4062585809038674,970.3982882575599,970.34102837813,970.55281952264,0.0033302014833605856,0.21179114451001624,0.05743244099598372,-0.0009104606461343555,2.135355228202652,0.8,0.2,1.8019350045613245,Stairs down
-0.40520461061999996,-1.26843261718,0.92199707031,0.4955799956297325,0.7002198711952198,0.5216947514927659,0.00366210937,1.29943847656,0.08099359190764194,0.2830758872655487,-0.02036886012319149,-0.46496582031,0.50756835937,0.06262782651723382,0.24892081681459716,0.9997373666587233,0.56969499471,1.54128078891,0.07044711477455184,0.2640031768432592,970.4941119941683,970.4171626484,970.62342321056,0.0026095760687605395,0.20626056215996869,0.05081155991721307,0.00120805114252151,0.8284567407952723,0.51,0.49,0.8311776221564664,Stairs down
-0.14783289292305887,-1.2607421875,0.83862304687,0.6214779011870577,0.7836876906441812,0.6880155675510589,0.21716308593,1.48657226562,0.10646859605268506,0.3243701964336708,-0.1268224379577647,-0.40942382812,0.11376953125,0.022238400644567318,0.14824564884572516,1.0992403397904706,0.77108625932,1.63934421954,0.04486156792861638,0.2105558946610496,970.5999636508695,970.50409354683,970.72506612646,0.0024421607347549896,0.22097257963002903,0.049126667218458514,0.0013583366561698183,-0.2946496191594359,0.61,0.39,0.305282033236264,Stairs down
0.584673563635625,0.32666015625,0.93444824218,0.02430261404243312,0.15507888899790467,0.7376492818159376,0.38659667968,1.19750976562,0.04595362606611035,0.21324854621135178,-0.33961486816072917,-0.71350097656,-0.07214355468,0.026421812725858387,0.16169905846962754,1.0191564286088541,0.54121750463,1.49181390249,0.058912735796019904,0.24145198583737382,970.660085306819,970.60054084785,970.7216309221,0.0011152242820156488,0.12109007424999163,0.03322058642485589,0.000964138534847569,-0.7313508018262844,0.44,0.56,0.07978471268085174,Stairs down
0.3431754064037373,0.19897460937,0.52380371093,0.008021816079839745,0.08911109714614021,0.6865419329986867,0.46545410156,0.92211914062,0.016387006264394224,0.12736357779440818,-0.6975923788633333,-0.90234375,-0.48181152343,0.012984123104777909,0.11337094136569471,1.044969719158384,0.80019723018,1.24803423091,0.021010060176569725,0.1442145531716663,970.7121284286667,970.67096014468,970.76334527144,0.0006106181882825082,0.09238512676006394,0.024585571536875163,-0.00017462815552358598,-0.16008853831128045,0.58,0.42,0.3089603839000465,Stairs down
-0.32771764176426965,-1.02465820312,0.44409179687,0.24185183371168806,0.48901369855848503,0.6637264637429213,0.37170410156,1.0078125,0.03721200989084888,0.1918173543247982,-0.32420091950179775,-0.76989746093,0.140625,0.053116703761007834,0.22917217733576808,0.9702659262649438,0.50990489358,1.3589293418,0.04052546388696815,0.20017522722880407,970.7459415959415,970.70015238655,970.81853701777,0.0012039188982129647,0.1183846312200103,0.03450205384584167,0.00027368126202956494,-0.7906953021954632,0.62,0.38,0.5573498009659091,Stairs down
-0.8895828247024999,-1.04028320312,-0.70300292968,0.012348892169736577,0.11042885047674303,0.448965454097625,0.30920410156,0.65808105468,0.0061437543339896705,0.0778906759812418,-0.2496337890585,-0.41674804687,-0.13122558593,0.004372820446731351,0.0657127095100119,1.0332431040106251,0.83086443291,1.22265411108,0.010362477214034566,0.10115802612180179,970.7474231044889,970.71477864309,970.77409153228,0.0002490396788358684,0.05931288918998234,0.015682049701822146,0.00048460513766874797,-0.630517245626316,0.42,0.57,-0.2976396866042975,Stairs down
-0.8845595322611686,-1.09143066406,-0.595703125,0.024184011808844823,0.15449897648012195,0.3893345424063637,0.26550292968,0.6787109375,0.00844892719422486,0.09131922506803886,-0.12475585937168832,-0.30261230468,0.13903808593,0.012068191248569634,0.10913964216587255,0.9847862927280518,0.74411289033,1.23345403478,0.0242221029882176,0.15462060089825305,970.7560048793895,970.72730299303,970.79719585851,0.00028881202031406776,0.06989286548002838,0.016883755946336215,0.0003492844166742499,-1.0065801224338011,0.53,0.47,0.1275096075414839,Stairs down
-0.9105759393558096,-1.47924804687,-0.57336425781,0.04625330777258412,0.21403924892297652,0.4201532273024761,0.23950195312,0.62768554687,0.009416669298804215,0.09657632595027468,-0.22182965959457143,-0.40307617187,-0.08642578125,0.007212064087717698,0.08451850544746262,1.0305319899406669,0.66311949924,1.63368508873,0.05570316221715223,0.23488860319377397,970.7914261199666,970.75329384536,970.84987035136,0.0008767063398306685,0.09657650600001944,0.029467893641076638,0.0006458503023127962,-0.8066971520776609,0.57,0.43,0.6373303225065622,Stairs down
-0.8747965494754166,-1.24169921875,-0.59240722656,0.022863075189648932,0.15041581750741317,0.4266141255652083,0.18493652343,0.61853027343,0.008361174870481377,0.09096196622167896,-0.20663706461239584,-0.34643554687,-0.07763671875,0.0029220005333067895,0.05377325569231893,0.9988883700812501,0.69624776838,1.38074184279,0.0262535506639344,0.161183361975893,970.8598394352421,970.80153409433,970.92418429573,0.0010499286306441735,0.12265020140000615,0.03223339687459209,0.0008767379107988651,-0.34631054025563657,0.7,0.3,0.49889790802396483,Stairs down
-0.887103413424186,-1.32446289062,-0.47924804687,0.041443693118209265,0.20239019173333966,0.44837561318674407,0.12145996093,0.81640625,0.021302524604649955,0.14510279401230453,-0.2615455804837209,-0.47863769531,-0.09045410156,0.005941142217133757,0.07662936231039195,1.0369312538026745,0.57080053324,1.50839391181,0.052980858224045184,0.22883356775846483,970.9524206187277,970.87736722273,971.09346755719,0.002716779000627507,0.21610033446006582,0.05181880495661626,0.0016258657141751116,0.004626481474533151,0.47,0.53,0.589187057164992,Stairs down
-0.9125241515421505,-1.36340332031,-0.60852050781,0.047320816549129605,0.21636078795551278,0.3510676558266667,0.07763671875,0.67260742187,0.02274070011722756,0.14998725432533616,-0.29561491935043016,-0.49890136718,-0.09985351562,0.01517983984707574,0.12254230193161292,1.0334870726025804,0.66727528631,1.57951041586,0.06021371956010615,0.2440620007498043,971.062439621709,970.96411362861,971.20689389838,0.003296721832067123,0.2427802697700372,0.057107558258228296,0.0010360762005322754,0.5987578255757104,0.57,0.43,0.8932327710892923,Stairs down
-0.878849444999307,-1.26330566406,-0.50244140625,0.04528282510195335,0.2117415412689813,0.41820201306772264,0.17431640625,0.62719726562,0.011475296348068575,0.106591179525058,-0.3357090713920791,-0.49536132812,-0.2041015625,0.00763295223230565,0.08693318381278449,1.0364245048953462,0.67391468542,1.45433851556,0.05004311163120338,0.22259298119756424,971.152427249041,971.09283979933,971.20901561041,0.0011232259329768742,0.11617581107998376,0.033348236597090394,0.0008227832314858302,-0.7132886877610032,0.59,0.41,0.04032491395420034,Stairs down
-0.9069001272779775,-1.232421875,-0.65148925781,0.024985844024180193,0.15717857425133933,0.46377117713786514,0.296875,0.62414550781,0.008873264719122422,0.09366731081619017,-0.22423493459932584,-0.31530761718,-0.09265136718,0.0046589990224233145,0.0678723118716357,1.046538694271573,0.758606976,1.4169827756,0.031023511711597986,0.17514260740414253,971.213297664964,971.16822235884,971.2531313743,0.0006304202080365053,0.08490901545997076,0.024966714539812793,0.000642958153438889,-1.1399359128139315,0.52,0.48,0.035175645282566316,Stairs down
-0.87187042235975,-1.08447265625,-0.65576171875,0.01998396660827487,0.14047835073658657,0.441477966305375,0.33544921875,0.6201171875,0.005469454879147981,0.07349208592194557,-0.24259185790612497,-0.36669921875,-0.17626953125,0.0022677868204027587,0.047322716375412396,1.0095410083818752,0.78661022972,1.25841451537,0.02239319821908236,0.14870535713733998,971.2405658515556,971.21395601366,971.27616785764,0.00023891755268783544,0.062211843979980586,0.015360048283753456,0.00031633095783633144,-0.23448832118767493,0.59,0.41,0.6630794393675362,Stairs down
-0.8656018066361,-1.10229492187,-0.66235351562,0.01830731813820506,0.13462631598919658,0.4266748046826999,0.32214355468,0.56689453125,0.0035591203397240365,0.05935932223608013,-0.2896142578083,-0.39904785156,-0.19921875,0.0029968304706350516,0.0544689100857425,1.0103343146204,0.8094101714,1.24906708951,0.019225761505596618,0.1379619653764785,971.2535295411523,971.23029803285,971.28511140287,0.000326225029637236,0.054813370020042385,0.017971165219341334,-0.00023767331076428075,-1.1147744279373348,0.55,0.45,0.41958373469076743,Stairs down
-0.8693046569791667,-1.03918457031,-0.62780761718,0.01518910553203069,0.12260051257127233,0.47174072265322914,0.31213378906,0.62756347656,0.0074445940945653075,0.08583149910967176,-0.3056170145638542,-0.43225097656,-0.18896484375,0.004428463662821818,0.06619919812959034,1.0376990122731249,0.79378691872,1.25547771676,0.021819972711075455,0.14694448383205277,971.2568863687079,971.22954074815,971.28370139562,0.00031079215470848767,0.054160647469984724,0.017537238563419107,-8.490754647042285e-05,-1.2045256237981492,0.51,0.49,0.06665456576434912,Stairs down
-0.881466920343793,-1.22155761718,-0.65710449218,0.021712222410285822,0.14650138782774363,0.3639449196263218,0.20153808593,0.50207519531,0.006456756904139541,0.07989080865494,-0.23942758844862058,-0.33020019531,-0.15270996093,0.0020839576653070677,0.04538726835715306,0.9838836770220686,0.73952144825,1.32028366373,0.022469349666048525,0.14903382595599715,971.2783389594842,971.2422132797,971.34676669803,0.0005764271819004137,0.10455341833005605,0.023870517005470472,0.0007344583564854109,0.08782310458747711,0.47,0.53,0.6361873921567447,Stairs down
-0.9420351774753261,-1.48034667968,-0.63208007812,0.042956390529528994,0.20612974855940747,0.39067409349195653,-0.03674316406,0.81225585937,0.032681086580709985,0.17979393031675386,-0.2747338336419565,-0.46350097656,-0.12353515625,0.008675698671605208,0.0926358332347033,1.072706699865326,0.72400412769,1.54230008666,0.048762291467052084,0.21961845678312542,971.3679095391942,971.2953155132,971.43578896767,0.0014609098266459362,0.1404734544699977,0.03801355510878298,0.0011783680985887064,-0.3526103312391604,0.55,0.45,-0.06945067412266215,Stairs down
-0.7990539550747999,-1.13220214843,-0.53454589843,0.026592070218045584,0.1622533497831867,0.5251513671830998,0.32312011718,0.71826171875,0.009473779863888136,0.0968454545409812,-0.3644189453082,-0.49755859375,-0.13537597656,0.009352792959104671,0.09622507484805415,1.0304270364871002,0.70598497481,1.33025772853,0.026526987260093133,0.1620546740686371,971.4413243935596,971.38950893021,971.52816081173,0.0012580486089290056,0.13865188151999064,0.035291190442371244,0.0009762984969769637,-0.71897866358211,0.63,0.37,0.3794672972433622,Stairs down
-0.7815592447888887,-1.15246582031,-0.50549316406,0.028871559427089518,0.1689697142163177,0.4998792860212221,0.26281738281,0.67431640625,0.01190507194122144,0.10850250395311971,-0.3622002495623333,-0.46813964843,-0.23083496093,0.004570925356734767,0.06723196633459036,1.004838501209889,0.76434278164,1.31170847276,0.02796334147706258,0.16629082260567776,971.5492561453311,971.48732015947,971.6282601597,0.0018370105256001637,0.14094000022998898,0.04262158253206865,0.0013420583629739783,-1.101714745959536,0.56,0.44,0.3408573546225511,Stairs down
-0.8525933159690123,-1.24975585937,-0.60534667968,0.02903997935362132,0.16935601875928816,0.4351369598728395,0.15148925781,0.69482421875,0.02333209116329891,0.15180263718101222,-0.28033824025432097,-0.43872070312,-0.13635253906,0.005318699436771455,0.07247783440999,1.0074374288479016,0.73449288091,1.40831391616,0.037358648294911825,0.1920870386432352,971.6566149211081,971.58875155625,971.71767447973,0.0014079114092215334,0.12892292347999046,0.037289808083247965,0.0012765607874441732,-0.5886155355698546,0.35,0.65,-0.6438717870678357,Stairs down
-0.9386883171199998,-1.17919921875,-0.7001953125,0.020371622200731597,0.14199911445078015,0.4192666812788775,0.21337890625,0.54638671875,0.007416021082825872,0.08567582738618426,-0.30487932477265306,-0.42102050781,-0.12487792968,0.005216350567869228,0.07185487110036559,1.0784694530028571,0.81405016767,1.31929410222,0.019643005579690603,0.13943660476089045,971.7663061345055,971.68112663427,971.86685974163,0.0027608966229917356,0.18573310736007898,0.052275464689196326,0.0012584229806208978,-0.7509843263512086,0.44,0.56,0.2595288786213225,Stairs down
-0.902131995372857,-1.09619140625,-0.66821289062,0.018540799786995,0.13546810677216178,0.39766148158061226,0.20288085937,0.56567382812,0.007277046051811336,0.0848692552097288,-0.2988443179956123,-0.46362304687,-0.18701171875,0.00555840645792692,0.07417336465796039,1.0337936772901022,0.79514017317,1.27517987039,0.023854853532535532,0.15366013360580733,971.811921042686,971.77927010437,971.86093164707,0.00035899024167843584,0.08166154269997605,0.018850121377514344,0.00038893347749859676,0.08372574408823752,0.59,0.41,0.5302439467399778,Stairs down
-0.872154929418068,-1.07299804687,-0.58654785156,0.01960464604898397,0.13921877021524617,0.45119406959886366,0.31982421875,0.60571289062,0.0044212740541308354,0.06611378300714392,-0.3173259388284091,-0.47412109375,-0.19384765625,0.006416865788817487,0.07964889741483624,1.035423336789659,0.77388106256,1.26822699233,0.023184884168424506,0.15139821523254987,971.8283833821423,971.79458550062,971.87959209948,0.00042916530845815194,0.08500659885999085,0.020598262789685583,7.754274924813245e-05,0.847173275248851,0.62,0.38,0.8672813900645584,Stairs down
-0.8623816448669565,-1.16381835937,-0.50927734375,0.03344608359150545,0.18188606105098118,0.5942051099648913,0.4052734375,0.9970703125,0.030412937620191625,0.17344267701830623,-0.34125021229249997,-0.66076660156,-0.11486816406,0.01706821397048426,0.1299334056568506,1.1094101578663043,0.7295781076,1.66890229894,0.06317692010614626,0.2499804281395217,971.8316120203543,971.79114760624,971.87866939247,0.0006454556502567935,0.08752178623001328,0.025267366858685407,0.0003441701707678039,-0.6982693080101936,0.48,0.52,0.4979584969074289,Stairs down
0.3277851179518629,-0.69189453125,0.99768066406,0.11201810973218054,0.3330463826107414,0.6992355047449018,0.28955078125,1.07788085937,0.049774567985874665,0.2220058152959711,-0.16128958907637253,-0.75610351562,0.15881347656,0.055739284852087935,0.23493152465156028,0.8763346570054902,0.29597560266,1.25453632484,0.0705159037854529,0.2642433942322862,971.815358695923,971.76284849707,971.90901612614,0.0017117795413500068,0.14616762907007796,0.04117034599057713,-0.000668145348907846,-0.6658802276874023,0.57,0.43,0.7536401577868007,Stairs down
-0.06719428168133332,-0.228515625,0.09765625,0.007241365668586814,0.08462213687946529,0.8255574544235555,0.45288085937,1.56091308593,0.058254130251398605,0.24001429569401522,-0.6171264648406666,-1.06481933593,-0.39172363281,0.030422735498777335,0.1734494309715269,1.0473460990418892,0.637813049,1.79248329937,0.06555223594101448,0.25460533726513296,971.887638046965,971.80224884582,971.97079267769,0.002262359678596349,0.16854383187001076,0.04729928486599102,0.00048233622835150327,-0.773584050503862,0.38,0.62,-0.26162506146370806,Stairs down
-0.02175112123765432,-0.23010253906,0.12878417968,0.006420123618062766,0.07962953492677566,0.8217366536418519,0.46252441406,1.50964355468,0.07314188554854104,0.268772951219428,-0.5752344955592592,-0.97729492187,-0.27368164062,0.03868493878375779,0.1954669970785894,1.0129375988350617,0.55833936113,1.63787274431,0.09858053772322736,0.31203123889705653,971.959362376642,971.88393713955,972.11096113041,0.0024475163394851967,0.22702399086006153,0.049166046092607864,0.0012936106973408766,1.4221525269242488,0.56,0.44,0.910197680527142,Stairs down
-0.11187303680443297,-0.36340332031,0.08801269531,0.010966155696913756,0.10417822491000306,0.8191824057632989,0.49658203125,1.35900878906,0.052045855136608817,0.22695660362504308,-0.6973046371580413,-1.14978027343,-0.34375,0.0478754365029657,0.21767378184316136,1.092620705663402,0.60834381691,1.75384455531,0.08662647505393638,0.29280269570152756,972.0909456403836,971.97990324082,972.20057228726,0.003951596522099779,0.22066904643997987,0.06253685644181776,0.0012269131661237266,-0.8057505015328288,0.49,0.51,0.20086738369119336,Stairs down
-0.08251953124757574,-0.26538085937,0.0869140625,0.0073729507165304934,0.08543112118466296,0.6591846196310099,0.31213378906,0.92395019531,0.02654071240984674,0.16208832285426017,-0.7482601897850504,-1.24169921875,-0.453125,0.04508241839055672,0.21125113118517436,1.0112828136054546,0.57837324998,1.56925066827,0.057311261247329666,0.23818555711580994,972.2019570994794,972.12184727967,972.33469582201,0.0027444719635957315,0.21284854233999795,0.05212245221178213,0.0005337992943010655,1.1235372938964048,0.58,0.42,0.9146561394156465,Stairs down
0.20181792636933968,-1.05163574218,0.76684570312,0.35570315291562904,0.5935886309505797,0.689954073920283,0.12109375,1.00268554687,0.02699442787656325,0.16352297533568,0.022376870208679248,-0.74145507812,0.41064453125,0.10768042642635717,0.32659542762700033,0.9798386383683964,0.48789694349,1.44359151085,0.04334477922042566,0.20720971552731837,972.3962333793154,972.33199796629,972.51347131374,0.0028015845050773174,0.1814733474499235,0.05267973483775889,-0.000867670663228593,-0.515809227049171,0.59,0.41,0.8249305668380534,Stairs up
0.41423911236234023,0.1884765625,0.60388183593,0.015295060609220075,0.12301360574539587,0.6951293945279786,0.31030273437,1.08642578125,0.04265426075284264,0.20542758339967257,-0.467150099731702,-0.94348144531,0.34008789062,0.12326598887241694,0.3492200575071019,1.0159973733591487,0.72052575593,1.22431624705,0.02028071037960803,0.14165083177139162,972.4032165683664,972.34975887838,972.53684956259,0.0020088674983140763,0.18709068420992025,0.04458134775307884,-0.0003352718490459741,1.0395432989490585,0.73,0.27,1.2861507538983221,Stairs up
0.37513078961642854,0.24584960937,0.52087402343,0.008209944412602393,0.0900677910194262,0.6088329496804763,0.40087890625,0.83874511718,0.014735811213018618,0.12066641988993504,-0.7274373372360713,-0.96118164062,-0.52551269531,0.012421319582809776,0.11078558900251183,1.0280631391685713,0.74816401587,1.24445245688,0.0198342882426229,0.13999344900224459,972.3215853278879,972.27757339001,972.36343411744,0.00038299946290433094,0.08586072742991746,0.019453532982180978,-0.0006503958612637278,-0.13212593825673746,0.42,0.58,-0.6482118054873642,Stairs up
0.40812800480410255,0.27233886718,0.56457519531,0.006922440958966904,0.08266614612949624,0.6175944010387179,0.38806152343,0.82531738281,0.014947992124742595,0.12147572267768736,-0.7141441932058973,-0.95068359375,-0.52868652343,0.014066757967664363,0.11784063355564951,1.0369319625026925,0.74816401587,1.24527559955,0.01847871071027511,0.13506222329988307,972.2463407230704,972.17827956964,972.29228965816,0.0011393528163841393,0.11401008851998995,0.03353722899994272,-0.0013632751923219272,-1.1388800536791681,0.33,0.67,-0.3757073294147391,Stairs up
0.036701202391354174,-0.80798339843,0.51123046875,0.14687321431333714,0.3812391441045544,0.78268686929875,0.39538574218,1.30285644531,0.060508211499814696,0.2446996477930137,-0.27399698893093755,-1.06909179687,0.25598144531,0.1363975840684869,0.36739185606257907,0.9966844149872918,0.59123295017,1.33925483372,0.03621546343741793,0.18930984925938613,972.1817817125842,972.09161136087,972.36655767448,0.006678329386881339,0.2749463136099166,0.0812943014962795,0.001641925474334498,0.13261172986141556,0.69,0.31,1.105832093064687,Stairs up
-0.3232247488821429,-1.05078125,0.67358398437,0.3936930848727743,0.6242401849420794,0.5865902024831632,0.08874511718,1.04040527343,0.0700559914429164,0.2633270483398476,-0.34138083944326536,-0.72546386718,0.25720214843,0.10450086791207722,0.3216123948563228,1.0375518429842858,0.59987101608,1.3906336259,0.051567024132677,0.22592217688592275,972.0143576119439,971.83862094206,972.36655767448,0.02560921206682056,0.5279367324200166,0.15921021819073924,-0.004686904136437281,-0.4304718133111005,0.55,0.45,0.8423118733412274,Stairs up
-0.6817503511207864,-1.28503417968,0.44165039062,0.26279944521389015,0.5097515497364161,0.5947526224510112,0.27392578125,1.30065917968,0.09574500588900968,0.30768363509616026,-0.14173460542314606,-0.36145019531,0.25720214843,0.027338752908445275,0.16441282160912507,1.0744859343052808,0.43306703622,1.38163561228,0.06637613546954947,0.25618418412269467,971.8766073039711,971.84201246267,972.07675226491,0.0010678706048754408,0.23473980224002844,0.032494184999061676,0.0001140694221833386,14.359380618321623,0.56,0.44,2.9128644099328955,Stairs up
-0.9559826078839048,-1.18334960937,-0.65393066406,0.01800305702806547,0.13353501167141107,0.3346819196382857,0.15600585937,0.46606445312,0.007011933886741851,0.08333758794212234,-0.21040504091847614,-0.30749511718,-0.03015136718,0.004178366730995618,0.06433173992772925,1.040843426325143,0.77787300763,1.26127891432,0.015896699838854975,0.12548028808355735,971.7944763401774,971.76287029306,971.82863059625,0.00032727855153603827,0.06576030319001802,0.01800448868893479,-0.0005350238068621593,-0.7497811834141497,0.46,0.54,0.02184937368028332,Stairs up
-0.9793530535925806,-1.25463867187,-0.76928710937,0.01827102789122421,0.13444167964484519,0.3875614289277418,0.17663574218,0.65698242187,0.023159802628671778,0.1513630486376368,-0.21057916456301076,-0.29248046875,-0.06530761718,0.004057083054265339,0.0633518626821244,1.0892542226994621,0.88455174873,1.31275583793,0.012336534789158317,0.1104711902599358,971.7426397272119,971.70695567691,971.77970856065,0.000530877739240301,0.07275288374000866,0.022916574273934814,-0.0007352608080622941,-1.2877007744341438,0.49,0.51,0.03577576215813974,Stairs up
-0.9628170886628915,-1.21533203125,-0.70324707031,0.017801177188801857,0.13261487538914685,0.39698148060542165,0.25402832031,0.55737304687,0.008950181044870775,0.09403375744011332,-0.1763239481318072,-0.37780761718,-0.02893066406,0.008951823614381777,0.09404238575144168,1.0664350239136144,0.85394079237,1.31602411921,0.013857497453673,0.11700657952878692,971.6950501201943,971.66239397182,971.72489787009,0.0003225112597188882,0.06250389826993796,0.017850086327268835,-0.0006788054913265335,-0.7448020753187032,0.46,0.54,-0.28970735352585714,Stairs up
-0.9914717240722727,-1.25805664062,-0.65563964843,0.030012533644683072,0.17225412078087854,0.3291293057493182,0.06530761718,0.47900390625,0.011337481260058731,0.10587089423321162,-0.18467573685625,-0.37780761718,-0.02795410156,0.005449148834937927,0.07339772945457074,1.0699870908687499,0.77013971507,1.30240943894,0.027150920952666305,0.16383646651469985,971.6341903364327,971.60564041917,971.66736142048,0.00038911474012672827,0.06172100131004754,0.01961359175970065,-0.0006761628304619229,-1.3446602430696468,0.57,0.43,0.45591289032000215,Stairs up
-0.9883171530294117,-1.21923828125,-0.79113769531,0.019865256308384358,0.14025155576176784,0.30750349455833337,0.19860839843,0.44372558593,0.0048029668435944,0.06896288083717995,-0.19244624118774503,-0.29797363281,-0.01818847656,0.006801933855765243,0.08206855810679464,1.0568771262205885,0.85985311732,1.31284558197,0.0227602557771837,0.15012366906874575,971.5547716650733,971.52459046117,971.61446392718,0.0005454161667156982,0.08987346601008994,0.023239383584659816,-0.0006717770659832989,-0.22801817722845374,0.54,0.46,0.6093879802605068,Stairs up
-0.9711914062480436,-1.322265625,-0.62512207031,0.03186138645658955,0.17752483499100385,0.3843264372419565,0.15393066406,0.51867675781,0.008602527491258009,0.09224435894762009,-0.15583204186130437,-0.28381347656,-0.05725097656,0.003997545724872462,0.06288158825050826,1.065192924874239,0.800362659,1.40194475985,0.024815128592756627,0.1566697128807598,971.4787417665756,971.45265952786,971.52781220524,0.00032568554452203666,0.0751526773800606,0.017948411747435836,-0.0006174945084340153,-0.7338841386545352,0.61,0.39,0.2067760005927848,Stairs up
-0.9528138695659755,-1.25451660156,-0.57592773437,0.02942817967352145,0.17049721239246246,0.3537404130109756,-0.00500488281,0.71801757812,0.03255880668910967,0.1793369679428918,-0.16903016624987804,-0.34399414062,0.01721191406,0.01097628977884984,0.10412700219647564,1.0571082297081706,0.78148866822,1.3476910628,0.019107889983438847,0.13738583236586052,971.4095423479645,971.37592494074,971.46514144257,0.0005329217483280198,0.08921650183003749,0.02294390338666685,-0.0008972488048767008,-0.9564589464745175,0.59,0.41,0.19191693463909934,Stairs up
-0.9785605376589622,-1.25451660156,-0.71557617187,0.018608389390514048,0.13576759019444704,0.3580564102990565,0.22766113281,0.482421875,0.003679496169105232,0.060372046023758424,-0.1560047077651887,-0.23803710937,-0.0693359375,0.003090126314285557,0.05532607142428538,1.0582548017933018,0.82640791062,1.3476910628,0.015504225088111096,0.12392723192944702,971.3457217929471,971.31135101622,971.39332101133,0.0003410892933520832,0.08196999511005743,0.01838128041867306,-0.0005512334540757597,-0.5910144916981999,0.45,0.55,0.04304264048358336,Stairs up
-0.0907043457025,-0.38195800781,0.212890625,0.07354951466782685,0.2694998065574056,0.5739257812465001,0.154296875,1.05017089843,0.1344275597524005,0.36434491248746087,-0.6413162231402499,-0.99645996093,-0.3427734375,0.08365649925874565,0.28742093350695824,1.01447748996325,0.74853302618,1.18814399473,0.00782597988801504,0.08790992628489033,971.0933214185795,970.97482533861,971.21897223677,0.007706840050895171,0.244146898160011,0.08723820579458853,-0.002161405144055547,-1.438343855584546,0.45,0.55,0.08663571326826171,Lift down
-0.3587563523932038,-0.37219238281,-0.34973144531,2.610603446613619e-05,0.0050845430296963656,0.8753697663798057,0.85754394531,0.92883300781,0.0003209588738793427,0.017828145397312044,-0.42302933479543664,-0.45141601562,-0.37475585937,0.0003842903635173454,0.019507931441192436,1.036573704026311,1.02590205199,1.07778601223,0.00017305739793967482,0.013091112597011728,971.1740846247402,971.12984807291,971.2005687852,0.00035647583012832803,0.07072071228992627,0.018788690740409047,0.0005442218354494844,0.434990570055084,0.46,0.54,-0.9527408380990835,Lift down
-0.34516521076208795,-0.35461425781,-0.32580566406,5.220670765845747e-05,0.007185611148280889,0.8516309130287912,0.81359863281,0.8837890625,0.0006847620701483385,0.02602378166667213,-0.39954954712934054,-0.41357421875,-0.38244628906,8.717127990398319e-05,0.00928511463317455,1.002120755163846,0.95922275229,1.0303230816,0.0006300749024613213,0.02496299265781797,971.2120403154644,971.20150182152,971.22804009725,5.344353158986246e-05,0.026538275729990346,0.007270229709846168,0.0002438011638624896,-0.5556827753130626,0.53,0.47,0.5091665083776463,Lift down
-0.353322959803976,-0.36889648437,-0.33679199218,8.696213018409328e-05,0.009269001762641497,0.8571556734720481,0.82019042968,0.890625,0.0005454101738770152,0.023212905181446683,-0.4006759459679518,-0.42956542968,-0.38696289062,0.00011832731422226842,0.010812108209337985,1.010081498419759,0.97224268106,1.04356321616,0.0005781635888968611,0.023899743984499285,971.2839088569451,971.22804009725,971.37306893084,0.0021451888633149804,0.14502883359000407,0.04603632494410667,0.0018609671704935115,-1.0089783503625642,0.58,0.42,0.5752683054310309,Lift down
-0.36194233141105253,-0.37194824218,-0.34777832031,3.3581971052054036e-05,0.005764414681468288,0.8847052323153682,0.86853027343,0.91186523437,0.00012051325962741988,0.010919922115096006,-0.3894312808354736,-0.41369628906,-0.37658691406,6.666563259884158e-05,0.008121815628158592,1.032232741431579,1.01762992595,1.05379493527,7.713841143542912e-05,0.008736499765762112,971.4797510049663,971.36603316944,971.58620165319,0.003813892110512284,0.22016848374994424,0.061430821887469886,0.002228417877731734,-1.0282428655339808,0.52,0.48,-0.10399557591978557,Lift down
-0.3798438003350516,-0.390625,-0.36560058593,2.958952958002628e-05,0.0054115139178722415,0.9309912612716497,0.90905761718,0.94580078125,8.296362634066047e-05,0.009061364755032568,-0.3784771162184535,-0.39196777343,-0.34582519531,0.0001361500823803776,0.01160803485882398,1.0744742045919589,1.04538030105,1.08791578664,0.00012797830850571324,0.011254285605959168,971.6769893467261,971.58620165319,971.74632887921,0.0022913055694528317,0.16012722601999485,0.04762020435226266,0.0016764373411281208,-1.1192930281103377,0.49,0.51,-0.3678743348970565,Lift down
-0.3902994791634481,-0.55541992187,-0.33386230468,0.0021934362576099178,0.04656419597290291,0.8681275817136779,0.63720703125,0.95458984375,0.005858662209853879,0.07610073104059532,-0.3782538052227587,-0.57885742187,-0.32763671875,0.005635046275435198,0.07463427917914874,1.0299555276327588,0.91608997197,1.13822373328,0.001797212689504664,0.04214920013931368,971.7801895208703,971.74632887921,971.86157017639,0.0006284896788418944,0.11524129718009135,0.024925201293968743,0.0009033689813938594,1.7254827298061066,0.49,0.51,1.089057845643238,Lift down
-0.6543355048418986,-1.16320800781,-0.27038574218,0.06929787059078835,0.2615734741051965,0.6580686931326581,0.30712890625,0.92956542968,0.04930978615811667,0.22064816257967362,-0.3611936931331647,-0.58142089843,-0.18151855468,0.015607562812126718,0.12413701593762139,1.0558700037548099,0.84045587454,1.23988634768,0.009444621816247485,0.09656640016775128,971.8151931435802,971.75374321206,971.91055976319,0.00263380634739503,0.15681655112996395,0.05099477450231473,-0.0015954661535059404,-1.4001908159788965,0.58,0.42,0.4338298575019315,Lift down
-0.9363081737201074,-1.31311035156,-0.64892578125,0.033838042551575145,0.18295953823637,0.25912639658526876,0.03100585937,0.43603515625,0.007003213205551958,0.08323406656982658,-0.08041677167182797,-0.28430175781,0.09533691406,0.010824985843660923,0.10348230837402718,0.9839202577993551,0.69071621055,1.33540513769,0.03365989400012393,0.18247728531528679,971.8281801441291,971.78931863142,971.88798624582,0.0008472814084596207,0.09866761440002847,0.02895118055762986,0.0008859447259272831,-0.5933803685627788,0.48,0.52,0.40956679880668545,Stairs down
-0.9426182338134526,-1.36584472656,-0.64855957031,0.030044478388309266,0.17229859554431567,0.3326546805211905,0.08911132812,0.53527832031,0.009707764695073206,0.09793975733965704,-0.1699204217784524,-0.39782714843,0.01159667968,0.01375298955836155,0.11657299641079223,1.0253951166416668,0.74524746577,1.48345253539,0.02984969479006054,0.17173916641423137,971.9025740440127,971.84098510471,971.99595534654,0.0011225328320872729,0.1549702418300285,0.03330419412012541,0.00044348882356098153,1.1062496163006301,0.55,0.45,0.7894657225524175,Stairs down
-1.0178620413413484,-1.75451660156,-0.59729003906,0.08132805532216851,0.28357407664975676,0.36016365650887644,0.12084960937,0.68103027343,0.016350434942629565,0.12714842582771202,-0.18216593881314608,-0.33068847656,0.01721191406,0.008388835735070897,0.09107458017349279,1.1018755200457304,0.65561997734,1.91088607902,0.09071054010577163,0.2994850923735961,971.9738427920532,971.925393497,972.02434318298,0.0008665248618330093,0.09894968598007381,0.029270951939258674,0.0009075135239178721,-1.047453078455374,0.63,0.37,0.2601993276252246,Stairs down
-0.9651865332974748,-1.49645996093,-0.52722167968,0.05702166583955832,0.23758301584275027,0.4008073903058585,0.21337890625,0.6552734375,0.012438522616876307,0.1109634217852063,-0.19452582464919194,-0.36767578125,0.00280761718,0.011379408052244853,0.1061341817538799,1.0735665244581816,0.70156349997,1.63745269161,0.05813710057165892,0.2398955129458264,972.0755714432161,972.00072300033,972.17336260245,0.0023399050429600697,0.17263960211994345,0.04812763902879223,0.0009616804884192664,-0.5331515565465934,0.61,0.39,0.5435446225212041,Stairs down
-1.0424996708188763,-1.81225585937,-0.41101074218,0.15033201802128435,0.3855423377831446,0.322700414761573,-0.02209472656,0.70544433593,0.03241792963098447,0.17903542451324078,-0.2966418319834832,-0.66259765625,-0.017578125,0.02607764257643489,0.16057594887303314,1.1477168745732587,0.49334539724,1.97310442979,0.1700756488037127,0.41007887833635565,972.1424539852425,972.0637518899,972.28775670798,0.003792594735312564,0.22400481807994765,0.061237090976958466,0.000702848821108582,0.13545526410879694,0.63,0.37,0.9580042642206881,Stairs down
-1.0141493398884809,-1.88793945312,-0.458984375,0.13405421574471807,0.3638094651570007,0.35466988478658235,0.05493164062,0.58703613281,0.02267111830123337,0.14961330863330674,-0.2197296528836709,-0.51428222656,-0.06164550781,0.015719014855071278,0.12457945249313025,1.1164722109268352,0.57504894939,1.96872054562,0.1279415557631062,0.3554181233406876,972.1977824968208,972.15101685112,972.29008430034,0.0015878794280948817,0.13906744922007874,0.039595197795929044,0.0012683611673355083,0.2337179928508677,0.49,0.51,0.9287284995678551,Stairs down
-0.7022833573151577,-0.70751953125,-0.69262695312,1.4621676818390056e-05,0.003803651460219253,0.7416298314105262,0.73620605468,0.74645996093,8.643514498479658e-06,0.0029244709154542413,-0.07648925780884211,-0.08825683593,-0.06909179687,1.753276966926997e-05,0.004165118749695755,1.0242225585790523,1.01399347132,1.03056858409,1.5683241594643812e-05,0.003939308929370224,972.3865373645856,972.37489501554,972.39436277704,1.6165033890293544e-05,0.01946776149998186,0.003999359403556621,8.70915469038316e-05,0.9615634304526948,0.67,0.33,0.000653318866929164,Lift up
-0.7025909423792708,-0.72436523437,-0.69226074218,7.966827404873978e-05,0.008879098839075134,0.7457326253219793,0.73425292968,0.771484375,9.487551034952747e-05,0.00968954198006214,-0.07279713948208334,-0.08703613281,-0.05981445312,5.426845398567454e-05,0.007328243827138288,1.0271863258391667,1.01684687546,1.06110299354,0.00016219475575212413,0.0126690657527054,972.3897030960314,972.38430908226,972.39556777818,1.1565963840887328e-05,0.011258695919991624,0.0033831176525326583,8.650478355570164e-05,-1.1210514264148548,0.52,0.48,0.13957278498711903,Lift up
-0.726718636442558,-0.74670410156,-0.69274902343,0.0002090845568151877,0.014375442290179003,0.7826836164574417,0.75256347656,0.796875,0.00014213189871129048,0.011852392257036028,-0.06619333666069765,-0.08227539062,-0.05261230468,4.8126608503134585e-05,0.006896883120392425,1.0701318736418606,1.02670597542,1.09061358891,0.00031126981194968704,0.017539965665065237,972.3772538360892,972.32808185036,972.39575746741,0.00039583708033025857,0.0676756170499857,0.019779644172285615,-0.0007024557251812841,0.42321777457252985,0.23,0.77,-1.269685647573841,Lift up
-0.6993531818597468,-0.70617675781,-0.69104003906,1.771274092252936e-05,0.004181928862632361,0.7443136867049366,0.73742675781,0.75317382812,1.7357028293694255e-05,0.004139724516774846,-0.07299959206518987,-0.07934570312,-0.05981445312,3.628757277044198e-05,0.00598566925299579,1.0239511478674685,1.01603213732,1.03453055131,2.1450020795199448e-05,0.004602010598056821,972.2248184600347,972.13199486021,972.31668199759,0.0035224895735900255,0.18468713737991038,0.05897373227102862,-0.0025738123359416018,-1.2406982828446496,0.51,0.49,0.06100270543227811,Lift up
-0.6167877532584615,-0.77697753906,-0.37939453125,0.013392994491901334,0.115090480615271,0.7141931554730767,0.48132324218,0.875,0.011695041277426346,0.10754777701241328,-0.21202271848835166,-0.51977539062,0.00366210937,0.026607005943453683,0.16221782042290048,0.9866350673990111,0.73617344655,1.16337591443,0.01327673535400151,0.11458986501125741,971.9886096571768,971.85011621079,972.11384679843,0.005442419737579223,0.2637305876399978,0.07336629285493547,-0.0021948241058926516,-0.5935325509644933,0.37,0.63,-0.29045849753071934,Lift up
-0.2644615951841837,-0.79504394531,0.29833984375,0.12569976412098094,0.35272810132832516,0.8963261818361223,0.54235839843,1.21459960937,0.036704399907813844,0.1906039485815469,-0.2678135463161224,-0.79602050781,0.34509277343,0.07453058160632063,0.27160645328762095,1.0830030747835713,0.79584486143,1.24895802819,0.006754967562795163,0.08176820483756798,971.8190329861295,971.72843000164,971.96712566327,0.0026446147730360766,0.238695661630004,0.051162768767973224,-0.0010740724503650852,0.8823655065691187,0.59,0.41,0.7818984140353015,Lift up
-0.4045957367960918,-0.60925292968,-0.20556640625,0.012921677688513399,0.11301837309752316,0.7589574353412644,0.5810546875,1.02856445312,0.01468977998906514,0.12050282960666864,-0.5219375785701148,-0.81921386718,0.00671386718,0.050406584180382824,0.22322006665020275,1.0393635990647125,0.79584486143,1.28384548813,0.014200863052344217,0.11848052473464882,971.819028859895,971.74571804247,971.86757520064,0.0011530528528451102,0.12185715816997345,0.03376091485398352,0.0006861765409459641,-0.6129841159105274,0.37,0.63,-0.5490179810547775,Lift up
-0.72218933105175,-1.083984375,-0.41711425781,0.05480555860855978,0.23263810763921028,0.525988769527,0.28002929687,0.71948242187,0.019473636301587025,0.13867305379134473,-0.340309143063375,-0.74230957031,0.0380859375,0.06582054763389651,0.2549466430225603,1.02459722446775,0.91382495532,1.12682497165,0.002613622058653299,0.050803068636846464,971.7991778358534,971.73627741842,971.85453285481,0.001175953326709329,0.11825543639008629,0.03407717579444433,-0.000437067664149759,-0.7850085752192419,0.51,0.49,-0.15904035514915604,Lift up
-1.0999971277528235,-1.37463378906,-0.810546875,0.024424760886925065,0.15536219217957628,0.3300982306952941,0.1435546875,0.50061035156,0.011088049073557458,0.1046785624538184,-0.18186035156,-0.47912597656,0.1630859375,0.03273563470098067,0.17986247409298997,1.1792440208185884,0.83272950329,1.48366006398,0.0292043522061239,0.16988458314966134,971.7513284496521,971.70983149808,971.79537366644,0.0006676249732360359,0.08554216836000705,0.025685999333999062,0.0004717151765289771,-1.0443319958412154,0.45,0.55,-0.12443637010765889,Stairs up
-1.016108586235128,-1.29406738281,-0.81396484375,0.017490659225312438,0.13140175038588756,0.3550039438076924,0.10546875,0.62438964843,0.01924402414094693,0.13783071458397675,-0.17944335937089745,-0.41577148437,0.01123046875,0.020184213077367476,0.14115750463520219,1.108627747781282,0.90521064713,1.37188942147,0.018069725358976215,0.13355920864301463,971.7307161851797,971.69096156366,971.7812628035,0.0006153097845662971,0.09030123983995963,0.024645916448464193,-0.0009568499814627053,-0.9074542189198351,0.55,0.45,0.27487113456279794,Stairs up
-1.042795281657263,-1.35290527343,-0.83825683593,0.02082203156763274,0.1435369370161334,0.39656147203599995,0.1865234375,0.54943847656,0.006957691100253035,0.082972599372119,-0.17520430715168422,-0.38439941406,-0.00354003906,0.016712942162357206,0.1285963314227316,1.1392673677989469,0.917892461,1.44544251346,0.021702179449693857,0.14653919426380968,971.6601270457877,971.62173438369,971.69102120527,0.00034121977377475567,0.06928682158002175,0.018374656096982873,-0.0005583336404721266,-1.0519296946071746,0.55,0.45,0.24379391579842083,Stairs up
-0.9515787760383333,-1.30627441406,-0.67956542968,0.03070132627871023,0.17430295693602083,0.32106908162010417,0.25280761718,0.39794921875,0.0020417193425500695,0.04494943195115862,-0.20043182372677082,-0.32067871093,-0.09045410156,0.0042896580735145885,0.06515346602636587,1.0272112144715626,0.74761283971,1.36728400298,0.030562868584107804,0.1739094746403715,971.5838618723832,971.54386804926,971.62173438369,0.00041444066492061154,0.07786633442992752,0.020251507960174765,-0.0005548477624429838,-0.4452434579858031,0.48,0.52,0.1288307978032369,Stairs up
-0.9695834455782757,-1.25659179687,-0.68005371093,0.026825565310069698,0.16284110500398685,0.38874062724022973,0.28625488281,0.49816894531,0.0044462835723450824,0.06629613008778852,-0.19550893498114943,-0.27319335937,-0.12231445312,0.002013097792242902,0.04460895355373908,1.0657472907110348,0.78292953202,1.35205510704,0.026828524131192924,0.16285008532575138,971.5290120088983,971.49661179053,971.56993294847,0.0005163407893455825,0.07332115793997218,0.02259216319310546,-0.0008150470770798775,-0.8796795233416592,0.6,0.4,0.30536444507337573,Stairs up
-0.9957682291624999,-1.29846191406,-0.60632324218,0.027501686629601157,0.16484624835978642,0.37247285388428575,0.291015625,0.49291992187,0.002806138482301778,0.052656738142408566,-0.18825131370511908,-0.30358886718,0.01538085937,0.008319503748677232,0.09066676368649901,1.086088106688214,0.77014187244,1.40130769822,0.0246019345947209,0.15591361204517784,971.4471345097975,971.39663153441,971.50172674101,0.0010027181903777343,0.10509520660002636,0.03147667500012849,-0.001251596653344518,-1.4228095328849932,0.54,0.46,0.013924105394484793,Stairs up
-0.9778956992915685,-1.26318359375,-0.60632324218,0.01764964900577053,0.13219914232401114,0.33486040900372543,0.123046875,0.57543945312,0.022203552372114264,0.14827633151016767,-0.13241876340186276,-0.28625488281,0.02722167968,0.008043097359681485,0.08924261013662886,1.0561130718692158,0.77014187244,1.36245480055,0.018176327004903424,0.13415710089496427,971.3761968983788,971.34129244803,971.41056969969,0.000387341557300266,0.0692772516599689,0.019584281734396698,-0.0006046136594151357,-1.0284445539431866,0.46,0.54,0.048418626767185904,Stairs up
-0.7841944432485715,-1.26403808593,0.3740234375,0.12924142606866657,0.3575208953576875,0.5266931554729669,0.29663085937,1.21069335937,0.05918126141188976,0.24193163885670466,-0.2589084499451648,-0.48046875,0.04528808593,0.022224238838545678,0.14825658984924242,1.057109770381099,0.60190506878,1.42657213092,0.05080959579936564,0.22416790268184963,971.3241795072963,971.27550891557,971.38927830315,0.0008098346221483008,0.11376938758007782,0.02830080105909074,-0.0006821577314365703,0.14842413588575631,0.55,0.45,0.5402105107699182,Stairs up
-0.012239781821951219,-1.09289550781,0.81494140625,0.36151249174729994,0.5975816285860471,0.6870370260058536,0.33776855468,1.19677734375,0.06231909723123211,0.24811108044705968,-0.338227062687317,-0.65124511718,0.1044921875,0.04737776391258419,0.21633304487270116,1.0056147914898779,0.68349541093,1.4516625377,0.04127234305811355,0.20191340173774325,971.2296246600919,971.18234445852,971.32607905189,0.0018655720997764014,0.14373459337002714,0.04292809360443153,-0.0006636411954952997,-0.33220123905921994,0.52,0.48,0.6860001925550815,Stairs up
-0.9666555304240788,-1.15588378906,-0.68249511718,0.01235619745779698,0.1104247069830826,0.34817504882394745,0.21484375,0.45483398437,0.005037773102497325,0.0705087697687782,-0.1782563862009211,-0.25524902343,-0.05041503906,0.0037657624876188947,0.060960749513132274,1.046848780379079,0.78877047054,1.24102087238,0.012578572402163328,0.11141393481318176,971.2221200902364,971.19213307643,971.23652096026,0.00011112150439657443,0.044387883830040664,0.010471837438516927,0.0004089995716055257,0.42579278127714826,0.43,0.57,-0.7990997194302737,Stairs up
-0.9578615698441584,-1.10107421875,-0.7216796875,0.00805914939034027,0.08932724014554613,0.29107605584316826,0.21899414062,0.68859863281,0.0044382144879560135,0.06628930358853892,-0.2128483234025742,-0.38586425781,-0.08154296875,0.0049535248980498445,0.07003199338216108,1.0279853321812873,0.84016626065,1.32773740385,0.008133257873019686,0.08973700779135788,971.2362481456979,971.22083413845,971.28451250801,0.00015173305205577438,0.06367836956007977,0.012256865203210713,0.00016325423217854976,6.8181507624835795,0.66,0.34,2.312838450371162,Stairs up
0.019236463179787264,-1.06762695312,0.73767089843,0.2464617802890818,0.4938014241131947,0.21243740649914894,-0.84765625,1.56896972656,0.746742484263618,0.8595338360309559,-0.38018279379617015,-0.73376464843,0.38745117187,0.08988402372487343,0.29820766372869045,1.051638484956915,0.33595553061,1.68915017118,0.16116277024801215,0.39930974530079055,971.2038423843856,971.11480242513,971.28451250801,0.0014373226875410271,0.16971008287998757,0.037709839838592434,-0.0009671254304948121,-0.06288283199720368,0.59,0.41,-0.0333068797433027,Stairs up
-0.2354939778641667,-1.11376953125,0.71618652343,0.40227789434432343,0.6304671853416364,0.6037030901189284,0.15905761718,1.21704101562,0.06923962553110205,0.26156327011791886,-0.35817028226845243,-0.61853027343,-0.12280273437,0.025268084593575206,0.15801036061821805,0.9932444062995242,0.53712969654,1.42287396352,0.05317081106275068,0.22921131127578662,971.2075584797715,971.1637590084,971.28216467784,0.000803340306413394,0.1184056694399942,0.028174043574486145,-0.00029188465495898306,0.019992670685326175,0.56,0.44,0.4513493733817052,Stairs up
-0.9461951622554944,-1.3955078125,-0.56188964843,0.04308285053483903,0.20642047528497207,0.38494805974868124,0.19482421875,0.56372070312,0.010728888171704124,0.1030096514977378,-0.1634025154503297,-0.34228515625,0.02026367187,0.012539889738607828,0.11136466563712782,1.0475363556651647,0.71828882307,1.47145173978,0.038888090726484595,0.19611412256680955,971.181259207013,971.1566605317,971.2101305788,0.0001549955983678783,0.053470047099949625,0.012381128786753062,-0.0002721898577007463,-0.5743191509749308,0.62,0.38,0.6738145915109833,Stairs up
-0.9986497528662246,-1.13842773437,-0.82348632812,0.009276629666701498,0.09582259744082595,0.3913499481782653,0.24145507812,0.68542480468,0.013841896885641176,0.11704978872201918,-0.17678646165163264,-0.3115234375,0.01782226562,0.007941047801420487,0.08865673522866717,1.0941935835101022,0.89465829205,1.33841612582,0.015349230391373193,0.12325828812482031,971.1442014371233,971.11459610782,971.18376586203,0.0003317222556319791,0.06916975420995186,0.018120080978189432,-0.0005133738027874363,-0.2826759018887497,0.67,0.33,0.706091563041556,Stairs up
-1.0054616177976405,-1.33190917968,-0.73828125,0.024036105562266093,0.15416237206414177,0.4223920843535955,0.23547363281,0.56213378906,0.010905123577409755,0.1038392705050064,-0.2641738720123596,-0.34692382812,-0.12377929687,0.00413153640182854,0.06391490158409559,1.128337646121573,0.86826577894,1.46625193747,0.024923918521556458,0.1569836758813615,971.082360809392,971.02171837243,971.1158112024,0.0005506775673278122,0.094092829970009,0.02333431333746229,-0.0007750475741586077,-0.5799902278970066,0.47,0.53,-0.6262381987460214,Stairs up
-1.0543166534765822,-1.37487792968,-0.77990722656,0.025279915272711225,0.15798707651326596,0.4043679539121519,0.30993652343,0.57287597656,0.005349559893840733,0.07267629562530985,-0.2175679267170887,-0.39331054687,-0.03869628906,0.011100536945686437,0.1046901323897896,1.1562765973844302,0.86328333858,1.47070848988,0.02700084802582072,0.16327603969786236,970.9974240518662,970.96256772254,971.03789761674,0.0005120514693394995,0.07532989419996738,0.022484879478677333,-0.000887714450328117,-1.377600508421675,0.52,0.48,0.06690144147493507,Stairs up
-1.0104878743454166,-1.34899902343,-0.72045898437,0.022358773151768898,0.14874766977929874,0.3917096455858333,0.30090332031,0.56628417968,0.004850211855596439,0.06927978648519333,-0.21846898396427084,-0.34729003906,-0.10522460937,0.006688855233902529,0.08135834105086814,1.109699095218646,0.79366873865,1.47070848988,0.024620001760875747,0.15608825519301558,970.9208186481179,970.8899417936,970.97597896148,0.0004905075774588755,0.08603716788002203,0.02203175262041157,-0.0007441294356559581,-0.8884953676696679,0.45,0.55,0.28337251542769065,Stairs up
-1.0549059416083157,-1.51184082031,-0.52087402343,0.06882360320611927,0.26095812734038815,0.3818783408681052,0.09509277343,0.65856933593,0.01860092604683756,0.13566549607505918,-0.24420487252905257,-0.44006347656,-0.00915527343,0.02244122575023622,0.1490134300030919,1.1674399190087366,0.71895690717,1.63965477183,0.06476871748014372,0.2531539877360586,970.8662029638418,970.7952077407,970.93348881659,0.002008057869673088,0.13828107589006322,0.04457488551206129,-0.001394561209512596,-1.2328188547255847,0.59,0.41,0.06614170810371932,Stairs up
-0.9610511516664367,-1.25354003906,-0.44775390625,0.0526119913448261,0.228050993885418,0.38223441989563206,0.25073242187,0.53271484375,0.0047796539996251474,0.0687365655812488,-0.2551002940878161,-0.42468261718,-0.09240722656,0.008867511023337762,0.09362470619060125,1.0741261878187356,0.55229579388,1.34740798985,0.047090386235674984,0.21575244477958616,970.7886488219185,970.75749353141,970.84846243878,0.0008141180274335708,0.09096890736998375,0.02836829830915705,-0.0006894057854119862,-0.5144507214616838,0.68,0.32,0.8948679718534055,Stairs up
-0.98078756893,-1.26586914062,-0.81970214843,0.011605140032630397,0.10709159151596814,0.32171702664999996,0.22082519531,0.52514648437,0.007144521965538626,0.0840265955870167,-0.22155330881964705,-0.36059570312,-0.02770996093,0.011042584779385262,0.10446373541700893,1.0628751775634113,0.88918494201,1.38181174428,0.01443995778716914,0.11945742308810074,970.7719089998809,970.74696120285,970.79625773339,0.00012808408182486325,0.049296530540004824,0.01125065377095849,6.42991128517181e-05,-0.1977175251358756,0.45,0.55,-0.09770105391855068,Stairs up
-1.0010100719944117,-1.25061035156,-0.6962890625,0.020927539602600062,0.1439526576542157,0.35287176393578407,0.20251464843,0.50671386718,0.005891615257695852,0.07637967218964004,-0.20513676661735303,-0.31225585937,-0.07788085937,0.004945964131686892,0.06998195686931445,1.0863407764716666,0.79538741292,1.32658429818,0.02013556011686247,0.1412025235777901,970.7670895643723,970.75058061513,970.78381976776,8.036752487604536e-05,0.0332391526299034,0.008920740326088182,2.998495794996295e-05,-0.5026261333129187,0.47,0.53,-0.015243125337021952,Stairs up
-1.017833116316,-1.36633300781,-0.66967773437,0.03708950878702987,0.19151345418492313,0.399043782548,0.20910644531,0.61853027343,0.009046100983989834,0.09458112259237776,-0.22925075954566665,-0.47119140625,0.00036621093,0.02178380227384897,0.14677111441411678,1.129611753792889,0.74030383144,1.50334130612,0.03935542390421493,0.19727681418856682,970.7746104146001,970.7478949486,970.82608481776,0.00039151014624635175,0.07818986916004178,0.01967638263274734,-7.176224205870362e-05,1.2597378339605187,0.47,0.53,0.9988151228075939,Stairs up
-1.0438440834565854,-1.5888671875,-0.54016113281,0.06328643023422646,0.2500292872838355,0.37051168301841464,0.26342773437,0.61145019531,0.007936089237197153,0.08853986481316635,-0.2047684832292683,-0.47204589843,0.02026367187,0.023142793735725736,0.15119710494525562,1.1439364339259759,0.7675834539,1.67780038261,0.0541032572045162,0.2311784189429215,970.775590251106,970.7448558209,970.84399426897,0.0005732316479093771,0.0991384480699935,0.023795819339892957,0.0001829683417139128,1.488350269644668,0.62,0.38,1.4176223580675034,Stairs up
-1.0067612591865882,-1.5888671875,-0.68688964843,0.03922388812394123,0.19688176811630057,0.3142032398868236,-0.0439453125,0.62939453125,0.021724865161885494,0.14652398613511078,-0.18805577895,-0.37841796875,0.11853027343,0.020159638887666205,0.14114696831833962,1.0914842015587056,0.79911024153,1.67780038261,0.03690750442810704,0.19097983792447495,970.7268021553647,970.70060057854,970.84399426897,0.000644319065559913,0.1433936904300026,0.025233684654826137,-0.0006046175901089607,8.341693613880798,0.51,0.49,2.325374515756801,Stairs up
-1.0200561523409999,-1.29382324218,-0.77111816406,0.0175916815944263,0.1319688022923677,0.4272851562464999,0.27160644531,0.64807128906,0.0103803674019414,0.10137338767113381,-0.13811035155940002,-0.33374023437,0.02099609375,0.01156584060519017,0.10700552415243929,1.1225654200019,0.87294796035,1.45308375043,0.021364663037061783,0.14543389015869432,970.6695656527035,970.62804675939,970.71129465763,0.00043736478050729636,0.0832478982399607,0.020808438978025798,-0.0006219503375256264,-0.20947348730435067,0.52,0.48,-0.20883714453687874,Stairs up
-1.0578030056381111,-1.21435546875,-0.88024902343,0.008205908814393238,0.0900818075406398,0.3623060438328889,0.21472167968,0.59301757812,0.00950366777473739,0.09694365098411137,-0.22798665364211113,-0.35412597656,-0.03198242187,0.01008609506545651,0.09987005228048593,1.1482634090546668,0.98112698227,1.35959512199,0.011294248306941113,0.10568233844444498,970.5965472903844,970.56036939863,970.64479322459,0.0005088496533920099,0.08442382596001607,0.022432025507169898,-0.0007818384167792417,-0.7492221841259745,0.59,0.41,0.6820690798237037,Stairs up
-1.0198066525312195,-1.23364257812,-0.69458007812,0.016690976755996942,0.12840338102625098,0.3244331173731707,0.18615722656,0.47521972656,0.0064778591236714774,0.07999287994362676,-0.1716338366962195,-0.31774902343,0.00451660156,0.008326707421575399,0.09069268001948758,1.0896709448737807,0.75167081413,1.30045443945,0.018677082602542933,0.135828249280155,970.5253516279421,970.49218587418,970.56036939863,0.00035770391691473057,0.068183524449978,0.018797384765587115,-0.0007327256450840129,-1.0634825230019869,0.49,0.51,-0.0020435916157487285,Stairs up
-1.0165812174458824,-1.19567871093,-0.88403320312,0.0065421878356081205,0.08048632641126435,0.32846129173882344,0.19763183593,0.61413574218,0.01161491264107419,0.10724290628528602,-0.18904383041911768,-0.36083984375,-0.02734375,0.014668881789072562,0.12051999511497263,1.0955073637286277,0.97184006024,1.33298462229,0.0095228983258496,0.09710580094699263,970.45785707289,970.42562556562,970.49218587418,0.00045364555968330553,0.06656030856004236,0.02119429296287598,-0.0006492033273943152,-1.6537077480304518,0.48,0.52,0.014095637638836553,Stairs up
-1.0175269342198925,-1.26171875,-0.69653320312,0.02065630429556762,0.1429482196345605,0.3266693443343011,0.03295898437,0.48571777343,0.018304169902348545,0.13456355699497727,-0.17006625923655913,-0.35498046875,0.16076660156,0.021861715791179903,0.14705999992646376,1.1021338603852688,0.83191753559,1.32733490948,0.016644570540703646,0.1283183411049328,970.397141604776,970.36337177689,970.41483091314,0.00019436398711416026,0.0514591362500596,0.013866291925704101,-0.0003609043349889285,-0.9293340249948923,0.34,0.66,-0.5695321628227099,Stairs up
-0.9042460123663093,-1.16491699218,-0.46813964843,0.03507577339165405,0.18616714173237184,0.3325994582370238,0.18615722656,0.47583007812,0.006687942934975284,0.08129160206750614,-0.22185116722071424,-0.30029296875,-0.17346191406,0.0010161077110905456,0.03168613562302005,0.9957478438764286,0.65308503617,1.25970538091,0.028598420112534294,0.16810104916460877,970.341940479688,970.30537410351,970.36602003789,0.00037910068018361744,0.060645934380090694,0.01935426508158081,-0.0006062105878794343,-1.2122076300897928,0.44,0.56,-0.45479464060180724,Stairs up
-0.9969212915954544,-1.185546875,-0.79321289062,0.009329547467721746,0.09596032781100473,0.3367650415958442,0.23071289062,0.46118164062,0.0032267153354589126,0.056434120366068555,-0.15113572950233767,-0.28405761718,0.06408691406,0.010108420560115166,0.09988564647146636,1.068993981078052,0.87136659497,1.24979409071,0.009854955287601766,0.09862539660399469,970.3120900566968,970.29464931732,970.332170751,0.00010607902430238756,0.037521433680012706,0.010232368965011122,-0.0001982646949824326,-0.5416607939016789,0.6,0.4,0.20288231093506642,Stairs up
0.1517385929185106,-1.01989746093,0.9765625,0.6346613408725122,0.7924074863857935,0.4766715841052127,0.03063964843,1.16491699218,0.06056939256692017,0.24479590953863292,-0.22004732172223404,-0.4541015625,-0.00866699218,0.017332017416462012,0.13094897575948083,0.9780178781801067,0.48696359993,1.44484478883,0.047631265078766916,0.21708189582003976,970.3477855859883,970.215063159,970.53108728618,0.008260166421161244,0.31602412717995776,0.09040073180178258,-0.000665406020963584,-0.3583337542977434,0.66,0.34,0.7473058680597364,Stairs up
-0.1923274403981443,-1.48962402343,0.94116210937,0.8942135081940297,0.940741628840388,0.44502808875381444,-0.5322265625,1.353515625,0.19367907435900297,0.4378154666874685,-0.3655049432143299,-0.62915039062,-0.18737792968,0.01822695546693862,0.1343095257587767,1.1209537633084536,0.24729812432,1.92565178581,0.20896691000657056,0.45476654666462185,970.246622665159,970.17105584937,970.30034766217,0.001272308978815532,0.12929181280003377,0.035485100977805634,0.00043161413881696777,-0.241715622965061,0.39,0.61,-0.5990109766754985,Stairs up
-0.4283306954924137,-1.26342773437,0.41955566406,0.4086952903967845,0.6356080894550741,0.055029858118275855,-0.88903808593,0.87268066406,0.3092648067546548,0.5529105161424615,-0.3184618018102299,-0.82922363281,0.0224609375,0.052006651798165444,0.22673525132032288,0.9649845120274713,0.21699954345,1.62426171129,0.11920500970532227,0.34327079278606526,970.264187578609,970.19045630177,970.37450990289,0.0021373599795615024,0.1840536011200129,0.04596512399063652,-0.0005466324491772637,-0.34738660619596606,0.39,0.61,0.19050782684779666,Stairs up
-1.0775960286424693,-1.33203125,-0.82434082031,0.020092818886338078,0.1408714285932891,0.28694058641716047,-0.04516601562,0.4130859375,0.011582564401429072,0.10695592446979835,-0.1511983989160494,-0.27563476562,-0.04711914062,0.005546070846806141,0.07401081567143916,1.1321544436807407,0.88964678767,1.39569721044,0.021664768860070998,0.14627816849362008,970.2946322973985,970.26095861396,970.3300597419,0.0003868385254453276,0.0691011279399163,0.019546425278821968,0.0006837439940320989,-0.8706144721060669,0.51,0.49,-0.09349879955637293,Stairs up
-1.0441530667779806,-1.4404296875,-0.66760253906,0.03507260208017846,0.18637426196155735,0.33034574068115385,0.15124511718,0.46179199218,0.006758911828576979,0.08181639378366501,-0.11659592848403846,-0.27514648437,0.11218261718,0.018884692888288344,0.13675931157630195,1.1116820989615384,0.72637833547,1.5116256419,0.03763573582952486,0.19306437722749623,970.2830128983189,970.24480595931,970.32500617898,0.0005169092746483532,0.08020021966990498,0.022626068884394165,-0.0006266180108177122,-0.748969470338356,0.63,0.37,0.1611549489423007,Stairs up
-1.0284994374119563,-1.50439453125,-0.67138671875,0.02220512990478769,0.14820178742892054,0.3294823687973913,-0.06298828125,0.63830566406,0.027247702958070913,0.16416921841119927,-0.20114533797228262,-0.38415527343,0.06555175781,0.01296062417909138,0.1132243252544198,1.1138549029165217,0.7382774252,1.59918830089,0.028197975979113606,0.16700741372828393,970.2278130348743,970.14917437331,970.31599996877,0.0013219050588041653,0.16682559546006814,0.03615987452351424,-0.0010676748720775035,-0.1628143013736052,0.52,0.48,0.14684927944289053,Stairs up
-0.9861896793984146,-1.23706054687,-0.66540527343,0.02649107603466771,0.16176530571110082,0.4335714200603658,0.27685546875,0.89172363281,0.02778753385426366,0.16567637577574926,-0.23638320550304873,-0.40637207031,0.05053710937,0.01737188157863976,0.13099629523107173,1.1170178897754879,0.7382774252,1.55344464353,0.039966414092416566,0.1986932781918065,970.1413294701833,970.10094088533,970.19084075878,0.0006091690135448596,0.08989987345000827,0.024530391825973264,-0.0008622558891329173,-0.4685208173487112,0.56,0.44,0.3031480877484507,Stairs up
-0.9846866005307893,-1.23718261718,-0.67065429687,0.020441342748994465,0.14202949592540096,0.3998011538819737,0.2138671875,0.56237792968,0.008369329924400095,0.09088018024980439,-0.18109933953276314,-0.31408691406,-0.03869628906,0.006012354427766753,0.07702755676435293,1.0843662172400002,0.77750810007,1.3310470189,0.021037175922517602,0.1440845965957801,970.066396539945,970.02269259043,970.10094088533,0.00040397612936159203,0.07824829490004959,0.019966488273486033,-0.000839006454429073,-0.7877274752058385,0.45,0.55,-0.48946025214625694,Stairs up
-0.6100176230228737,-1.30676269531,0.3369140625,0.28977097967831444,0.5352011572880535,0.5515361215835632,0.18420410156,1.01135253906,0.0673203189460451,0.2579661260253957,-0.08011460578034481,-0.36889648437,0.55773925781,0.05915132515316063,0.24180865341017851,1.0158327760411492,0.61481552398,1.40249223374,0.06299805638187664,0.24954747201941427,970.0197465207581,969.96801067757,970.16914835287,0.003014727037483071,0.20113767530006044,0.05459006322188565,0.0005273655280427785,2.3551472047346538,0.66,0.34,1.741795917768582,Stairs up
0.6986047363237999,0.3369140625,0.9375,0.030602722894991486,0.17405946014520893,0.6666491699182997,0.43786621093,1.06811523437,0.027586260436521282,0.16525857869459024,-0.2372705078094,-0.41394042968,-0.10852050781,0.004895600429538077,0.06961784559466556,1.011723365391,0.6830464161,1.3117475169,0.02791571423106424,0.1662424647578157,969.9097503754273,969.81869271273,970.01695520938,0.002850415526873128,0.19826249664993156,0.05312166574576137,-0.0012787372820145144,-0.569248314270967,0.63,0.37,0.6901353918483473,Stairs up
0.06737196180533334,-0.80505371093,0.76330566406,0.28697142427953976,0.532712730182653,0.6151557074616666,0.18981933593,1.11682128906,0.08242830878918023,0.28550383305924754,-0.4645643446142222,-0.61242675781,-0.23706054687,0.01550517800320775,0.1238260806438472,0.9700861961226668,0.68291760384,1.30972536038,0.038767265271955446,0.19579713450417205,969.8495888898768,969.80467342576,969.91658264727,0.0011405951859514317,0.11190922151001814,0.033584548621464705,-0.0009863583759221555,-0.9647905796951712,0.6,0.4,0.4146620104377084,Stairs up
-1.0634539568822223,-1.509765625,-0.38903808593,0.047038685571660674,0.2155410890258057,0.4786165967358025,0.16687011718,1.35168457031,0.09854550502831144,0.31197579049522806,-0.23849977092629632,-0.41479492187,0.03442382812,0.021070502965254777,0.14425800947960243,1.2197401384341973,0.4587369536,1.97298347856,0.09489304782705926,0.30613972090874325,969.8490097125376,969.80467342576,969.89222701997,0.0006873022136780506,0.0875535942100214,0.026054116779570684,0.0008494809031175048,-1.0624596075294048,0.56,0.44,-0.0016631096749239293,Stairs up
