avg_accX,min_accX,max_accX,var_accX,std_accX,avg_accY,min_accY,max_accY,var_accY,std_accY,avg_accZ,min_accZ,max_accZ,var_accZ,std_accZ,avg_magnitude,min_magnitude,max_magnitude,var_magnitude,std_magnitude,avg_pressure,min_pressure,max_pressure,var_pressure,range_pressure,std_pressure,slope_pressure,kurtosis_pressure,Pressure_below_avg,Pressure_above_avg,skew_pressure,Label
-0.9701544510649474,-0.97778320312,-0.962890625,1.1102276179421075e-05,0.003314424552524093,0.2452045641411579,0.23547363281,0.26379394531,5.68329220045434e-05,0.007498978645141287,-0.18451377466705265,-0.19763183593,-0.166015625,0.00010994102423691679,0.010429944884685672,1.0176126548115791,1.00921079197,1.0234905331,1.0873303434965558e-05,0.0032800682324205304,980.0271528625171,980.00541670778,980.04219685136,9.24612249524905e-05,0.036780143580017466,0.009564933293042822,0.00019112987075085486,-0.05614085792729728,0.49,0.51,-0.6811842493147245,Lift down
-0.938785634138085,-0.97302246093,-0.91027832031,0.0004072544081826958,0.020072914947227384,0.2294389440618085,0.20837402343,0.25830078125,0.0001750196047188668,0.013158939700081014,-0.18248213097946808,-0.20007324218,-0.16870117187,8.513769413321408e-05,0.009177797883090515,0.9835741102526596,0.95490702557,1.02225089261,0.0005081106992465866,0.02242108976557291,980.01881980833,980.00591992589,980.03645794818,8.561642390930275e-05,0.030538022289988476,0.009203565118419656,-4.2333057721669556e-05,-1.04202852501123,0.52,0.48,0.35491192623316326,Lift down
-0.9466460853466666,-0.9736328125,-0.91174316406,0.0004574631337440786,0.021273085702754147,0.23618767850795697,0.20837402343,0.25830078125,0.00028617678333553524,0.016825564288375294,-0.17969800066881722,-0.18859863281,-0.17077636718,2.3041942820912594e-05,0.0047743250826563196,0.9921477599045163,0.9520812182,1.02420423629,0.0006227586384510781,0.024820602510925625,980.0931759008328,980.03526202761,980.17375973723,0.0016159205940050134,0.1384977096199691,0.03998180966073065,0.0014742049739689465,-1.1046119256626632,0.54,0.46,0.3051075153754972,Lift down
-0.9680865743843478,-0.97631835937,-0.95971679687,2.005640765144009e-05,0.004454032242861088,0.24908049209750005,0.24487304687,0.26013183593,1.2737856815190255e-05,0.00354956361399648,-0.17780204440891306,-0.19140625,-0.16357421875,4.376204594709654e-05,0.006579237914426572,1.0153339453508696,1.00786689493,1.02339336067,1.9186185434967233e-05,0.004356333313821257,980.2833771295606,980.17375973723,980.40021141998,0.004148420759440561,0.2264516827500529,0.06405723401339337,0.002401035535582781,-1.0593489890055054,0.46,0.54,-0.008551045357107963,Lift down
-0.9653759216951685,-0.97094726562,-0.95703125,1.4315358339998053e-05,0.0037622482131136332,0.25313130924808985,0.24206542968,0.2666015625,3.6515329759734776e-05,0.00600874738657674,-0.18201918012235954,-0.18835449218,-0.17663574218,1.052158967421815e-05,0.00322542548596601,1.0144949213339325,1.00611321662,1.02099939945,1.8031965051026024e-05,0.004222482528340181,980.5043594425385,980.40021141998,980.62871233181,0.00371655097603568,0.22850091182999677,0.06062006249011083,0.0023387946895457434,-0.9068126298535915,0.53,0.47,0.23721652806607046,Lift down
-0.9893965287601136,-1.02368164062,-0.96069335937,0.0005247459952008797,0.022776807777389316,0.25462618740795456,0.24304199218,0.26342773437,2.831427522349347e-05,0.005290795979430106,-0.18343422629249997,-0.1904296875,-0.17626953125,1.191694090869218e-05,0.0034324220494628657,1.0380193227751136,1.0093895232,1.07335867696,0.00046786097658732,0.021506844830905484,980.7237166571193,980.62871233181,980.82090188785,0.004024808882731389,0.1921895560400344,0.06307988917360981,0.0024656156793885276,-1.3141724240328652,0.53,0.47,0.00905037862162453,Lift down
-0.9943209561402273,-1.02307128906,-0.96496582031,0.0004451285070760604,0.020977850904860575,0.24047712845806818,0.22448730468,0.25073242187,3.0752055374610326e-05,0.005513855293703204,-0.18981517444613638,-0.20629882812,-0.17919921875,5.1561254483983674e-05,0.007139701053795934,1.0404715940511364,1.00991873991,1.06963278774,0.00047896651544231046,0.021760600040680544,980.8946564044928,980.82090188785,980.92369640912,0.0006844217813325697,0.10279452126997057,0.026012386685772493,0.0009345913914100975,-0.3230866640764338,0.34,0.66,-0.9632971382662201,Lift down
-1.0157666618408643,-1.27844238281,-0.83068847656,0.015124087950912754,0.1222185371198506,0.1959017529860494,0.03674316406,0.349609375,0.010436582114744576,0.10152701818713063,-0.017074773340246912,-0.11022949218,0.16809082031,0.005971114852009131,0.07679451402737293,1.0424298888001235,0.84478475557,1.28261891947,0.015120053903200942,0.12220223635867987,980.9334024893137,980.84857708212,981.06689699672,0.003690707176559987,0.2183199145999879,0.06037501876131896,0.0004080913580637253,-1.065076014702265,0.52,0.48,0.2628556581797057,Stairs up
-0.9802588486063415,-1.17980957031,-0.80334472656,0.0075204873801432625,0.0861903365778891,0.138850514477439,0.02160644531,0.29711914062,0.005586576018350777,0.07428625069632488,0.017661490091097562,-0.11547851562,0.15258789062,0.005005739307945698,0.07031851610087693,0.9954724040291464,0.81584545203,1.19195122683,0.007517083303260356,0.08617082775313012,980.912080033121,980.82202890118,981.0375094778,0.0031495071993208417,0.2154805766199388,0.05577722272522073,-0.0006874687946491131,-0.46924332825246085,0.63,0.37,0.5723777608137269,Stairs up
-1.0120774257298766,-1.15637207031,-0.87817382812,0.0056546976214820925,0.07473209845665649,0.17001079041,0.04382324218,0.37329101562,0.008666563038918577,0.09251793573950853,0.03749367042691358,-0.07263183593,0.16149902343,0.004398058768337238,0.06590722074633336,1.0329444455392593,0.89259786604,1.17120532928,0.006200700858534335,0.07825694215903975,980.848701197522,980.76148141027,980.94378090065,0.002039696703283701,0.18229949038004634,0.04488335172981649,-0.00032339078617979374,-0.15506338269698938,0.38,0.62,-0.18937871200916193,Stairs up
-0.999508704664074,-1.17797851562,-0.85034179687,0.007474223515278916,0.08591827018098512,0.13458628713037038,0.00610351562,0.30212402343,0.008756334739512268,0.09299587002385427,0.03838885271950617,-0.04541015625,0.15979003906,0.003738946508683949,0.06076830321181764,1.015253782114568,0.86342255484,1.17931582425,0.007682393328265175,0.08710653802205565,980.8142621094782,980.72799291038,980.95046654123,0.0039411851600188895,0.22247363085000416,0.062390131856769435,0.0002313339389732905,0.24848820040697062,0.58,0.42,0.9555314614918706,Stairs up
-0.9865585327107501,-1.171875,-0.86389160156,0.00850383163777035,0.09163805837259005,0.1630645751915,0.05541992187,0.30834960937,0.006847234004253143,0.08222921366035296,-0.001979064941,-0.06970214843,0.08154296875,0.0025629166156591675,0.050307853839767686,1.0043947501605,0.8860409032,1.18598036405,0.0088840042257349,0.09366404952228584,980.7445105072366,980.65951565187,980.87933654701,0.0039014918851108605,0.21982089513994651,0.062070308816268786,-0.0005662876517134459,-0.35078531550110537,0.7,0.3,0.9208320941275642,Stairs up
-0.9950692864872152,-1.17260742187,-0.86645507812,0.006300520979991079,0.07887184256668922,0.20958545539556966,0.07592773437,0.39013671875,0.009189114269824055,0.0952512276439227,0.005301560028607595,-0.0546875,0.10815429687,0.0029955573887093037,0.054384179140177874,1.0230211759535444,0.90220010117,1.18123700523,0.005870237777508627,0.07613101188213901,980.647305324744,980.58488125354,980.78082189192,0.0035370135579482964,0.1959406383800797,0.05909518791263772,-0.001255409420409358,-0.13659830211140367,0.7,0.3,1.0994268701838898,Stairs up
-0.9903411865203751,-1.20739746093,-0.80810546875,0.010323510281337248,0.10096765027879243,0.17294006347212498,0.0341796875,0.39965820312,0.009165634827992576,0.09513708211124972,0.029447937011000003,-0.08020019531,0.17651367187,0.005892311939029185,0.07628012873475844,1.012801997235875,0.82223250623,1.2111698666,0.01098472455192179,0.10415092652023202,980.5755924673351,980.49025974255,980.73931279751,0.004580667953657153,0.24905305495997254,0.06725629787786747,-0.00022641910369987058,0.23318531160883582,0.65,0.35,0.8936267083747864,Stairs up
-1.0282226562465333,-1.21936035156,-0.81799316406,0.013366534903251796,0.11484038678912181,0.20173665364293333,-0.05200195312,0.34448242187,0.012291933544917935,0.11012738577507578,-0.005476888020933333,-0.11328125,0.12622070312,0.0043778444997785255,0.06572269957770663,1.05542623373,0.85263220943,1.24205281469,0.013865674128682153,0.11696494549065997,980.4455549614465,980.33408635037,980.70323363403,0.0066248717875586555,0.3691472836600269,0.08084887237138524,-0.001196786820468858,1.872795996803779,0.51,0.49,1.057087078507334,Stairs up
-0.9866782740503947,-1.26281738281,-0.8583984375,0.01167578035262601,0.10734128592380318,0.19233623303539474,0.0927734375,0.31518554687,0.0038736263779076403,0.061827644381597435,0.041311163649605256,-0.08129882812,0.16064453125,0.004144908691332572,0.06395600377664473,1.0104962687959214,0.89303425292,1.27004483911,0.010707210048198038,0.10279263449031059,980.435725358614,980.36232237443,980.53276396335,0.003274893441664612,0.17044158891997085,0.056848946678762786,-0.0004260999799785413,-1.1953911617852988,0.59,0.41,0.4832794971499256,Stairs up
-1.005249023434,-1.25915527343,-0.85729980468,0.011960843527589898,0.10863409047756924,0.17793457030919999,0.03576660156,0.32080078125,0.007853577926464433,0.08802762949274263,0.004868164062,-0.08215332031,0.09521484375,0.004033959378752758,0.0630886142953126,1.0270684931007998,0.87385228361,1.2638856981,0.011017623999747804,0.10426275627671577,980.4001131277333,980.29749226477,980.598666689,0.00674323258686783,0.3011744242299983,0.08156790311784977,-0.0014775010567947306,-0.5146856929452559,0.47,0.53,0.6618526175861007,Stairs up
-0.9795647698427027,-1.14245605468,-0.85900878906,0.005767039615285331,0.07542616686211229,0.1845587653041892,-0.00500488281,0.36218261718,0.011967868089990548,0.10865606353457,-0.02130951752364865,-0.08605957031,0.09436035156,0.0030081158142681265,0.054474449061571985,1.0041537386185138,0.88035522548,1.18544970621,0.006286100621256258,0.07874740196072252,980.2989011974973,980.23152258102,980.43039808816,0.0030186910195291235,0.1988755071399737,0.054570119091345175,-0.0003787833816747003,0.10869881955959215,0.69,0.31,1.08272467442173,Stairs up
-1.003688502952162,-1.25500488281,-0.84130859375,0.013140806706977483,0.11385617347322136,0.15979993665067568,-0.02734375,0.34362792968,0.011439667889647754,0.10623124673574574,-0.025022764462027027,-0.12536621093,0.10314941406,0.0037258869542739752,0.06062620828130001,1.0238487905460811,0.86482467595,1.26015095103,0.013391229258344187,0.11493592432655246,980.224317499626,980.12198772647,980.36006553961,0.0050610415506991,0.23807781313996657,0.07065868026867805,0.0004784079312144661,-0.9673359413425273,0.62,0.38,0.5224052107544194,Stairs up
-0.9880024677967565,-1.20837402343,-0.86694335937,0.00848142027868439,0.09147024921325295,0.1316495328304054,0.00354003906,0.294921875,0.007369654726761458,0.08526467497165188,0.017406566723243245,-0.06323242187,0.13391113281,0.0039060250202050373,0.06207447863905403,1.0025517319455404,0.86915578078,1.20949351447,0.00827543154527205,0.0903526501507004,980.2003296463951,980.08763299539,980.43376162936,0.012204023130765324,0.3461286339700109,0.10972285039711871,-0.003281543064069989,-0.0046375243775838015,0.59,0.41,1.0702146818179108,Stairs up
-0.9946915910012162,-1.29638671875,-0.78442382812,0.014844693240726294,0.12101276493830632,0.19039834511932435,0.02001953125,0.30993652343,0.00815192520650735,0.08967588335259409,0.017167374893378377,-0.08984375,0.17272949218,0.005433426561976625,0.07321203370148019,1.0198390538902704,0.82061133618,1.29889815292,0.014122615320234276,0.11803291560941015,980.0919103617111,980.02450998551,980.25866352592,0.004101872023397835,0.2341535404100341,0.06361164453446354,0.000532064787932593,0.22324560146801087,0.54,0.46,1.0624447670783408,Stairs up
-0.9851036850254081,-1.28210449218,-0.80004882812,0.016481824281795378,0.12772486994070065,0.2011232959934694,0.04321289062,0.40881347656,0.010927229732602736,0.10399868935901309,-0.01468206911632653,-0.11206054687,0.11364746093,0.005722491943520685,0.07526020972988848,1.0129812431752043,0.82018984831,1.28411527406,0.017940954492057126,0.13325870901315404,980.0778800712937,979.96142636899,980.21046139364,0.006096575105448358,0.24903502464997018,0.07768117632601068,-0.0005345669112137785,-1.1553346104180033,0.55,0.45,0.3454191464505786,Stairs up
-0.9632105777103157,-1.20434570312,-0.81115722656,0.014421606374275246,0.11945626811259481,0.2651482833026316,0.09143066406,0.43676757812,0.010961532932973863,0.10414484325104467,-0.06626105057389474,-0.15600585937,0.05639648437,0.003133888667561703,0.05568572856484771,1.00816284334,0.84616588943,1.25072242007,0.014445342248772228,0.11955453155181792,980.0190987032114,979.91202517992,980.19133347866,0.006196777472598343,0.27930829874003393,0.07830420318249,-0.0008462996020605451,-0.10206402238938317,0.66,0.34,0.8804349350100507,Stairs up
-0.9690069154223256,-1.17529296875,-0.80126953125,0.014529704005790324,0.11983636325928523,0.24987225199499996,0.16625976562,0.45263671875,0.005974130387633401,0.07684180994236835,-0.005128372546395349,-0.14270019531,0.1142578125,0.006567551982066419,0.0805678912380982,1.0063187607418602,0.83246472309,1.23274348274,0.015698540417166573,0.1245632339397348,980.0166801043514,979.91706025079,980.20814255735,0.008640748085645137,0.2910823065600425,0.09241360435940033,0.0005674481120332915,-0.34660742211123985,0.73,0.27,1.0232695457600076,Stairs up
-0.9743384384491462,-1.20568847656,-0.81335449218,0.013670691378423097,0.11620660751396945,0.3066823075420731,0.17175292968,0.48498535156,0.007949551027500237,0.0886149269776962,0.035919933783658535,-0.06848144531,0.18481445312,0.006415643003859427,0.07960781026401789,1.0280360805289022,0.86646676398,1.29190105829,0.015639547379167156,0.12429328699337039,979.9885568844588,979.91342969284,980.06128565433,0.001896589273678662,0.14785596148999502,0.043283485721401595,0.0008478244876680359,-0.7728552142540739,0.43,0.57,-0.16712610148793142,Stairs up
-0.9894209641646154,-1.23950195312,-0.80871582031,0.01811255054846821,0.13393428018464537,0.2354724590555769,0.12438964843,0.38854980468,0.005324123407802245,0.07261494277004187,-0.014965350809711538,-0.11779785156,0.13134765625,0.005944889297114401,0.0767315248123401,1.0221697366373077,0.82779933715,1.28000011188,0.019076591513703146,0.13745240175838438,980.0312143635898,979.95568988074,980.19707247684,0.0062795813010982785,0.24138259610003843,0.07886190913022992,-7.974508690573469e-05,-0.7139539763995715,0.67,0.33,0.9074384832959078,Stairs up
-0.9953095809241306,-1.42932128906,-0.81811523437,0.02894498661119171,0.16920510391682883,0.19510816490967386,-0.06872558593,0.34875488281,0.013997927507008023,0.11766807604895341,0.017904530400652173,-0.07690429687,0.10437011718,0.003999742867978374,0.06289886646054989,1.0207122719150001,0.82100443041,1.47315603725,0.031858006214696574,0.17751541774857155,980.0031428634509,979.9308035494,980.20353701093,0.005134032196901721,0.27273346152992417,0.07126168324639344,-0.0016514104670669574,0.7038762610648046,0.76,0.24,1.2807772230370236,Stairs up
-1.0143439797759999,-1.20678710937,-0.89794921875,0.00747058527212432,0.08592261654319391,0.1831140854738824,0.06457519531,0.31848144531,0.006026727027946647,0.07717398756724721,-0.014695829502588235,-0.13049316406,0.11437988281,0.006159964449665121,0.07802239601338234,1.0373553564654119,0.93762929342,1.21132824653,0.006031280334503249,0.07720313526841899,979.9350221634245,979.84669079177,980.0853778837,0.004938128858968209,0.23868709192993265,0.06985723459551836,-0.0019325109021605823,-0.743682246190621,0.59,0.41,0.6911619085823756,Stairs up
-0.9960541167771427,-1.18310546875,-0.88879394531,0.006597530073887882,0.08069602137116855,0.19486860795155841,0.087890625,0.32861328125,0.005293527680468741,0.07228264361335562,-0.02931272828636364,-0.14819335937,0.05944824218,0.003677198506359006,0.060244856059261165,1.0200542296877924,0.91826314872,1.18789707622,0.005888730585929349,0.0762381372105383,979.877891517543,979.81013122398,979.9819953262,0.0026578581853807614,0.17186410222006998,0.05121855666269387,0.00014030894952305617,-0.8250130799905415,0.62,0.38,0.6151455149843269,Stairs up
-0.7106052673929897,-1.19201660156,-0.46655273437,0.04798845969813922,0.2179305699288161,0.6408917928438144,0.24011230468,0.98168945312,0.05673183511077288,0.23695352040280046,0.16245796753979383,-0.07739257812,0.31701660156,0.014608359892053226,0.12024041851092146,1.0248595977413404,0.84858620079,1.24205667178,0.009958661310545245,0.09927736247048631,979.6543831365635,979.54366875587,979.89296884956,0.006995079386895856,0.34930009368997617,0.0832043578571002,-0.0008031818833651231,0.4103276230773645,0.49,0.51,0.6787010386138477,Stairs up
-0.9902023161259595,-1.27551269531,-0.43981933593,0.045499355691192546,0.21222574358396382,0.3610482264023232,-0.08215332031,0.71203613281,0.05285459916567904,0.22873721674800032,-0.04781703756111111,-0.12841796875,0.12878417968,0.004581803885920684,0.06734629194386393,1.0911528110302018,0.79274066219,1.42628279447,0.024673693543296325,0.15628328226520666,979.7278011531223,979.56641047765,979.87121899635,0.008455599506323361,0.30480851869992875,0.09148873925407373,-0.0010966180887191123,-1.1357930779842769,0.43,0.57,-0.1925890915876261,Stairs up
-1.0713137508743822,-1.20092773437,-0.89404296875,0.0067081865192785695,0.08144208762697261,0.2539940308958427,-0.00756835937,0.40905761718,0.01292376863261515,0.11304228301437749,-0.08500482794674158,-0.26135253906,0.19995117187,0.018464481371659295,0.13511852311519565,1.1182448884206742,0.96318885254,1.2578710104,0.006724250892082717,0.08153954568963945,979.6623748857951,979.49026154084,979.83098322214,0.010578565949988898,0.34072168130001046,0.10227270241083877,-0.00035681636373109714,-1.3362858048020823,0.48,0.52,-0.01599239502028014,Stairs up
-0.9820383899581132,-1.28588867187,-0.73364257812,0.024444314252121322,0.15560754324226625,0.33768448739349055,0.0361328125,0.64392089843,0.02051591117117821,0.14255653208245017,0.026401735701037737,-0.16748046875,0.17297363281,0.008043070847925842,0.08925913298401805,1.0528366818169812,0.78536989142,1.34836511627,0.023386073959422004,0.1522020059663544,979.5577018426543,979.3894232039,979.81366065315,0.012442972223274257,0.4242374492499721,0.11102065435253931,0.0008241356240076639,0.08126642464352596,0.58,0.42,0.9269751337014442,Stairs down
-0.9793491158396774,-1.39416503906,-0.71264648437,0.030542815387118772,0.1738228926734474,0.2124653477794623,-0.04748535156,0.42736816406,0.013526287614085041,0.11567559665394174,-0.022262737315268805,-0.20422363281,0.09216308593,0.007565428352901948,0.08651057542829813,1.011336868537957,0.71843634893,1.46712681174,0.03339802237190052,0.18176606903317394,979.6232709634304,979.51343948403,979.71113524466,0.0029467648992596816,0.19769576063004024,0.05399147391192076,-7.02111412803016e-05,-0.5641364732188912,0.53,0.47,-0.442489668190743,Stairs down
-0.9597733660406097,-1.28100585937,-0.69982910156,0.029803860038203556,0.17158204547801786,0.2963658774734146,0.20385742187,0.47827148437,0.004911211466030817,0.06965140804947408,-0.05305592606646343,-0.20239257812,0.06713867187,0.007213446649011224,0.08441254520175254,1.0107183689619512,0.73116002548,1.31268271241,0.032069240484805424,0.17798357279875646,979.711478525605,979.61806660204,979.87238269066,0.0050318309363888356,0.25431608861993027,0.0705015400149646,0.0003474999543351347,-0.636733178416943,0.52,0.48,0.5300188789771567,Stairs down
-0.9876723691612049,-1.32568359375,-0.71704101562,0.030287516369687066,0.17298152078735954,0.3035035650381928,0.20715332031,0.50207519531,0.0050597066323044395,0.07070181264602275,-0.025092067489156634,-0.16357421875,0.10510253906,0.007718820852264362,0.08732595840110097,1.0389239650102409,0.7516078503,1.35926904484,0.03180813598349675,0.17727071227215938,979.7980664385634,979.66160267916,979.93578709355,0.00886550761812326,0.2741844143899925,0.09358789597659836,0.0013320473938315779,-1.4579425575099936,0.51,0.49,0.11760367250883033,Stairs down
-1.0128784179646078,-1.30249023437,-0.77954101562,0.02423880411550748,0.15492310602696333,0.28367106119509805,0.12841796875,0.39306640625,0.0046361929954454794,0.06775500072275929,-0.04177317899764705,-0.16589355468,0.07788085937,0.005763794625326945,0.07554658718223188,1.0568413529817646,0.81130607622,1.34685941718,0.0257752075018192,0.15975765831113156,979.8677586745924,979.75742519696,980.02508418983,0.005009294174898392,0.26765899286999684,0.07042856982570003,0.001061666124193609,-0.027206338624450765,0.49,0.51,0.6904848048244429,Stairs down
-0.9957071940067778,-1.35791015625,-0.72595214843,0.03600957663236809,0.18870471701932037,0.2590847439191112,0.07373046875,0.54052734375,0.013462298029569409,0.11538074770234405,-0.06232774522544443,-0.24719238281,0.04626464843,0.0077213939295982005,0.08738192412457954,1.0373965691137776,0.73666571409,1.43642111387,0.04328961044659872,0.20690242815145946,979.9507524370209,979.82336282283,980.21111392098,0.011125399240884716,0.3877510981500336,0.10488938789869914,0.001383122487938696,-0.3118197820236621,0.61,0.39,0.8426929053758884,Stairs down
-0.9944353801406098,-1.25756835937,-0.65478515625,0.031758378299405025,0.17711883299940415,0.2758967701945122,0.12866210937,0.41650390625,0.0058684989707850094,0.07613758539752676,-0.07457900628414633,-0.18090820312,0.0234375,0.002637697922590265,0.051044401012782965,1.0376863414007316,0.68983697337,1.3257457571,0.03397774465581356,0.18320311655675653,979.9780186972079,979.90827645161,980.10498659035,0.005123244925542485,0.19671013873994525,0.07113906331186494,0.0010368131319477554,-1.0517583149387253,0.62,0.38,0.7362869954602879,Stairs down
-0.9956323242152999,-1.33642578125,-0.7138671875,0.03212116781524946,0.17832542201575458,0.29795166015300006,0.185546875,0.47961425781,0.007799570421863514,0.08787249124524056,-0.04287597656059999,-0.12976074218,0.04504394531,0.0021712452230305515,0.046363053941692045,1.0429422276953,0.7704820133,1.40055043945,0.036201858070387595,0.18931412913378579,980.0005062121868,979.91841039694,980.18968651723,0.008538687955012563,0.27127612029005377,0.09194183528439291,2.3932656017488803e-05,-0.865083373192054,0.7,0.3,0.9408476518782873,Stairs down
-1.0318834806701052,-1.35205078125,-0.76354980468,0.024986611178199124,0.15723738174629023,0.3011962890586316,0.14819335937,0.44677734375,0.007753188749690936,0.08758753470977645,-0.05437911183831579,-0.19653320312,0.04541015625,0.0028212887941296647,0.05283550905735037,1.0802021173696845,0.83204135978,1.40685338215,0.027095169438086368,0.16373746403377504,980.0185752887857,979.91956574982,980.22154325447,0.006872811001045837,0.3019775046500399,0.08246493571262552,0.0005028488144157454,0.7422019728636395,0.64,0.36,1.2665961953679832,Stairs down
-0.9347728056031763,-1.27880859375,-0.67016601562,0.03087979290920497,0.17468972845568284,0.3605138442055294,0.15661621093,0.86694335937,0.049885604490980985,0.22203313947782932,-0.024880801930117644,-0.24243164062,0.0849609375,0.00748916579681851,0.08602940174100226,1.0304197472671768,0.77978665632,1.31345986848,0.030196151768164543,0.1727451965289721,980.0096816816932,979.89740257749,980.18668478593,0.007276611907487891,0.2892822084399995,0.08479979191351987,0.001593386111111145,-1.1980687373390893,0.61,0.39,0.4850830454290481,Stairs down
-0.7539157619685714,-1.06774902343,-0.46984863281,0.018955570210526285,0.13678228676998327,0.2676748300488312,0.06506347656,0.57312011718,0.022945801810506233,0.15049187481188397,-0.5674652495903895,-0.77575683593,-0.33813476562,0.007702107273251521,0.08718990713417715,1.0014885334067534,0.8448351928,1.1936767643,0.008141327526690903,0.08964148593352433,980.1044495153965,980.01065978281,980.3884402661,0.005489276768560469,0.37778048329005287,0.0736069796953921,-0.0017389462185020122,6.028659508782212,0.53,0.47,2.0256151344089033,Stairs down
-0.8040016410238144,-1.0400390625,-0.56652832031,0.01307201275081913,0.11374203151328645,0.23700643322804124,0.10546875,0.41833496093,0.00422869280249706,0.06469233363650825,-0.5990116080017526,-0.77062988281,-0.48779296875,0.004955177345733043,0.07002922992008202,1.0370244112343299,0.90954770057,1.24080812894,0.006716310362097667,0.08152956549060193,980.2096778138153,980.11013344524,980.31843921821,0.0037674170755045817,0.20830577296999309,0.06106208090305079,0.001731157238482385,-0.8592544157187816,0.48,0.52,-0.26432839827990406,Stairs down
-0.932009379065521,-1.37121582031,-0.5419921875,0.0494135812644312,0.2211308582256067,0.23768234252520834,0.03637695312,0.44421386718,0.015319103340809145,0.12312404049443681,-0.10582097371427084,-0.79187011718,0.17004394531,0.06060004920265642,0.24488527658911785,1.0125935186472919,0.69655392225,1.38881500193,0.035382576083975346,0.1871203024342912,980.2455456414272,980.14538150693,980.3085559583,0.0023890591909606082,0.16317445136996866,0.04862276378119034,0.0005972474521668139,-0.9231862255895869,0.36,0.64,-0.5030558142288097,Stairs down
-1.0514682503590695,-1.47302246093,-0.69030761718,0.05401834636811762,0.2310632512138432,0.34951853197290694,0.09692382812,0.76904296875,0.032114633457533195,0.17816062271752636,-0.04414970930034884,-0.22058105468,0.1318359375,0.008437301986467974,0.09131918650445056,1.1278243664069771,0.73093962154,1.53744263774,0.051782834428503496,0.22623153725061568,980.3974817106707,980.26017341148,980.56430482908,0.00499040366629626,0.3041314176000469,0.07023087438362251,-0.00021708145211475592,0.5962916378178944,0.56,0.44,0.7750632214466224,Stairs down
-1.009911825487093,-1.31372070312,-0.74926757812,0.02751019941338162,0.16489485551008295,0.3432574604801163,0.17492675781,0.56506347656,0.016246764957144978,0.1267195686764687,-0.03851176416953488,-0.126953125,0.11608886718,0.00374726538915958,0.060857970191235095,1.073681145645465,0.79818308746,1.41717984976,0.033784227750256635,0.18273310562866138,980.4779842464421,980.37232856473,980.67880956745,0.010438728802262315,0.30648100272003376,0.10157434831094979,-0.0005322518905005448,-1.114866955835079,0.55,0.45,0.48181326091657584,Stairs down
-1.0242345473301961,-1.26379394531,-0.8154296875,0.020624528340099996,0.14290670761676558,0.2896812289329412,0.17297363281,0.46472167968,0.008576309698369845,0.09215328659759654,-0.0479532877585294,-0.15771484375,0.04113769531,0.003070302258273639,0.05513802005641429,1.069388457055196,0.85939256476,1.34653005121,0.023868226860132274,0.15373426630394843,980.4426200506274,980.36068962036,980.61010287357,0.005967231792239721,0.2494132532100366,0.07686826080878104,1.1220856412122511e-05,-0.5811614818661601,0.68,0.32,0.869752616550905,Stairs down
-0.930091688365111,-1.24658203125,-0.63488769531,0.032268006026672014,0.17863222728941064,0.34496934678444446,0.19030761718,0.67236328125,0.020977966736878927,0.14403082384538482,-0.11446804470155555,-0.37512207031,0.07775878906,0.013632145164725532,0.11610631716283774,1.0180580057473332,0.74303129315,1.2970971641,0.02473862476880828,0.15640892289209707,980.4850600437342,980.37691075656,980.66100390064,0.006754471010196575,0.284093144079975,0.08172772682698022,0.0014747346002522926,-0.33849007453072844,0.6,0.4,0.7979017627673723,Stairs down
-0.39889413338790125,-0.89721679687,-0.07543945312,0.037598077125476824,0.1927015914148201,0.45954951533259253,0.27197265625,0.73193359375,0.0188424361664833,0.1364177902539155,-0.7697618272533333,-1.00341796875,-0.28503417968,0.04078214392085237,0.2006954425555554,1.0219992456638272,0.78704903799,1.19955586842,0.014555170204969405,0.11989777623312618,980.5477593686747,980.3841252767,980.66105508507,0.007803092768121625,0.2769298083699141,0.08778814435618763,-0.0018468268140963274,-0.93614474744524,0.43,0.57,-0.41329191886094935,Stairs down
-0.7844761439693405,-0.99353027343,-0.359375,0.01935492030190561,0.13835544394788568,0.20971947973538457,0.06359863281,0.39282226562,0.006514083338403157,0.08026518551037001,-0.6405310997561537,-0.88781738281,-0.53381347656,0.005857220979865205,0.07611081338517149,1.047403837782967,0.92529723636,1.20368455904,0.00403226639998496,0.06315026350067675,980.6017584154407,980.43731582683,980.72387299053,0.006494796704250881,0.2865571637000812,0.08014627447296896,0.002520217244276003,-0.7002785017346826,0.44,0.56,-0.43177416787393025,Stairs down
-0.9474337830803061,-1.41943359375,-0.65246582031,0.04910533775871377,0.22046374505488392,0.2469768913390816,0.08154296875,0.42553710937,0.009303550376333911,0.09596153494406132,-0.35734464684091843,-0.82531738281,0.06945800781,0.09311762248849875,0.30359091334753013,1.097256838627245,0.81986963033,1.45388360884,0.0326646190664132,0.17980908382770877,980.7218061735739,980.63114897213,980.89969129499,0.004185263192318454,0.2685423228600712,0.06436269435822198,2.5022697484107954e-05,0.17765251026158335,0.56,0.44,0.7136650442611204,Stairs down
-0.6791470988362921,-1.16711425781,-0.39196777343,0.03784781318085203,0.1934491066223292,0.7071834949932584,0.3583984375,0.95935058593,0.030256673788696634,0.17296447948020235,0.053686249122808984,-0.49865722656,0.72680664062,0.116675661427286,0.3396537927645428,1.0565878359191012,0.74000353472,1.36631658335,0.03090484822487333,0.17480733033600335,980.827910861778,980.66226569538,980.94802849751,0.006118537222098084,0.2857628021299661,0.07778039349901122,0.0004892361673622158,-1.2974161816372165,0.53,0.47,0.06140700416407648,Stairs down
-0.6926140280291764,-0.94714355468,-0.375,0.03270978410415121,0.1797914433856367,0.7020909926427058,0.47265625,1.06909179687,0.022911240865842262,0.1504715815549763,0.1967084099255294,-0.12805175781,0.51025390625,0.02799286744610326,0.16632359902850877,1.028241158668235,0.64547706334,1.34717748126,0.03712726282510931,0.19154756980383508,980.9166920734932,980.80449057043,981.07972116074,0.0060567813609202865,0.2752305903100023,0.07736617548784055,-0.0018300152081508901,-0.4276855700323332,0.51,0.49,0.3757356389600695,Stairs down
-0.7958089192674286,-1.03198242187,-0.46618652343,0.028221506988519714,0.1671907016896759,0.6702404203826666,0.42492675781,1.05871582031,0.03013920053144664,0.1727777778719973,0.12526506696238096,-0.21118164062,0.51025390625,0.029512670307532757,0.17097250438881928,1.0722388088142858,0.64876099066,1.37930839877,0.035907798526134946,0.1885890227254829,980.913885424034,980.81428145611,981.08839841704,0.004984142233676881,0.2741169609299732,0.0702614703262305,0.00020956977580672385,0.9041639501544609,0.61,0.39,1.2165882692890007,Stairs down
-0.7704224945359138,-1.06860351562,-0.48059082031,0.024687127504811317,0.1562743565684678,0.6161033056082796,0.3466796875,0.87243652343,0.02375465399812901,0.15329457789188877,0.15032630838053762,-0.17651367187,0.41345214843,0.02120467683190333,0.1448332474059079,1.016437996010753,0.68591056588,1.31380853251,0.03182568588921547,0.17743583125453366,980.9335221853336,980.81294247386,981.07850761441,0.005443190765042633,0.2655651405500521,0.07338025505601072,-0.0006571814026400007,-0.7957064731727024,0.59,0.41,0.41507144187465583,Stairs down
-0.7371546733771083,-1.11096191406,-0.47351074218,0.027852622955993722,0.16588263678106754,0.6744575960045782,0.47351074218,0.96508789062,0.01432644575211428,0.11896990363940085,0.06163080054469879,-0.20874023437,0.27087402343,0.022893696803603467,0.15039238388718656,1.0166191173236143,0.67257837693,1.41006675499,0.0304535190527093,0.17345491974747895,980.9306825214076,980.85062495452,980.99502102776,0.0011378718168944463,0.14439607324004555,0.03352853289208638,0.0008867267844092653,-0.018447695481215387,0.53,0.47,-0.14271996231166026,Stairs down
-0.665791320797625,-0.98486328125,-0.27673339843,0.03779369194446274,0.19318713931097214,0.67845458983975,0.47937011718,0.86047363281,0.010407269604671284,0.10137642099922888,0.154409790037125,-0.10620117187,0.72155761718,0.03961163486560137,0.1977788902531849,0.994905360683625,0.66562910974,1.22696278351,0.02460694564620216,0.15588251609986487,981.0555856858024,980.95662973483,981.25762146887,0.009212644668161464,0.30099173403993973,0.09538074548780506,0.0033590499332888106,-0.25684922687842215,0.6,0.4,0.9895389946573252,Stairs down
-0.9361979166625491,-1.30383300781,-0.20617675781,0.0569690738377271,0.23750905983979784,0.3738044289955882,0.26098632812,0.63464355468,0.0068657015627927994,0.08245235450341959,0.07739736519519606,-0.12182617187,0.53552246093,0.021124541440207006,0.14462862127792686,1.0417026057810783,0.66815372605,1.36024812084,0.02137829705822779,0.14549469375409574,981.1134149487092,980.98240966909,981.2727170902,0.0050275944006479365,0.29030742111001473,0.0705570992846582,0.000418747164247946,0.48071891119890253,0.52,0.48,0.41933872183520804,Stairs down
-1.0484806941061537,-1.35534667968,-0.73693847656,0.027522820870702628,0.16498597603949827,0.2666471711843956,-0.01416015625,0.50378417968,0.018660133298085867,0.13584946407040696,0.07162039620351648,-0.08776855468,0.28503417968,0.008224903306705373,0.0901915725214082,1.095845461166044,0.77150081182,1.39754599919,0.028791040198082426,0.16874434847117292,981.2660918703563,981.14399161705,981.61184235538,0.015364323743950041,0.4678507383299575,0.12326996804367661,0.0015469368698704236,2.683386042779315,0.7,0.3,1.8663102822844946,Stairs down
-1.0430158132490361,-1.44714355468,-0.73522949218,0.029692918727784946,0.17127513748065262,0.3364463714193976,0.07824707031,0.59753417968,0.021854945733261417,0.14694091715402316,-0.036544615962289154,-0.18566894531,0.15710449218,0.007229686404660147,0.08451379620619533,1.108992559816024,0.76107575102,1.48083485024,0.03099194326653744,0.17498156005622903,981.3623896438075,981.28627539433,981.46857802772,0.002813915241144525,0.18230263339000885,0.05272582524605683,0.001102012802494234,-0.6807681301498301,0.59,0.41,0.4577562541903565,Stairs down
-1.0382394692297938,-1.29455566406,-0.7470703125,0.027804319833245373,0.16588453020320398,0.3368725334205154,0.20520019531,0.55749511718,0.010560187786285724,0.10223169699737548,-0.002206074822371134,-0.11462402343,0.16223144531,0.004040874927610313,0.06323935818145184,1.0970611566392783,0.79943798261,1.40608952454,0.030165179486699167,0.17278367473484735,981.4151505185573,981.34699024832,981.55816251518,0.004394362151433383,0.21117226685998958,0.06594739910596388,0.0001417211279950999,-0.2742143313809491,0.62,0.38,0.9738469006028472,Stairs down
-1.005385080969375,-1.37170410156,-0.69873046875,0.029739416545846848,0.17155066585947026,0.29615275064760416,0.14526367187,0.42614746093,0.006624485212342652,0.08096591973199228,-0.0387268066384375,-0.11254882812,0.06201171875,0.0021414076025548416,0.04603369715069128,1.0518921838603124,0.74596673573,1.43313082359,0.03196539711416822,0.17785506522886071,981.4102238269143,981.34952536241,981.5013854651,0.0026041378831318978,0.15186010269007966,0.050764273331244225,-0.0001919093798569194,-1.213486346660529,0.68,0.32,0.601597299972978,Stairs down
-0.9683809168161177,-1.28979492187,-0.74572753906,0.02568037700679132,0.15930553952816104,0.30271570541894116,0.20935058593,0.44262695312,0.004085406485635628,0.06354008876231027,-0.023502125459058824,-0.12915039062,0.119140625,0.00356503348533449,0.05935563928489685,1.018043897184118,0.80028063314,1.36502370996,0.026791252595085656,0.16271466248646632,981.4030918082676,981.34214713264,981.49490508682,0.0028120722834557095,0.15275795418006055,0.05271611784000161,-0.0004769069319615063,-1.225827264634739,0.65,0.35,0.6070850663069822,Stairs down
-0.9978903745955126,-1.29724121093,-0.76879882812,0.018322458862492456,0.1344899830609795,0.2808477939667949,0.15234375,0.40979003906,0.0038255472883824246,0.06145324898104444,-0.00819436097653846,-0.12097167968,0.12060546875,0.004976004500575871,0.07008715696246573,1.0410769764078207,0.8094600699,1.32211994287,0.017892214118858107,0.13290156793040453,981.4583949386954,981.36321029987,981.54277027566,0.0022855606170428863,0.17955997578997085,0.047500090082546464,0.0006443991460436676,-0.7676776255105202,0.4,0.6,-0.17978792469848448,Stairs down
-0.9655651855437,-1.1171875,-0.80285644531,0.007781324090014058,0.08776964651355226,0.2893749999962,0.21130371093,0.39477539062,0.00291817246049391,0.05374933242272848,0.0133935546866,-0.13830566406,0.146484375,0.0063633015896862166,0.0793704515155946,1.0128970269805,0.8491688518,1.15927193715,0.00723756399522868,0.08464743560957055,981.5678644375485,981.47993698695,981.70467359784,0.00508257209469252,0.22473661089009056,0.07093480368440865,0.0011147492972199608,-0.7353238292914166,0.54,0.46,0.761532813223337,Stairs down
-0.9400634765586315,-1.35217285156,-0.69775390625,0.02679580798806838,0.16283042360490213,0.32344649465094744,0.13208007812,0.65502929687,0.014397195185134205,0.11935512457424186,-0.19463019119852634,-0.72436523437,0.087890625,0.06922622896584915,0.261720331305843,1.0559011909379998,0.8531064814,1.48785892511,0.020766075868854744,0.14334394161090663,981.6840388872484,981.56163949657,981.80832030046,0.005177525021765663,0.2466808038899444,0.07157530830096827,0.0020340207256283023,-1.3035449476622099,0.53,0.47,-0.0901109353579174,Stairs down
-0.8006882440432141,-1.44116210937,-0.43408203125,0.07923231089652404,0.2798018389863384,0.2731148855979762,0.0078125,0.64440917968,0.025068927113617946,0.1573864273218072,-0.4396100725419047,-0.958984375,0.05383300781,0.1105236553175505,0.33046618210665835,1.0353572662479764,0.57015542257,1.49058908963,0.04984661823901661,0.22193063357077036,981.7824872100623,981.64061194328,981.98011282751,0.009133144470918989,0.3395008842300058,0.09499692921642733,-0.0005814641645076404,-0.4514595048052392,0.58,0.42,0.4993641016023826,Stairs down
-1.0282101838445652,-1.39318847656,-0.6884765625,0.031225531330471352,0.17574448321704753,0.3670203167418477,0.13220214843,0.54907226562,0.014263540413850058,0.11877921506345636,-0.08616704525923914,-0.21899414062,0.0703125,0.005259185650058673,0.07212503441000907,1.1022166172309786,0.7160205639,1.44990820306,0.03504090879673214,0.18617204235139442,981.8966438609434,981.7702633167,982.08169885922,0.003816088214512811,0.31143554251991645,0.06143784659955007,0.0013130302325198705,1.3739351512533666,0.49,0.51,0.8082604415245287,Stairs down
-0.9872837259275757,-1.31494140625,-0.7470703125,0.03232000009170577,0.17886736830488337,0.31272934422,0.17224121093,0.56640625,0.010835063784092337,0.10356456293232802,-0.04857288707050505,-0.16906738281,0.09826660156,0.0062909001873417475,0.07891359668019803,1.0430393678077778,0.77575849747,1.43961949208,0.036269873012488844,0.18948221726280107,981.9572458811605,981.86483829418,982.12705889275,0.008025614163879459,0.2622205985700248,0.08913219033628256,0.00010166756151540297,-0.9489275649947078,0.68,0.32,0.7817175597378906,Stairs down
-1.0422349409592047,-1.36267089843,-0.79064941406,0.028974074911139208,0.1692478184789283,0.3135486949529545,0.15698242187,0.47595214843,0.008347485475196207,0.09084397440504978,-0.025910810988409094,-0.09899902343,0.07238769531,0.002298144942483406,0.04766581226671895,1.0918937408154543,0.81466779006,1.41518828327,0.03254519836117433,0.1793749329243513,981.9609578205178,981.88150167409,982.11597384668,0.005156809434289417,0.23447217259001718,0.07140174596661893,0.0001282463548576863,-1.116732724326014,0.61,0.39,0.6527556138950016,Stairs down
-0.9840056986713923,-1.26330566406,-0.75207519531,0.023252996104973833,0.1515211351004409,0.30036868324367094,0.18237304687,0.5048828125,0.007190835897656715,0.08426038605682905,-0.019166584255822783,-0.17749023437,0.08520507812,0.004296990347488316,0.0651352290593095,1.0349268402884808,0.83595922031,1.35419757392,0.02236653995934151,0.14860490974514437,981.9668330861555,981.8800794638,982.12846591092,0.006314014182979158,0.2483864471199695,0.07895625341171442,-0.00046121076594003377,-0.5548930497931805,0.61,0.39,0.7944269420971135,Stairs down
-0.990883431779756,-1.33752441406,-0.75891113281,0.018298358048117764,0.13444406770182865,0.3270993116380488,0.20727539062,0.41137695312,0.002562978333762652,0.050316225021597986,-0.020528653773048782,-0.16003417968,0.10583496093,0.005566589185982914,0.07415324640234919,1.047562012417439,0.79364707196,1.37659956809,0.018206859480906293,0.1341075113824275,982.030482718764,981.90881802392,982.158124932,0.004115182426593412,0.24930690807991596,0.0637573311474813,0.0011045424017377037,-0.49063836928808247,0.38,0.62,-0.3819806858523017,Stairs down
-0.9034328086660783,-1.2197265625,-0.50146484375,0.025590803861243478,0.15918515517255283,0.2609097349845099,0.04174804687,0.40954589843,0.008099893509077805,0.08955714817031955,-0.20516788258058818,-0.59729003906,0.19323730468,0.060110205743171066,0.24396903492162886,1.0007016245058822,0.68829223113,1.25498771377,0.018012730148700945,0.13355199270353935,982.1688716042474,982.05631489613,982.35822291055,0.007035497049195268,0.3019080144200643,0.08346569108279549,-0.0016885851920191558,-0.8308264711938818,0.42,0.58,0.27230887596911385,Stairs down
-1.0077816470604395,-1.21337890625,-0.849609375,0.009483631317183171,0.09684738297147175,0.30970847999307693,0.25952148437,0.39916992187,0.001536379327028592,0.0389807136635617,0.008967472956263736,-0.11547851562,0.13806152343,0.006505715286164106,0.08021361423968547,1.058496007709121,0.89522731968,1.24946716992,0.008637865095871366,0.09242804499399108,982.252085293204,982.12500526418,982.3897696509,0.007478302951080554,0.26476438672000313,0.08600071975147636,0.001389782298054916,-1.1458834378703526,0.48,0.52,0.17822140906218928,Stairs down
-0.9700138743291463,-1.23913574218,-0.74670410156,0.01706410682180236,0.1298306895850201,0.25359511956426833,0.10681152343,0.41979980468,0.00733895844612154,0.08514375463224626,0.062160584982682926,-0.13623046875,0.1748046875,0.005827130735545879,0.07586875618856684,1.0107260304876828,0.7765425382,1.28218609062,0.017610528294617452,0.13189300873980844,982.3518638661999,982.2387978061,982.44836949314,0.0035677917160346294,0.20957168704001106,0.05936566398989433,0.0012418009861326466,-1.2664353847629046,0.49,0.51,-0.13594385054220917,Stairs down
-0.8730243571719416,-0.87976074218,-0.86608886718,1.4020750215429413e-05,0.0037262080493351544,0.42547903708631063,0.42077636718,0.43127441406,8.530138950435537e-06,0.0029064277158432138,-0.3230513785616504,-0.3330078125,-0.31396484375,2.1780434170921988e-05,0.004644240911601239,1.023525162359903,1.01927474876,1.02806502576,6.3368679400372445e-06,0.0025050638615269163,982.5438663229062,982.52426448538,982.55810347388,7.910196202310529e-05,0.03383898850006517,0.008850648666018143,0.00027885773995103537,-0.6145416345736812,0.61,0.39,-0.10899683686626603,Lift up
-0.8895473685282796,-0.92419433593,-0.869140625,0.0003692950320097423,0.01911345383982332,0.43453618531139787,0.41931152343,0.466796875,0.0002539288627354901,0.015849241144503222,-0.323244812664086,-0.34973144531,-0.30285644531,0.00018929851393256105,0.013684408867057907,1.0414844274135482,1.01363548404,1.08918223933,0.000725196997057816,0.02678430846382171,982.5508246202156,982.53207713629,982.55848165916,3.1025909719605394e-05,0.026404522869938774,0.005540062976820437,-0.00012936390797380168,1.2725132387853675,0.32,0.68,-1.1558165607642972,Lift up
-0.8865849138708433,-0.91333007812,-0.85717773437,0.00039875493346173464,0.019848190274051856,0.4522043251086746,0.43200683593,0.46459960937,0.00011319877942165154,0.010575203955750831,-0.33275043533048193,-0.3515625,-0.30798339843,0.0001783501855114677,0.013274087090857391,1.0494346683545783,1.0097472523,1.0779866185,0.0006207561946554623,0.024764434262837674,982.4847224179135,982.41894421151,982.53207713629,0.001136274947268484,0.11313292477996129,0.03350499795049747,-0.0013785360754985157,-1.092761677587051,0.47,0.53,-0.33737726112637123,Lift up
-0.8700157264580517,-0.87414550781,-0.86352539062,9.25024975342464e-06,0.0030216082869465063,0.43432617187064926,0.42590332031,0.44226074218,1.6983010263503223e-05,0.0040941973192131975,-0.3215316177924676,-0.32824707031,-0.3134765625,1.3346536181746906e-05,0.0036294909481941018,1.0241969080284414,1.01925752699,1.03261281043,9.04593500379256e-06,0.0029880520960014452,982.3072899620581,982.2032273578,982.41894421151,0.004566181494162937,0.21571685371009153,0.06713330347746328,-0.0030016205039749676,-1.1937569268980777,0.52,0.48,0.16430984404372279,Lift up
-0.8668471116244232,-0.87829589843,-0.86071777343,1.6214972871952643e-05,0.004007375658864638,0.4366666353626923,0.42834472656,0.44555664062,1.8784560718296838e-05,0.00431322848248958,-0.3268784743053846,-0.33508300781,-0.31811523437,1.8366237596638504e-05,0.004264931319283968,1.0241932850579807,1.01892443754,1.03466467071,1.2889575955417958e-05,0.0035729032627650867,982.0887022085262,981.98964445065,982.19456331069,0.003408622064048302,0.20491886004003845,0.058102038276587095,-0.0019283283412641346,-1.1284732713791112,0.53,0.47,-0.03277722386250461,Lift up
-0.8647563733517895,-0.87561035156,-0.85668945312,1.8525207031222044e-05,0.004281378849383224,0.4380743729404209,0.43005371093,0.44689941406,1.7669249627847046e-05,0.004181298545488147,-0.32215126438715797,-0.33190917968,-0.31298828125,3.7327982805166416e-05,0.006077421876945452,1.0215425960151578,1.01605382815,1.03408560896,1.7839456116862643e-05,0.004201389337857667,981.8791722916868,981.77035700369,981.98964445065,0.00424672226920554,0.21928744695992464,0.0648229892054485,-0.0023559033170530734,-1.1866548753787054,0.47,0.53,0.024295429146345644,Lift up
-0.862233479814762,-0.86755371093,-0.85693359375,1.2326746216594587e-05,0.0034899855641285405,0.44272577194511903,0.4296875,0.4541015625,3.590012033922801e-05,0.005955899424456158,-0.32059587750761903,-0.32751464843,-0.31042480468,1.669079450654534e-05,0.004061045994807694,1.020924399269643,1.01456993026,1.02775690887,1.2058898681761473e-05,0.0034518604207182907,981.6615561482691,981.55353371792,981.77035700369,0.004344446192253476,0.21682328577003318,0.0655189025757197,-0.002690633063719982,-1.2973684266017913,0.48,0.52,-0.022872565817664954,Lift up
-0.8635624231879775,-0.86840820312,-0.85803222656,7.3237190485076585e-06,0.002690990537039203,0.44149128774213486,0.43273925781,0.45092773437,3.014179945228445e-05,0.005459224079329058,-0.3247495501197753,-0.33935546875,-0.31005859375,5.2363053352510106e-05,0.00719546415726164,1.0228699773867416,1.01429586737,1.02714057189,8.928241204158916e-06,0.0029711822373018884,981.4307645227105,981.32243832602,981.55353371792,0.004298454447276854,0.2310953918999985,0.06519322975812915,-0.0025212349590405885,-1.2427900713336852,0.54,0.46,0.18098634595281535,Lift up
-0.8645907315304039,-0.87219238281,-0.85803222656,1.2302525851915463e-05,0.0034897360808544427,0.4377651021892929,0.43237304687,0.44470214843,1.2070561065121229e-05,0.003456679939751087,-0.3225036004530303,-0.33044433593,-0.31274414062,1.8547801869991746e-05,0.004284909606508803,1.0213669448973737,1.01396490282,1.02990861553,1.620495287661062e-05,0.00400515498875107,981.2228161219739,981.11824663873,981.32243832602,0.0037942035131790747,0.2041916872899492,0.06128522028325561,-0.002135729786728945,-1.2219036865664203,0.47,0.53,-0.049167480852968216,Lift up
-0.8658420138855554,-0.87609863281,-0.8603515625,1.2144271506120584e-05,0.003465448766906326,0.4379177517324444,0.43127441406,0.44616699218,1.3240260274701331e-05,0.003618445283771622,-0.3267686631907778,-0.33557128906,-0.31481933593,3.0276294662943452e-05,0.005471735683392496,1.0238553051257777,1.0198427068,1.03158645487,7.549963547663209e-06,0.0027324119498714473,980.996950633372,980.88025904821,981.09658094247,0.003941189057881235,0.21632189426009063,0.06242914438264568,-0.0023946276451679164,-1.1698938873565816,0.48,0.52,-0.001178320186723029,Lift up
-0.862716674801,-0.87109375,-0.85363769531,1.9716075319438887e-05,0.004412439730800399,0.436799621578125,0.42919921875,0.44580078125,1.884817464234775e-05,0.004314229068943651,-0.33030853271162497,-0.3408203125,-0.32189941406,2.7307601582793273e-05,0.005192904443854937,1.0218733208850002,1.01309901608,1.03017818498,1.7885255001661425e-05,0.004202581267999544,980.7831983365534,980.68157775486,980.88025904821,0.003746370144684957,0.19868129334997775,0.060823848265926045,-0.0026224099672410564,-1.2081689626924446,0.51,0.49,-0.04990982592865008,Lift up
-0.8606643676721876,-0.87316894531,-0.85095214843,3.738428808486577e-05,0.00608234070217339,0.4389724731404166,0.431640625,0.44458007812,1.2015923849695706e-05,0.0034482978375223587,-0.3344802856409375,-0.34191894531,-0.32312011718,2.2362349066709416e-05,0.004704190464957585,1.0224238584959375,1.01293493689,1.0361247732,3.791095950778182e-05,0.006125034994151116,980.5509961382874,980.44505763912,980.66702771302,0.004096208031577379,0.22197007390002454,0.06366741079952219,-0.0022891118258486407,-1.0874342905739223,0.49,0.51,0.052188642739531145,Lift up
-0.8589907997489472,-0.87170410156,-0.85180664062,2.3522899642028126e-05,0.004824447136420094,0.4413998252434736,0.43371582031,0.45202636718,2.0114148046301896e-05,0.004461212858868123,-0.3264352898821053,-0.33264160156,-0.31591796875,1.9691826108901475e-05,0.004414130008145181,1.019461366118421,1.010765901,1.03063736404,2.0398226556939564e-05,0.004492605967882782,980.3429203574793,980.22892128181,980.44505763912,0.00418910514402824,0.21613635731000613,0.06438174663992031,-0.0023359883232484395,-1.226217336337062,0.47,0.53,-0.09032137473374453,Lift up
-0.8309269394939532,-0.85583496093,-0.81433105468,9.175711063288783e-05,0.00952313853128231,0.4241702057559302,0.41040039062,0.43835449218,5.352105103631381e-05,0.007273150158876549,-0.31736861827372104,-0.34582519531,-0.30224609375,9.832467001126385e-05,0.009858060655872117,0.9854871588239534,0.96914503287,1.01436476647,0.00014024285973823043,0.011773365228813795,980.1296871749562,980.05668235897,980.22892128181,0.0025991125877351893,0.1722389228400516,0.050684221887515646,-0.0020196743187649155,-1.1608418961500728,0.51,0.49,0.2847609241740637,Lift up
-0.8539000763254023,-0.865234375,-0.84155273437,2.9912358359753768e-05,0.005437696033130403,0.43687842357735607,0.42834472656,0.44470214843,1.4418998492890515e-05,0.0037753493716515436,-0.34043445805977013,-0.35095214843,-0.32653808593,4.338451372819547e-05,0.0065487282090957956,1.0178178730517242,1.00562680713,1.02948569605,3.763510041654594e-05,0.006099386285146746,980.0331184549475,980.01584778756,980.05724454709,8.123626843352196e-05,0.041396759530016425,0.00896116723544664,-0.0002524888213775852,1.5231970221010753,0.75,0.25,1.4761773962934635,Lift up
-0.7851876740360397,-0.97595214843,0.04211425781,0.04681536425702931,0.21529478813719324,0.4213770498110892,-0.28540039062,0.71252441406,0.022605652118202483,0.14960559408123245,-0.4493299427560395,-0.76379394531,-0.32080078125,0.025467140108150196,0.15879228635575882,1.037023182595446,0.61167066928,1.25386990289,0.014652360447683099,0.1204462019823102,980.0336337136816,979.90694551227,980.14851206719,0.0025144911526715093,0.2415665549200412,0.049895843520927276,0.0003607005600733744,1.0281674098581473,0.77,0.23,0.7970750201567112,Lift up
-0.7579690684401087,-0.7724609375,-0.74890136718,4.547648578409514e-05,0.006706875290029415,0.6722106933551085,0.66467285156,0.67993164062,2.1224370695249957e-05,0.0045818850939083845,0.09461245329097828,0.07995605468,0.10522460937,4.051864944888914e-05,0.006330736872290921,1.0175595126308692,1.01092044898,1.0275403839,1.46933324953173e-05,0.003812298828725082,979.9790061772078,979.97229303915,979.98876467677,2.0723351764865244e-05,0.016471637619929425,0.004527482516955101,-0.00010032310146689143,-0.4006320219458699,0.62,0.38,0.4401189523526656,Lift up
-0.7530990911949998,-0.78015136718,-0.73937988281,0.00010857712134281903,0.010366734854002895,0.6887007732740816,0.67102050781,0.71032714843,0.00011000457926187936,0.010434657807284602,0.09479507134479592,0.07995605468,0.11389160156,8.576803180081624e-05,0.009213731480939126,1.0249748882682654,1.00923004556,1.05873772743,0.00018268853105697953,0.013447094941760643,979.9803823880071,979.97376941724,979.98440411141,6.172117313666012e-06,0.010634694169993963,0.002471666750342985,-3.4120758697795803e-05,0.16380432649082044,0.55,0.45,-0.4287395069536216,Lift up
-0.5022263960367046,-0.87072753906,-0.15954589843,0.06470971751328747,0.2529315714067203,0.8390086780859091,0.70776367187,1.03674316406,0.013007401353540941,0.11340013216272471,0.3139717795593182,0.08093261718,0.87683105468,0.054370339011598254,0.23184584156310162,1.0847735211742047,0.83234646695,1.31645613442,0.00869689326967587,0.0927257512078814,979.9229517442983,979.82666205056,980.0111069102,0.003944239783409024,0.18444485964005253,0.062445327101228125,-0.0020015255374697992,-1.4471583362845162,0.44,0.56,-0.11197853245432303,Lift up
-0.81690521239825,-1.04064941406,-0.181640625,0.07016277056421343,0.26322183787095016,0.40419311522949997,0.22436523437,0.79089355468,0.02103118168402454,0.14411208107918724,0.10814056396587501,-0.21057128906,0.84985351562,0.09263109104129373,0.3024453709404023,1.004396769924,0.68952499533,1.17505613887,0.015306269199735904,0.1229428356381095,979.8661601593419,979.69846602324,980.02589729791,0.007358646587285169,0.3274312746699479,0.0852447271386571,-0.0026347459943027256,-0.45476208457399236,0.51,0.49,-0.0017337543555369377,Lift up
-0.9142779181945097,-0.98889160156,-0.86376953125,0.0008209740692024597,0.028511844973942355,0.33980066635676454,0.30224609375,0.40405273437,0.0008037711862762406,0.028211541549636482,-0.12798832911705882,-0.173828125,-0.06005859375,0.0006582045704013158,0.025529425853649534,0.9844817186777447,0.9432140499,1.05303473779,0.0008139100077182284,0.02838891505215791,979.6138920080082,979.51564176117,979.72722623857,0.0033444858189516733,0.21158447740003794,0.057547343485996674,-0.001062994408601001,-0.4840467398057533,0.48,0.52,0.24931323236002761,Lift up
-0.9454739478286022,-0.986328125,-0.90563964843,0.0004652502619136228,0.021453381340136204,0.3421972131170968,0.2626953125,0.48962402343,0.004644316941918187,0.0677818415954421,-0.11734238490838708,-0.18310546875,-0.00073242187,0.0025131106829024293,0.04986068578938069,1.0157667865364515,0.97912217184,1.06856205776,0.0005536562548671524,0.023403054540039527,979.5413157531472,979.39592874513,979.71452469574,0.007108626443022906,0.3185959506099607,0.08385815165831847,-0.001882785097866992,-0.5679473827656025,0.52,0.48,0.08790051720980718,Lift up
-0.9644437123449396,-0.97985839843,-0.94750976562,7.837949484576131e-05,0.008799725199263858,0.28043815888144574,0.25561523437,0.34753417968,0.0003247658776502535,0.017912371025379438,-0.1409338525938554,-0.16369628906,-0.125,0.00010848348364595434,0.010352606131912346,1.0144414875643373,1.00014450847,1.03421532674,7.44155818045205e-05,0.008574322628042827,979.5753814187644,979.54021473404,979.61437500586,0.0005743139784600094,0.07416027182000562,0.02382004477192255,-0.0008877924449531135,-1.57836151437699,0.52,0.48,0.13059599250513665,Lift up
-0.9685171854829896,-0.9921875,-0.94091796875,0.00020129857038695895,0.01411464938966884,0.2934759080976289,0.25012207031,0.33361816406,0.00039768167467131343,0.01983889774136224,-0.11848245207443299,-0.13720703125,-0.0927734375,0.00012909669324706304,0.011303353462678585,1.0192195814718559,0.99768771373,1.03799303846,0.00010483516833257167,0.010185990055036773,979.4973915479147,979.4085880348,979.54298607907,0.0015620273624555774,0.13439804427002855,0.03931823988411614,-0.0009832043598272569,0.08301306747943293,0.25,0.75,-1.1301149299297208,Lift down
-0.9427434110057472,-0.98974609375,-0.90795898437,0.0004510480678283035,0.021115482643751075,0.25863612382965523,0.15551757812,0.34643554687,0.0027022227361144916,0.051683292316423685,-0.13773459949275865,-0.17907714843,-0.09118652343,0.0007166264689011473,0.0266155853411438,0.9888274126628737,0.95509790817,1.04948970593,0.0006822085799515959,0.02596857912980835,979.4976318429407,979.37827728406,979.67115294715,0.005499659723749294,0.2928756630899443,0.07373225375753795,0.00026258700038307524,0.0018026356397107257,0.63,0.37,0.7595017775084478,Lift down
-0.960369291755,-0.99340820312,-0.91906738281,0.00035269306874669893,0.018668003153465815,0.24446614582916668,0.15844726562,0.37451171875,0.004645497444646732,0.06775096976161325,-0.11312866210511906,-0.17810058593,-0.04016113281,0.0018784435668186094,0.04308226019377468,1.0004833215892854,0.95736116444,1.04467192182,0.0007072798037286259,0.0264359566890474,979.6206565828245,979.51859085896,979.73761710401,0.005834976231344295,0.21902624505003132,0.07593097015441193,0.002059314583647226,-1.4268864617144235,0.63,0.37,0.2503149400814413,Lift down
-0.9654744466107843,-0.98278808593,-0.93347167968,0.0001793816784108394,0.013327529197298755,0.27252436618813725,0.21044921875,0.41687011718,0.0034622549215216187,0.0585517826015607,-0.16471354166264704,-0.18994140625,-0.12719726562,0.0002382383881652792,0.015359124899976255,1.0184752051659802,1.00346876326,1.04029814309,9.198328956853372e-05,0.00954366243179103,979.7662548796576,979.62405357948,979.97396090428,0.009813967710479633,0.3499073248000286,0.09857866067648235,0.003024332705124997,-1.0084408967132343,0.52,0.48,0.13048737936115304,Lift down
-0.9586262126513186,-0.98425292968,-0.93347167968,8.362293314999915e-05,0.009094173949220484,0.2655740255803297,0.17016601562,0.39562988281,0.003094083423725052,0.05531801250027717,-0.19949106069296701,-0.25793457031,-0.13354492187,0.0006252424839410838,0.02486708039586189,1.0163339610698898,0.9980926951,1.04056368208,0.00011819859669968675,0.010812016972871817,979.9923015327572,979.87005105118,980.10404913962,0.005705256982097737,0.23399808843998926,0.07511698776193261,0.0024725456853060593,-1.3730933228282478,0.48,0.52,-0.15909943162684195,Lift down
-0.9846638004913415,-1.02392578125,-0.95617675781,0.0005430816545625246,0.023161578261328922,0.28349490281560974,0.24072265625,0.32214355468,0.0004102833315176052,0.020131564178056192,-0.19395186261012196,-0.21130371093,-0.17907714843,9.26705502902952e-05,0.00956767587391099,1.0430622373090241,1.0059129571,1.08965899497,0.0006113889999870256,0.02457504906551663,980.2235492454546,980.10404913962,980.33596025183,0.004365247042646716,0.23191111221001393,0.06566591446568333,0.0026591203686003252,-1.1542701451220259,0.56,0.44,-0.10808836020173279,Lift down
-0.9820526867335364,-1.02294921875,-0.95617675781,0.00031123999300301043,0.017534092030448627,0.2380058474618293,0.20922851562,0.27172851562,0.00019560434604702355,0.013900321118333617,-0.20239406678304878,-0.22546386718,-0.17651367187,0.00011463573462200212,0.010641322185627083,1.0306796697071952,1.0045785471,1.07273193114,0.00035527331894871816,0.018733411795455842,980.3869203612595,980.32857421626,980.41259444683,0.0005192780547426556,0.08402023056999042,0.022648297850798343,0.0008560526969037366,0.5755206253708711,0.28,0.72,-1.1398203091558106,Lift down
-0.9698628545928153,-0.97778320312,-0.95202636718,2.4150487535538244e-05,0.004890400472636779,0.24671950849184465,0.23645019531,0.25646972656,2.6694314032112792e-05,0.005141512028062721,-0.1928817600838835,-0.20703125,-0.18115234375,3.42633521911854e-05,0.005825006290676141,1.0191959229056309,0.99974487447,1.02937161718,3.211030728597193e-05,0.005639020901698933,980.4184076494273,980.41259444683,980.42698986796,1.1117047423569846e-05,0.014395421129961505,0.003317998632355337,1.0230533273787163e-05,-0.08243185575612433,0.49,0.51,0.3152998900600933,Lift down
-1.0286489633376923,-1.49719238281,-0.7265625,0.03357176671156689,0.18221648168662727,0.20559860061472532,0.09936523437,0.43017578125,0.00854730037705669,0.09194223185939548,0.026969490470659337,-0.1337890625,0.19763183593,0.0052071411744746094,0.07176294198879375,1.0556807885151647,0.74700605328,1.50526127892,0.033832829907721185,0.18292359215824486,980.4307587417193,980.31038312617,980.66387598799,0.007367514400070692,0.35349286181997286,0.08536130682789843,-0.0004284026585441791,1.67201257043053,0.66,0.34,1.3468003042790506,Stairs up
-0.9882068168784145,-1.32580566406,-0.71203613281,0.017074683108432766,0.12987091770541626,0.17827327076634147,-0.00988769531,0.42590332031,0.0123827615457306,0.11059725249113354,0.08153999142268292,-0.03918457031,0.22155761718,0.006047286359815433,0.07728867294231113,1.016731060055,0.74418938344,1.34144624351,0.01651392959213652,0.12772055514625108,980.3560342272413,980.25804208413,980.45895572415,0.0035311049250365796,0.20091364001996226,0.05905965348571906,0.0007829285689231653,-1.0886735677033967,0.57,0.43,0.016273236453073513,Stairs up
-0.994376804513587,-1.18725585937,-0.84545898437,0.00671449198956364,0.08149545006306441,0.18424523394684786,-0.01391601562,0.3720703125,0.010918588191806196,0.10392260526648435,0.039776345958043476,-0.05212402343,0.16369628906,0.00394078628494085,0.06243357791612527,1.019473387407935,0.8769031077,1.19810507439,0.006396601849494208,0.07954290394825578,980.281273473021,980.21293496495,980.42225898452,0.0034033667993343007,0.20932401956997637,0.05802045916700618,-0.0009137013557281017,0.4062019724924326,0.74,0.26,1.1586270672416237,Stairs up
-0.9987696279362377,-1.18823242187,-0.80981445312,0.012049988413864116,0.10922765949101566,0.21990060333831682,0.04418945312,0.40771484375,0.00967787186694992,0.0978879530556021,0.018251324644356436,-0.06689453125,0.12756347656,0.0035798342861880065,0.05953478296226806,1.0290832667407919,0.84477812328,1.21985039185,0.012397658428612885,0.11079218986580364,980.2238404152337,980.13925212758,980.40403986656,0.003490675519083799,0.264787738979976,0.05878872660068846,-0.00022411045807938518,1.4019898627573548,0.5,0.5,1.129094543168766,Stairs up
-0.9778795030341109,-1.24633789062,-0.80688476562,0.014319113966641213,0.11899585160981538,0.21422254773888888,0.07202148437,0.34838867187,0.005996211072232404,0.07700380837830785,0.024427625868555555,-0.07995605468,0.22009277343,0.00583695844418101,0.07597435982196084,1.007182734629778,0.83547024725,1.27351873524,0.014340309712807243,0.11908389033878804,980.1300712792447,980.01276503322,980.29087244105,0.005104523832770737,0.27810740783002075,0.07104791975346995,-0.0009723467096592433,0.1257043663371018,0.56,0.44,0.8892899429792287,Stairs up
-1.0026027134441666,-1.51770019531,-0.73962402343,0.033991310309687946,0.18326661412712417,0.22316196986250003,0.07678222656,0.39733886718,0.00893812910005439,0.09397724618887393,0.07007271902666666,-0.08825683593,0.22009277343,0.007505507155065236,0.08611710561444628,1.035726706319881,0.7698352523,1.55755788277,0.035718346745637994,0.18786465429132604,980.0320152455822,979.95662385677,980.19017896633,0.003902666007012987,0.23355510956002945,0.06209835502978875,-0.0008147881025366611,-0.4921120822224121,0.68,0.32,0.8522014852782663,Stairs up
-0.9513388579699057,-1.21350097656,-0.73254394531,0.016803280320941624,0.12901456820250926,0.24551794663537735,0.0244140625,0.42553710937,0.015077164841428445,0.12220854077053708,0.057667858194339616,-0.05310058593,0.16027832031,0.003831813411142329,0.06160896223779739,0.9915618179673586,0.74121514923,1.28722715056,0.021029166661317537,0.14432871611910128,980.0102794903955,979.9522106818,980.16422623721,0.0034550913161330073,0.21201555540994832,0.05850210350950992,0.0008526324242857141,1.4739310249456095,0.62,0.38,1.530016206044561,Stairs up
-0.9764588058598925,-1.19970703125,-0.77514648437,0.01654923673107177,0.12795033391522367,0.23072207870967737,0.056640625,0.42590332031,0.012629281644326277,0.11177424979380506,-0.049460790488172035,-0.15466308593,0.08227539062,0.0024466141881696844,0.04919661074430839,1.0128904359056987,0.82073510501,1.23112364401,0.014646377092945912,0.12036980172458253,979.9717027837952,979.86778008656,980.13927473855,0.0077489564971750455,0.2714946519899968,0.08755360863095361,-0.0014048625128305204,-0.8373842698864484,0.54,0.46,0.6768573690153721,Stairs up
-0.9809570312461903,-1.21655273437,-0.7822265625,0.016903411192973117,0.1292369146464836,0.2505420503134524,0.09509277343,0.36804199218,0.008338123685997192,0.09076816792677343,-0.051997593469761905,-0.16796875,0.06604003906,0.005614785345643477,0.07448451290675966,1.0203694113320239,0.81858995416,1.22265033293,0.017292880978799177,0.13071730317023522,979.9798972578379,979.85598636356,980.14909596426,0.005337492856761313,0.2931096007000633,0.07262197515307059,7.282100501633801e-05,-0.3464312728667438,0.6,0.4,0.7243959668712445,Stairs up
-1.0259712414825641,-1.24670410156,-0.73779296875,0.02317535303862396,0.15125552263594336,0.2229927258576923,0.01513671875,0.46252441406,0.010280988505055735,0.10074314348936667,-0.01676119290974359,-0.15393066406,0.10046386718,0.004855074784388142,0.06923026965042348,1.0563648931343592,0.76764824233,1.33026821889,0.02485580273536723,0.15664334839926755,979.9135233541286,979.78065303304,980.14909596426,0.0073368503330717575,0.36844293121998817,0.08510457184731281,-0.0008342661156976968,1.4767672960204479,0.55,0.45,1.0542156199675106,Stairs up
-1.0061935869200969,-1.45556640625,-0.76818847656,0.03685569090050682,0.19104415368902114,0.16692344887485433,0.02880859375,0.37182617187,0.008032057118684351,0.08918562654155515,0.032060641686019416,-0.06323242187,0.16455078125,0.004712885166248935,0.068316388953064,1.0267362585659228,0.78994121346,1.47561067854,0.03660396416689272,0.1903906139335925,979.9475807737383,979.82044403231,980.17310412947,0.008770773335297091,0.35266009715996915,0.09319667481256748,0.000310155500987927,0.5567777205825695,0.49,0.51,0.9603761725804063,Stairs up
-0.9803806580190723,-1.33129882812,-0.73645019531,0.03231917375760684,0.1788462647059787,0.2174751832280412,-0.10205078125,0.45227050781,0.020680237551392915,0.14306306031299912,0.018902021584123713,-0.06604003906,0.11462402343,0.003999596877334465,0.0629155300369962,1.0151670655707217,0.78322689752,1.40636759902,0.03500709274561155,0.18613488357171185,979.8513783126743,979.71990634767,980.08620606875,0.008894025487050287,0.36629972108005404,0.09382075731226916,-0.0005818134850507366,0.0699746860564332,0.64,0.36,0.8935955441297897,Stairs up
-0.9829115756699996,-1.30053710937,-0.75451660156,0.03155385097827571,0.17659826084744515,0.1842736532494186,-0.04174804687,0.33703613281,0.009539487270651018,0.09710078784470316,0.023867584937325582,-0.07312011718,0.15222167968,0.004225063928832658,0.06462147691361901,1.0063426561020927,0.7572117912,1.33340163229,0.033092303221266946,0.18085217443471294,979.7389112237641,979.61539811768,979.93973208274,0.009211259638918563,0.3243339650599637,0.09541567988909673,-0.0022978591746582767,-0.6622413382876089,0.53,0.47,0.5640287360095882,Stairs up
-0.9725249915953763,-1.31066894531,-0.73193359375,0.020771309809696874,0.1433456047194622,0.2209170761873118,0.04138183593,0.43542480468,0.009771032066267,0.09831565086668244,0.007283528644838709,-0.1015625,0.10729980468,0.004477939959493643,0.06655666809160504,1.003913727974839,0.75174221697,1.3492800729,0.021696505830466842,0.1465032766488481,979.6192246641996,979.54345329048,979.78849384539,0.004714894898613492,0.24504055491001964,0.0682949273665676,-0.0012539479918486885,-0.32583853740781965,0.6,0.4,0.8308888490030513,Stairs up
-0.99039459228125,-1.00085449218,-0.97338867187,6.525369458249985e-05,0.0080357929663018,0.2065455118775,0.18908691406,0.22448730468,9.180087138645921e-05,0.009531244006399004,-0.03562037149677083,-0.04479980468,-0.0205078125,4.097430948719215e-05,0.006367691399822013,1.0124035545139585,0.9985920188,1.02421402773,4.6804185970438445e-05,0.00680563313488023,979.4774960974664,979.46708554727,979.50112664313,0.00011344784123426069,0.034041095859947745,0.010595569493334017,-0.00029535594312069576,-0.2661841178129807,0.68,0.32,1.1195860387274177,Lift down
-0.9592980673115116,-0.97607421875,-0.9482421875,5.6765900186018916e-05,0.007490382605662059,0.21175508720639538,0.19677734375,0.2255859375,5.885224825935732e-05,0.0076267896123614985,-0.03908237190697676,-0.05688476562,-0.01794433593,7.638996505337829e-05,0.008689171976994176,0.9833198115784885,0.97171070298,1.00154805314,6.764439051213464e-05,0.008176663612486512,979.4952770326854,979.47624098672,979.51557605888,0.00010197676650051184,0.03933507216004273,0.010039471606905152,0.00033239834064421056,-0.37467326935487844,0.52,0.48,0.046456388383714894,Lift down
-0.9674336996383132,-0.99279785156,-0.95129394531,0.00016033760229377928,0.012585937547631895,0.21098897542879524,0.1943359375,0.23010253906,7.860294220314019e-05,0.008812259574201294,-0.0450439453086747,-0.0673828125,-0.03015136718,9.036027804551288e-05,0.009448364937743025,0.9912747349850605,0.97258762132,1.01584702779,0.00017511084972114305,0.013152987510348907,979.5984150734723,979.51557605888,979.69329842457,0.0027652377053728606,0.17772236568998778,0.05226778729237213,0.002161869662692589,-1.2625561332096997,0.53,0.47,0.027180564896927578,Lift down
-0.9947154220987376,-1.00500488281,-0.98315429687,2.7483477048582563e-05,0.005216957655025051,0.1914643222816505,0.18530273437,0.20434570312,1.6763176598654993e-05,0.004074362196870746,-0.056131011070679616,-0.0673828125,-0.04150390625,4.339347492068057e-05,0.006555316853338536,1.0145579910333984,1.0037870893,1.02528175865,2.71840763956018e-05,0.005188463483903481,979.7949959264793,979.69329842457,979.90763953816,0.0042204693757749425,0.21434111358996688,0.06464900575370186,0.002165238074970424,-1.244145267070998,0.48,0.52,-0.02887059971971851,Lift down
-0.9900008491804347,-0.99841308593,-0.98205566406,2.2582841500111748e-05,0.004726243310667815,0.18639871348108697,0.17346191406,0.20593261718,7.268032472615904e-05,0.008478816025632758,-0.06458713696891305,-0.07409667968,-0.05163574218,3.6778705390579544e-05,0.006031495407751333,1.0095136304580437,0.99993749512,1.02170819953,3.083170870418965e-05,0.005522370997648188,980.0443671397588,979.90763953816,980.15333158652,0.006055984227963412,0.24569204836006975,0.07739611303187048,0.002877332023118745,-1.199111150641326,0.47,0.53,-0.31039969486417207,Lift down
-0.982121165202439,-1.00317382812,-0.96337890625,0.00013923836163785998,0.011727759071425294,0.2383914110092683,0.16845703125,0.37219238281,0.0025590207876614772,0.05027736286919034,-0.05552115091085367,-0.09558105468,-0.00048828125,0.0007537970589785564,0.02728744055271293,1.0137484951469513,0.9920647763,1.03889873476,0.00020144942930179488,0.01410647826158095,980.27479650701,980.15333158652,980.46801422653,0.004648528623251826,0.31468264001000534,0.06776311127595556,0.0024214329793269536,1.7021491813222909,0.57,0.43,1.2118344783546995,Lift down
-0.9909250359740788,-1.00549316406,-0.97937011718,4.6962719219739634e-05,0.006807700691400176,0.19826949269736843,0.18151855468,0.21813964843,0.00012919727908775578,0.011291470891306972,-0.040909616568026316,-0.05725097656,-0.01513671875,0.00013048225327331006,0.011347483488408956,1.0115095465652633,0.99709079433,1.02945459015,6.876487543554359e-05,0.008237722649068167,980.5476958522869,980.46801422653,980.64294834035,0.001914524644361963,0.17493411381997248,0.043466464436624684,0.0018903038202257444,-0.7103204435751982,0.58,0.42,0.4946453788088893,Lift down
-0.9903162023476921,-1.00903320312,-0.97814941406,4.431838954480859e-05,0.006620526736981387,0.20064737508219782,0.16674804687,0.22705078125,0.0002448421367543242,0.015561219869372644,-0.06704208876725275,-0.08947753906,-0.015625,0.0004640948496121973,0.021424166406417436,1.013003751505934,0.99436987761,1.03002770553,4.9108359060942726e-05,0.006969125250960104,980.7761040061933,980.64294834035,980.90881424204,0.005184850594447895,0.26586590168994917,0.07160917688599085,0.0026810184568802783,-0.9725563942106548,0.55,0.45,0.09746985065462854,Lift down
-0.9851715396109091,-0.99853515625,-0.97106933593,5.950074519752994e-05,0.007674615792941824,0.22032828282515157,0.1943359375,0.2587890625,0.0003158307965103014,0.017681645467674686,-0.07851710463626262,-0.10803222656,-0.03820800781,0.0004554686719064955,0.021233652023400836,1.012951759200505,1.00051375692,1.02612452809,5.343578319941632e-05,0.007272965544642958,981.0116753372954,980.90881424204,981.16421897249,0.004648757110596823,0.2554047304499818,0.06783656807405238,0.0022802416143910768,-0.3696319312149545,0.55,0.45,0.5936839584385105,Lift down
-0.980832186608409,-1.00390625,-0.9619140625,0.00013778537760397613,0.011671316749906936,0.24112493341238636,0.11022949218,0.34814453125,0.003213114834149474,0.05636135347540541,-0.040813099251590906,-0.1455078125,0.06115722656,0.00394930643789354,0.0624854219450005,1.01433019286875,0.98493863424,1.03932594602,0.00019241701936140268,0.01379240596571914,981.244817211148,981.16066042375,981.30251880171,0.0019544577664470297,0.14185837796003398,0.04395734317609563,0.0014998027604971487,-0.5787624964477369,0.3,0.7,-0.8636133952256889,Lift down
-0.9875640869097498,-1.02697753906,-0.95056152343,0.00037759217096424054,0.019309900797963398,0.23761901855162498,0.15124511718,0.37841796875,0.005791590476035505,0.07562536343770562,-0.014480590818625,-0.09362792968,0.0888671875,0.0030904673980758136,0.05524342997678426,1.020214379006875,0.97919843077,1.04819752296,0.0002651509157896493,0.016181363642854045,981.5342713351117,981.25505447285,981.68939213112,0.018109809657359865,0.43433765827001025,0.13372896857690508,0.0026214074317739713,-0.7283350377775051,0.47,0.53,-0.6669604467111954,Lift down
-0.982997857247767,-0.99389648437,-0.96545410156,4.89898807479742e-05,0.006965217213971126,0.23360939395825242,0.20678710937,0.34716796875,0.0005412125687718956,0.023150768406533403,-0.055816946673592216,-0.08239746093,-0.00854492187,0.0003264796846202485,0.01798082253247397,1.012332180218252,0.98742373962,1.04648369977,6.564435874973528e-05,0.008062694021130816,981.7581862588946,981.45298768619,981.91175183846,0.01242551575243933,0.45876415226996414,0.11092736216629749,0.00350011986482929,0.1879353871119327,0.46,0.54,-0.800459208427212,Lift down
-0.9821081674182794,-0.99877929687,-0.97338867187,5.6299631318619754e-05,0.007462858630501427,0.23127861432806457,0.20776367187,0.24609375,7.692361167670024e-05,0.00872332941412127,-0.07362677460956989,-0.08728027343,-0.05847167968,6.263021094940465e-05,0.007871262149167465,1.0118297583258065,1.00254496445,1.02828504858,4.644718059826932e-05,0.006778476860536264,982.0298002821921,981.91175183846,982.12648348448,0.0034193851947431227,0.21473164602002726,0.0581602752057102,0.002098321868997397,-1.1890251542292691,0.39,0.61,-0.2755575744309854,Lift down
-1.012317475815119,-1.04797363281,-0.98059082031,0.0005630023576393576,0.023586011714994155,0.23485456193809529,0.21362304687,0.24633789062,3.279899463542944e-05,0.005692849059441071,-0.07541184197904763,-0.0849609375,-0.06384277343,4.096359775096694e-05,0.006362070093372065,1.0419738726169048,1.01046865696,1.07670074178,0.0005565417084714137,0.023450292363678373,982.263884667614,982.12648348448,982.41143615458,0.0073161808761061185,0.28495267009998315,0.08502401710530914,0.0034478951339745635,-1.1352610532416194,0.58,0.42,0.34246902264375645,Lift down
-1.0108309659051946,-1.04333496093,-0.9833984375,0.00046051396998900916,0.021319785859151143,0.21735966669688309,0.20776367187,0.23071289062,4.531213947921492e-05,0.006687575804080953,-0.0831615893825974,-0.09826660156,-0.072265625,6.102590285222844e-05,0.007761015311113769,1.037319499114675,1.00937704139,1.07005675942,0.00047422206879689684,0.021634771564097998,982.4556793095259,982.41143615458,982.46945975034,0.00025109755201541297,0.058023595760005264,0.015742825186299367,0.0005029424330044351,0.9418764923614389,0.3,0.7,-1.3940403332353501,Lift down
-0.9888430508654544,-1.00573730468,-0.97937011718,4.4440585899519034e-05,0.0066283919046454965,0.22214716130625003,0.20190429687,0.23767089843,9.331183240948481e-05,0.009604762916259767,-0.08726501464477272,-0.10595703125,-0.07263183593,8.31069660453529e-05,0.009064357048568223,1.0173238494370453,1.00664338602,1.03443285299,4.6183099874758035e-05,0.0067570919722640885,982.4883783007886,982.45773314912,982.50638224934,0.00020830510418481542,0.04864910022001823,0.014350540084894708,0.0004086159026374238,-0.5782893279518455,0.45,0.55,-0.6542346611662551,Lift down
-0.9834505406781707,-0.99304199218,-0.96960449218,3.526940409041238e-05,0.00590248163117709,0.20385593320951217,0.1796875,0.2216796875,0.00011397603629995669,0.010610659010530972,-0.09540985851329269,-0.11291503906,-0.07702636718,0.00010456893906537289,0.010163351223939918,1.0089899858091462,1.00026039369,1.01962657643,2.5487001985395743e-05,0.0050175875565866175,982.4979468781539,982.45355087978,982.56119079699,0.0010237543859102154,0.1076399172100082,0.03180046503317121,-0.0008286409709947624,-0.924177557952023,0.56,0.44,0.4371541078649576,Lift up
-0.9970671824887176,-1.02270507812,-0.97290039062,0.0002054413318372151,0.014241048718705124,0.21908491085410256,0.20935058593,0.23059082031,3.50724706023483e-05,0.00588411620749827,-0.10035118689423075,-0.11938476562,-0.08447265625,9.492340382401656e-05,0.009680208526076494,1.0258326591425644,1.00213324729,1.05093808049,0.0002127449348981472,0.014491978323637746,982.4744527080766,982.44861643908,982.50471508184,0.00044119239634639253,0.05609864276004828,0.020869501277527472,0.000837695224716288,-1.655520390779218,0.51,0.49,0.20522727648395922,Lift up
-1.020793433324757,-1.0322265625,-1.01513671875,1.2912456137712275e-05,0.0035759044290766253,0.20242931772990289,0.18994140625,0.21435546875,4.840798089447097e-05,0.006923727355798845,-0.10867813258135924,-0.11511230468,-0.10131835937,1.2612994707811528e-05,0.0035341955871898752,1.0463607198608738,1.04081404203,1.05631887927,1.0358832003377933e-05,0.003202851982043366,982.4741393717961,982.41631611202,982.51479029837,0.0007721927599517422,0.09847418635001759,0.02765313260491173,-0.0009096356235136137,-0.9615084105977774,0.38,0.62,-0.31310286384014274,Lift up
-0.9946342136513041,-1.025390625,-0.97241210937,0.00029374541591190435,0.017045601513479662,0.19774727199010872,0.17578125,0.21472167968,0.00011162258900132959,0.010507582975663126,-0.10388979704054348,-0.12097167968,-0.08361816406,0.00011599908959554147,0.01071159324872004,1.0195128204920654,0.99660356975,1.04972233648,0.0003069376642670767,0.01742416096423733,982.3413608076424,982.23706605857,982.41631611202,0.0025552320250207842,0.179250053450005,0.05027382782203135,-0.001662717041948957,-0.5173505355700221,0.34,0.66,-0.8309656220380792,Lift up
-0.9836818150084522,-0.99853515625,-0.96044921875,9.034992726757724e-05,0.00944850955946726,0.2157621837760714,0.16638183593,0.28186035156,0.001576839253237187,0.03947236194307754,-0.09286353701238095,-0.14343261718,-0.03759765625,0.001108045721314138,0.033088588679819855,1.012600611130119,0.98033955851,1.03825651186,0.00019134629180433927,0.013750213080496227,982.0474536843107,981.88829776621,982.23706605857,0.016352062556142046,0.34876829235997775,0.12711174274928105,-0.004855591018267999,-1.7167521492042708,0.5,0.5,0.10369396886898453,Lift up
-0.9824336882509678,-0.99340820312,-0.96997070312,4.148161427995037e-05,0.006405901608417436,0.23220529863505376,0.20373535156,0.28466796875,0.0006148896557740937,0.02466329132628774,-0.08946835097043013,-0.11157226562,-0.04577636718,0.00042507060088664155,0.020506095417319323,1.013967629915484,1.0002010486,1.02378021209,3.972444331879913e-05,0.006268755759078837,981.8676677440646,981.75425388172,981.9946519575,0.00505929117647589,0.24039807577992178,0.07074524857602577,-0.0021104018240629386,-0.8370019327699731,0.45,0.55,0.0538561960174241,Lift up
-0.9869586118676288,-1.0009765625,-0.97399902343,5.666187666302277e-05,0.007488506767349622,0.21219847373969072,0.18591308593,0.23364257812,0.00017952537838346943,0.01332946365337828,-0.10585761315690723,-0.11547851562,-0.08752441406,5.360547758588057e-05,0.007283738311906559,1.0151630538685568,1.00243804678,1.02858043977,5.2650084773075365e-05,0.00721853866055807,981.606842413967,981.46305900291,981.75425388172,0.007616267474816799,0.29119487881007444,0.08682021224016291,-0.003088549797277639,-1.2252317565977708,0.49,0.51,-0.016070415402752877,Lift up
-0.9863683527127273,-0.99841308593,-0.97192382812,3.2255266448267836e-05,0.005647010654278732,0.20564686167840904,0.16735839843,0.24194335937,0.00040303697753162233,0.019961388024830686,-0.1041870117143182,-0.13708496093,-0.08154296875,0.0002613444437768695,0.016074035602552716,1.013264983711477,0.99337301991,1.02746698053,5.1470399908947036e-05,0.007133407951385566,981.3651057070218,981.20895544498,981.46305900291,0.005189670292132343,0.254103557929966,0.07162888220603045,-0.002680552011427595,-0.7173441498803772,0.38,0.62,-0.713203570441048,Lift up
-0.9617858114088603,-0.99792480468,-0.92407226562,0.0005299482967724722,0.022874441861698243,0.19754685027316454,0.16821289062,0.22790527343,0.0002959219134524515,0.017093158469011053,-0.12324929538860759,-0.14294433593,-0.07629394531,0.00024915883404513426,0.01568454413597742,0.9898507870768356,0.94763588502,1.02249482106,0.000510394994978348,0.022448480991803913,981.0863835198445,981.0026907775,981.18543210165,0.0034612846664489726,0.18274132415001532,0.05845913903312229,-0.0023938244749238708,-1.1986524699261283,0.54,0.46,0.2661462169799647,Lift up
-0.954944145385244,-0.98132324218,-0.91979980468,0.00034718403468514777,0.01851891149724103,0.20341082316658535,0.17590332031,0.22412109375,0.0002487070838373958,0.015673993448380236,-0.13521222370085365,-0.18408203125,-0.10375976562,0.0004027475617236754,0.019945826783888877,0.9859956678267071,0.94699065159,1.01348012973,0.0003802698482601715,0.019381238636533706,980.9040646883833,980.83393361326,981.06000008787,0.002300171971192171,0.2260664746099792,0.04766677137686908,-0.0018440599609225183,1.0681835150846064,0.59,0.41,0.9770454171740434,Lift up
-0.9801859336279207,-0.98937988281,-0.97021484375,2.142606099428016e-05,0.00460585733349558,0.21249903310287124,0.18286132812,0.22839355468,0.0001503003587789251,0.012198862095079907,-0.12324025370871287,-0.14147949218,-0.09912109375,8.679278709562534e-05,0.00927002980415522,1.0106122053161386,0.99988726636,1.02089143688,2.7667703917010653e-05,0.005233905449515304,980.8519698235172,980.83269036141,980.86921484641,0.0001381042786726806,0.036524485000086315,0.01169345584405703,0.0002661494830287618,-1.1847489139683465,0.34,0.66,-0.3398631638878079,Lift up
-0.5845540364563094,-0.97570800781,-0.2939453125,0.03546521259084281,0.18719777690733153,0.6032831101147618,0.08178710937,0.94262695312,0.05322655016346343,0.2293314212155751,0.39294869558726186,0.00903320312,0.86999511718,0.06296082593065659,0.24942191621552617,0.9930762492236903,0.71841407264,1.3184872544,0.02399502891355499,0.1539784848848736,980.7661688900823,980.68364907986,980.85493482605,0.0031986801090437065,0.1712857461900512,0.056219218990804586,0.0007088026752072367,-1.4231921574853061,0.49,0.51,-0.11430812016062677,Stairs down
-0.9545670394018679,-1.27099609375,-0.63171386718,0.01798013247150774,0.13335122270978422,0.3444032773830769,0.11840820312,0.5400390625,0.010089477027095414,0.09989296097909646,-0.007792378517912087,-0.16772460937,0.30615234375,0.015111559384919943,0.12225178237055674,1.0275740340926374,0.83732497856,1.35086249818,0.016856057753961744,0.12911555425304905,980.9301270952017,980.85493482605,981.02153300703,0.0022540043449259715,0.16659818098003143,0.047214775933073126,0.0003155386165753393,-0.5569868673448006,0.65,0.35,0.7281789059626902,Stairs down
-0.9925907019370707,-1.17517089843,-0.80444335937,0.01155537867264642,0.10695166046374886,0.3019600299828283,0.24108886718,0.39733886718,0.0018456244229491834,0.04274320708615935,-0.06396854284878788,-0.19641113281,0.12866210937,0.008078281202328641,0.08942417124192496,1.0444007013933334,0.84688726606,1.21358053884,0.011109853253537305,0.1048695976611076,980.9990175122355,980.91533508574,981.16184264553,0.005551076687454859,0.2465075597899613,0.0741283023261925,0.0007822130230699151,-0.34121824135872947,0.59,0.41,0.9226902762114807,Stairs down
-0.9923769194468963,-1.35217285156,-0.75854492187,0.0223794349956241,0.14873533578345438,0.2765762504458621,0.16821289062,0.39050292968,0.0029525836220732796,0.054024493327479044,-0.04462862562781608,-0.22448730468,0.11108398437,0.009663495718745498,0.0977364878400674,1.0373330661060916,0.78756897336,1.38487125956,0.022085318023693293,0.14775474203400682,981.0948577097492,980.97090007331,981.27515528803,0.009924449529184908,0.3042552147200013,0.09904733917004303,0.0010342806529812316,-1.1081623863387735,0.53,0.47,0.5009628726756357,Stairs down
-1.048677062984875,-1.50756835937,-0.77807617187,0.03394411419158527,0.1830841685241803,0.27117919921425,0.06689453125,0.447265625,0.009696751832826074,0.09785470062759248,-0.06751861571987501,-0.16772460937,0.05053710937,0.0027085482293229286,0.05171741850147194,1.0906334096006252,0.81528655297,1.54000071185,0.0345410799220712,0.18468707703314086,981.1765846605438,981.06297787497,981.36771940529,0.007937832006997778,0.3047415303200296,0.08853591986821116,0.00041446549143292466,-0.48526440378430236,0.57,0.42,0.7852717302353344,Stairs down
-1.0222489206365786,-1.33862304687,-0.75817871093,0.032325552848423283,0.17860631743231678,0.2504834626813157,0.01611328125,0.37817382812,0.009658644771663859,0.09762969497267598,-0.1280292711719737,-0.24487304687,0.01245117187,0.004913028760823326,0.06963033567023309,1.0663025932956576,0.80307182588,1.39175723091,0.033850655607592026,0.18277103776127726,981.2281374809521,981.14223881913,981.38945251586,0.0043005684860322885,0.24721369673000027,0.06514585219785289,0.0005904265359671073,-0.0591826916959346,0.61,0.39,0.9597022226546654,Stairs down
-1.0269575852575001,-1.2158203125,-0.82836914062,0.014225157172579033,0.11869446834267547,0.3325101412221155,0.14099121093,0.51879882812,0.014781707899144942,0.12099411594132334,-0.09226520244682693,-0.23999023437,0.0546875,0.007716101960280386,0.0874180111430177,1.0908602791722115,0.88466669839,1.3269436575,0.020306713279394605,0.14181486671339816,981.2719543101958,981.16663198385,981.40406946181,0.0067784180581716355,0.2374374779599293,0.08193436984232225,-0.0005065118363912057,-1.368467134512896,0.61,0.39,0.42759352349831936,Stairs down
-1.0131520917291397,-1.19079589843,-0.79870605468,0.0135443168178057,0.11575266304738081,0.30308614750935486,0.15148925781,0.45434570312,0.0101475501350706,0.10019199914543084,-0.09961462533139785,-0.20080566406,-0.02282714843,0.002400048049227823,0.048726184756828196,1.0666014346868817,0.85012704271,1.24475619,0.01651272273363923,0.12780910208280552,981.2741977830493,981.20493123032,981.38411909324,0.003315044207750138,0.17918786292000277,0.05726603331039844,0.0005035574592081948,-1.4885309903077588,0.53,0.47,0.27077957213414766,Stairs down
-0.9819909520868673,-1.25036621093,-0.78833007812,0.014415429981947336,0.119338803842869,0.26860028002325304,0.14526367187,0.41943359375,0.00666618554726808,0.08115337367446147,-0.08940694418036145,-0.17456054687,0.01000976562,0.00231670756170336,0.047841356820283946,1.0253735299643374,0.85206008512,1.31216987931,0.016368694901452627,0.12716714084176328,981.2609362877191,981.18020716048,981.35356480888,0.002202013260821173,0.1733576484000423,0.04664207307324917,0.0004554134895086891,-0.712376950873645,0.48,0.52,0.1795615726980822,Stairs down
-0.9617179708241488,-1.189453125,-0.77954101562,0.01360500218364623,0.1160183956011406,0.2721739423988298,0.13647460937,0.44995117187,0.004712856491212107,0.06828411030414763,-0.029676072140212763,-0.17260742187,0.08764648437,0.005401071831415025,0.07310002476362457,1.004815863233724,0.81120946987,1.21562166238,0.013819477758817384,0.11692930358972853,981.3079615583264,981.21377043512,981.4706643217,0.004802789956574226,0.2568938865800874,0.06893254997748091,0.001124263976052405,-0.4160795247413702,0.54,0.46,0.64209308041622,Stairs down
-0.9680767255921652,-1.22521972656,-0.744140625,0.02217408086890388,0.14814007593173265,0.20811226441371133,0.05712890625,0.41027832031,0.008440745991180302,0.09139873079682904,-0.03479129751927835,-0.19921875,0.11926269531,0.007409795651076069,0.08563530816893629,0.9968669347970103,0.74929773711,1.289240426,0.02474489405894793,0.1564921469542169,981.3971219138439,981.31427428167,981.6677380448,0.009270600657924127,0.3534637631299802,0.09578636361855018,0.0009187941502394978,2.6382109117899315,0.76,0.24,1.8883352161198743,Stairs down
-0.9765218098927586,-1.15405273437,-0.7783203125,0.008216842200278223,0.09012433488357104,0.26689200565367815,0.20788574218,0.41882324218,0.002757520953334524,0.052209436984062066,-0.028257172683218392,-0.14953613281,0.14929199218,0.006370853151083876,0.07935757653775083,1.0168705258494253,0.8228461692,1.20302713293,0.008846519478573442,0.09351382436108478,981.4819154745999,981.38772842995,981.58000457074,0.0024938341829852935,0.19227614078999977,0.04965047252807696,0.0007817904446323315,-0.22167381841248934,0.54,0.46,0.07679621166980154,Stairs down
-0.9694592439640504,-1.21203613281,-0.78466796875,0.013401250073447727,0.11502875291234206,0.2799242236900001,0.21875,0.38659667968,0.002080221487154894,0.04531985844633643,-0.03532776651354431,-0.17761230468,0.1162109375,0.007904519453133224,0.0883428675381647,1.0145815632530384,0.84035439159,1.23763599491,0.013339924929174662,0.11476526094574352,981.5987666197648,981.46113596917,981.70901771931,0.004118332939138891,0.2478817501400954,0.06376677930114498,0.0017379339711647757,-0.7099315328575697,0.63,0.37,0.19234299141299502,Stairs down
-0.9775772865334342,-1.2734375,-0.73071289062,0.02029916937478888,0.14175375571706036,0.2570788450873737,0.09558105468,0.44714355468,0.007280481255391941,0.0848937043642873,-0.06730143228929293,-0.16442871093,0.10949707031,0.005498477390493049,0.07377626457629514,1.0169314373296967,0.76277388828,1.31463990152,0.021954819795874624,0.14742134831614667,981.6968882944407,981.58554483434,981.81134509243,0.004003596054239703,0.22580025808997561,0.06295359950038967,0.0007070728235881136,-0.6567839676648468,0.43,0.57,0.041591652145902235,Stairs down
-0.9878436149394679,-1.3564453125,-0.77294921875,0.019702898049227,0.139618382567737,0.25907346035223405,0.0986328125,0.4052734375,0.008263900199405962,0.09042116106032586,-0.0706215716394681,-0.18823242187,0.07385253906,0.006600547445977952,0.0808104501665912,1.0301894839062768,0.78200129624,1.38587070914,0.021074908189285372,0.14439773903470762,981.7731389544797,981.65728062297,981.95762284663,0.008424612942526555,0.30034222365998176,0.09129616312082772,0.0013448372043968384,-0.8163455418002714,0.45,0.55,0.4162965118380289,Stairs down
-1.0117575252716469,-1.3076171875,-0.70263671875,0.029848057674110463,0.17174662749065858,0.2941779641501176,0.14147949218,0.48229980468,0.008549642571310885,0.09191876055006491,-0.11933162913282352,-0.22497558593,0.0,0.004639386934372811,0.06771119487658953,1.0668605486161173,0.75996364964,1.37518122952,0.0315866461266749,0.17667778163986725,981.8556252275841,981.76134692117,981.99432579563,0.005359558175645107,0.23297887445994547,0.07277708808443274,0.000865903680188206,-0.8436426769708696,0.61,0.39,0.7063970087467807,Stairs down
-0.9995415581550001,-1.28735351562,-0.755859375,0.017539889394240452,0.13170042419940967,0.27537841796422224,0.09704589843,0.48193359375,0.00854364742408998,0.0919169081739957,-0.08241373697599999,-0.19055175781,0.01538085937,0.003325635529542615,0.05734704895335773,1.044934794380222,0.81406612029,1.35439443751,0.01911468828833177,0.13748564602497915,981.8442849481158,981.77496312635,981.95566843725,0.0030270296627325495,0.18070531089995256,0.05471193653868686,0.00018333985745228423,-0.6621119892002225,0.59,0.41,0.7505204386916957,Stairs down
-1.011470910270909,-1.24426269531,-0.78625488281,0.020735660820064956,0.14326970964118815,0.28219820272636364,0.17651367187,0.42700195312,0.007056501090716226,0.08357764833926061,-0.1193157157480808,-0.20300292968,-0.04040527343,0.0023447452034306543,0.04817739001281105,1.0601952300433333,0.83963615158,1.31743588916,0.02299632215683126,0.1508775532491133,981.8640338395631,981.80548314172,981.94464597076,0.0023109980992198275,0.1391628290400604,0.04782943324017328,-0.0005632480955131504,-1.4573010635850738,0.52,0.48,0.22083185524921872,Stairs down
-0.9530695134904548,-1.19958496093,-0.64477539062,0.02418064177342752,0.15461520544006963,0.25913446599420453,0.09301757812,0.34582519531,0.004739983746895173,0.06845524300757327,-0.05915555086863637,-0.19714355468,0.07666015625,0.007083459673994307,0.08368372490551884,0.994307955643182,0.6559453893,1.24589229617,0.026236325480552658,0.16105336202101977,981.8643800033642,981.75544116155,981.9867553571,0.005242755844886559,0.23131419554999866,0.07199429889874571,-0.00023232192983689413,-1.2732664835103888,0.55,0.45,0.19889223743413242,Stairs down
-1.0434193552234567,-1.39331054687,-0.77355957031,0.024341330916441084,0.15505102598245976,0.2663453655441975,0.12951660156,0.49633789062,0.007072118895050887,0.08357516847267162,-0.022872359663209878,-0.14233398437,0.11889648437,0.006560911030746015,0.0804979013958244,1.0818481881169135,0.79598637194,1.44171341928,0.027638201240002998,0.16521800410068907,981.9396619130473,981.81834692086,982.12336417246,0.0062018644045587195,0.30501725160002024,0.0782642841744684,0.0003614120489258841,-0.6320262754439749,0.57,0.43,0.4851935473388027,Stairs down
-0.9621624124424136,-1.19653320312,-0.73461914062,0.021124048790181815,0.14450343813098004,0.2760542946263219,0.17980957031,0.49914550781,0.005329902678401598,0.07258539404883442,-0.0846157731651724,-0.24291992187,0.06408691406,0.009116638956135317,0.09493076425804503,1.010544250856207,0.78659121967,1.29941038689,0.023352783489136456,0.15193538327332035,982.0032337042834,981.92916111178,982.1536646857,0.004236072626353047,0.22450357392006026,0.06470998482765211,0.0007455031386455096,-0.17675393013844687,0.61,0.39,0.8319473929576341,Stairs down
-1.0089270019496002,-1.3876953125,-0.72338867187,0.03253398418894921,0.17946766936431677,0.26701538085570004,0.10620117187,0.451171875,0.0080517126741034,0.08928155211107368,-0.05957885742059999,-0.22741699218,0.09375,0.010771746964424062,0.10326678795614698,1.0532609381924,0.73541426676,1.41046300917,0.03461193393555026,0.18511027685192077,982.0972973201493,981.98856744086,982.24887572678,0.006471576017516996,0.26030828592001853,0.08004286512451829,0.0007380075231146015,-0.9231955294124181,0.57,0.43,0.4004390326162777,Stairs down
-0.9777022801044943,-1.30822753906,-0.70983886718,0.02286415579091364,0.15035709216411922,0.25326709532685393,0.115234375,0.41857910156,0.0053268796417993945,0.0725742865039296,0.005532939781910112,-0.20178222656,0.25866699218,0.010922737004307063,0.10392309474912782,1.0166788818992134,0.73460573264,1.35499882866,0.02540032336112433,0.15847689569595405,982.1828772859855,982.07221270392,982.37473696033,0.005569589563976887,0.3025242564100381,0.07420923059805078,0.0011957905848934867,0.12572429541564745,0.55,0.45,0.8021693135545385,Stairs down
-0.990683473182716,-1.25866699218,-0.77709960937,0.017698944295630945,0.13221361053424,0.2236870659691358,-0.03295898437,0.4365234375,0.013938406109492249,0.1173299919957414,-0.01657443576382716,-0.16198730468,0.0771484375,0.004830168932240033,0.06906907569257889,1.0237335375362961,0.79118949015,1.30406627598,0.019998197947172437,0.14053934187440645,982.2803229337665,982.23146682147,982.35825921246,0.0016533242423259881,0.1267923909899764,0.04040931615267576,0.0004049500946752492,-0.9574063865164968,0.62,0.38,0.7082260434161504,Stairs down
-0.9889070084916504,-1.42724609375,-0.70971679687,0.031945782748094766,0.1778640759611978,0.25986873292980583,0.11022949218,0.46997070312,0.010445783464723832,0.10170726665917196,-0.0545417267130097,-0.19970703125,0.107421875,0.009348863496591768,0.0962190097204098,1.032769500351262,0.73349243252,1.43951047889,0.03339308908253051,0.18184852029685705,982.3547153718308,982.27899970949,982.49642285531,0.002333434937520484,0.2174231458200211,0.04807057550507605,0.00043340495838887426,0.947715155005874,0.57,0.43,0.8613149359956066,Stairs down
-0.9758734452059209,-1.01916503906,-0.9404296875,0.0004589139238606116,0.021280873637075676,0.2771349455138158,0.2568359375,0.29870605468,9.31663575756187e-05,0.009588560082182502,-0.15352911697868418,-0.17456054687,-0.12414550781,0.00023244413366860372,0.015145483096474531,1.0261202714134212,0.98310212687,1.0760505594,0.0005627436859393353,0.023565635229204473,982.4553249621516,982.39774574806,982.54067473477,0.0008380767374726963,0.14292898671010335,0.02875846678770679,0.00014744812772403353,0.8875843970306825,0.58,0.42,-0.013024047676851813,Lift up
-0.9969055175747,-1.0224609375,-0.95361328125,0.0006203486988208127,0.02478195334981899,0.28781494140319996,0.27331542968,0.29699707031,4.241911448967619e-05,0.006480349014117945,-0.147248535153,-0.16723632812,-0.10424804687,0.00048071104469802576,0.021815222534987938,1.0482213282186998,1.00319328669,1.07488284304,0.0007113875807741874,0.026538155643647234,982.3873978483819,982.33137139814,982.45098416048,0.0005723767528639329,0.11961276233989793,0.023804474061303968,-0.0003142670990016326,1.4515802973174825,0.73,0.27,1.2201847415180151,Lift up
-0.9620893762422339,-0.97314453125,-0.951171875,3.311023870202572e-05,0.005723460676906,0.3067964594380851,0.29052734375,0.33203125,0.00011557802216289341,0.010693384344333116,-0.12106647896829788,-0.13793945312,-0.09704589843,0.00011375551399612718,0.0106087392725816,1.0171621268360636,1.00256170042,1.02538493563,3.839574704477807e-05,0.006163382322287389,982.2373080319469,982.15527581089,982.33137139814,0.0026285667951138746,0.17609558725007446,0.0509961108180821,-0.0018474170117346513,-0.8432074038387873,0.51,0.49,0.26683600903869825,Lift up
-0.9216961527947674,-0.96203613281,-0.88000488281,0.0006604516147430173,0.02554940204396465,0.30282379859813946,0.25756835937,0.35168457031,0.0007244591938973545,0.026758834985519623,-0.13920415833465122,-0.15270996093,-0.12438964843,5.327214661665642e-05,0.007256218233442711,0.9803825538060468,0.92738757427,1.02510602362,0.0008856551764872518,0.029586430343682663,982.0320179080926,981.93246161558,982.1325928541,0.0026451883843136652,0.20013123852004355,0.05113150085656495,-0.001943622279415145,-0.7202472939841322,0.56,0.44,0.2959693332893569,Lift up
-0.9485536772594252,-0.96508789062,-0.90979003906,0.0002732231029619593,0.0164341901998734,0.31132279318954026,0.29370117187,0.32604980468,5.511072381162658e-05,0.007380871711125363,-0.11563005118229888,-0.1376953125,-0.09790039062,8.670845889279485e-05,0.00925806728966711,1.005104475212184,0.96931304258,1.02352456457,0.00022411051438961372,0.014884036128201085,981.9112437402874,981.88387294138,981.93828826041,0.000329316900108866,0.05441531902999941,0.01804249562514778,-0.0006709694012574155,-1.4514613763270872,0.61,0.39,0.22853612432499112,Lift up
-0.787756087928085,-0.80834960937,-0.751953125,0.0002742825752005607,0.016473150137857197,0.7086506295676596,0.67956542968,0.72766113281,0.0001250826464900265,0.011124386726377547,0.1287166514255319,0.1123046875,0.15100097656,0.00012107421537568804,0.010944687835103455,1.067502073086702,1.0252981453,1.08539886289,0.0002704491323256679,0.0163576286147067,981.8340776654044,981.80244780788,981.87232189452,0.000724918150202503,0.06987408664008399,0.026780706767887637,-0.0004045118269990834,-1.5672491626021645,0.53,0.47,0.15662464629996034,Lift up
-0.7693273799896906,-0.79846191406,-0.75671386718,0.00015004622491356356,0.012186031208538964,0.6680266390101031,0.62109375,0.70520019531,0.00033743309875067083,0.018274419471243763,0.11304088474206186,0.06298828125,0.14733886718,0.0006835210613302759,0.026009122485208577,1.0255011495815465,0.98798291222,1.07299785939,0.0004130280990385347,0.020218063146576683,981.7352954133264,981.65244435448,981.80456506576,0.0022425802810247483,0.15212071127996296,0.04711115469487335,-0.0015786333516537036,-0.972821203736443,0.46,0.54,-0.3350550434077337,Lift up
-0.7581646798635632,-0.77331542968,-0.7431640625,4.607003277868268e-05,0.006748369593615272,0.669188050013563,0.63269042968,0.69738769531,0.0003177913448937159,0.0177239547171188,0.07214776400517242,0.01232910156,0.123046875,0.0007917598403731233,0.027976046049303364,1.0143244868708048,0.99023854331,1.03048577312,0.00012119451587421836,0.010945386035305973,981.5506210963177,981.44438507747,981.70378830037,0.007960563682017849,0.25940322290000495,0.0887077389523633,-0.003136920570059931,-1.2224591618175422,0.63,0.37,0.6342585039845725,Lift up
-0.7530328659742855,-0.77307128906,-0.73645019531,7.004892037074361e-05,0.008319555556160695,0.6784449986016666,0.66577148437,0.6943359375,6.316087358175451e-05,0.007899934076944374,0.0849972679465476,0.06530761718,0.11962890625,0.0002549124697078238,0.015870658381094256,1.0171873308557144,1.00209607299,1.02921316541,4.971496642591702e-05,0.007008788881648045,981.3055821464926,981.2060582292,981.44438507747,0.004039391973850939,0.238326848269935,0.06317676767738467,-0.0025704023853567143,-0.8445116191881832,0.43,0.57,0.11311103234621522,Lift up
-0.7651594573341174,-0.77514648437,-0.75634765625,2.4708701353531165e-05,0.004946358173787913,0.6648882697572548,0.64782714843,0.68981933593,9.650115225414137e-05,0.009775226980799964,0.08341710707392157,0.05541992187,0.1044921875,0.00018517441297051106,0.01354101095004474,1.0172374823559804,1.00441180758,1.02899519464,3.5452729248250096e-05,0.0059249602084154515,981.1052584921326,981.00621015748,981.2060582292,0.003245645486433267,0.1998480717199982,0.056690611503534744,-0.0019090616015469885,-1.1454241655525537,0.56,0.44,0.23928072624545815,Lift up
-0.7699430696223076,-0.77587890625,-0.76037597656,1.3506958336481976e-05,0.0036549323144066926,0.6603051489492306,0.64587402343,0.66845703125,3.37143084289998e-05,0.005774410924344284,0.09278416895274726,0.07995605468,0.10913085937,9.464477442384765e-05,0.009674953331032224,1.0185983599339556,1.00867802026,1.0272051569,2.2052749868024484e-05,0.004670161877000288,980.8880667471653,980.76194972469,981.00621015748,0.005651879406900035,0.24426043279004261,0.07476477005909297,-0.0028224938184461595,-1.237206374472107,0.47,0.53,-0.13609116311838423,Lift up
-0.7697062664686746,-0.77685546875,-0.76257324218,1.1118516969950473e-05,0.0033142961446086766,0.6565059064349398,0.64782714843,0.66650390625,1.8745520668583553e-05,0.004303448735836656,0.09290139071566265,0.07958984375,0.10217285156,4.178572849746511e-05,0.006425129258267686,1.0159373246050603,1.00887816664,1.02784503557,2.0799812217421238e-05,0.004533123875455357,980.6554429693015,980.55789371904,980.75154090953,0.00373704558135726,0.19364719049008272,0.060762002401161364,-0.002526483084910815,-1.2250573985225004,0.52,0.48,-0.04909662688715739,Lift up
-0.7674298967596429,-0.77233886718,-0.76257324218,7.457787523621445e-06,0.0027145910076504026,0.662286667592738,0.64965820312,0.67822265625,4.301674566855924e-05,0.006519558386383033,0.09621465773488094,0.08251953125,0.10375976562,2.215694094816032e-05,0.004679013554333285,1.0182732296926187,1.01028320653,1.02604346428,2.1185590594619228e-05,0.00457530121224587,980.4246291478825,980.33113843169,980.55829161846,0.004708256505386828,0.2271531867700105,0.06820708051737481,-0.0027178813105621204,-0.6803388222626361,0.57,0.43,0.6138931856273233,Lift up
-0.7706274655749505,-0.775390625,-0.76525878906,5.8707535816316204e-06,0.002410939092666208,0.6531100131455445,0.642578125,0.67712402343,5.331251583907175e-05,0.007265305853685431,0.10612019453435645,0.09216308593,0.11706542968,3.9056026109453446e-05,0.006218467076509859,1.015754088769109,1.00951290103,1.02850487222,2.199117167959727e-05,0.004666201593001737,980.21490972816,980.11263563936,980.33113843169,0.0041177107978755826,0.21850279233001402,0.06385093095668402,-0.002179126269758099,-1.0772422342127972,0.51,0.49,0.12479851849025614,Lift up
-0.7687880966651647,-0.7783203125,-0.76037597656,2.56894854579142e-05,0.005040553880271011,0.6504255022282417,0.63000488281,0.67712402343,9.202337455146232e-05,0.00954002770841209,0.10157323145186813,0.08239746093,0.12133789062,0.00010138374182751934,0.010013472663090946,1.0122132970513187,0.9991590048,1.02850487222,4.704001563621133e-05,0.006820783854328017,980.0038451011764,979.89517507743,980.11263563936,0.004225875216985085,0.21746056192989727,0.06464856555088787,-0.002452336944631849,-1.19336686756175,0.53,0.47,-0.05426646757340803,Lift up
-0.7699450981289023,-0.77587890625,-0.76489257812,7.347838415330144e-06,0.002694110359613603,0.6554639862767073,0.642578125,0.66516113281,3.4028033249723253e-05,0.005797676882552418,0.09988031154317073,0.09020996093,0.1083984375,2.0651914609776572e-05,0.0045166427789436895,1.0161028772317073,1.00609466615,1.02730035871,2.1038878230328725e-05,0.004558761514336214,979.7879505069127,979.68626429614,979.89517507743,0.0035800501224825397,0.20891078129000107,0.05946756237351071,-0.002502919955331448,-1.1568155603727805,0.52,0.48,-0.026003291933679732,Lift up
-0.7417895507768,-0.77124023437,-0.72888183593,0.00014728808042433131,0.01207539645809147,0.6235668945273,0.61437988281,0.64721679687,4.370634604255185e-05,0.0065779390831875555,0.1032214355427,0.0869140625,0.12048339843,9.317894623664876e-05,0.009604538342590042,0.9746196219000001,0.96228644429,1.00945843242,0.00014141272516955678,0.011832100317266635,979.5716778751607,979.49294131913,979.68626429614,0.0024871615198545963,0.19332297701009793,0.049621466167940366,-0.0016815637380354536,-0.852443885523055,0.59,0.41,0.4907691034520518,Lift up
-0.7644601375448935,-0.77294921875,-0.74475097656,5.771513425001697e-05,0.007556529855702495,0.6555058905377658,0.63500976562,0.66723632812,6.360458722071534e-05,0.007932713449748082,0.1033571933138298,0.09143066406,0.11096191406,3.401529077065813e-05,0.00580115729619751,1.012337126145851,0.98405064431,1.02128116198,9.825464086649613e-05,0.009859481666376712,979.4790101114166,979.46577116812,979.4931008632,9.201704615204781e-05,0.027329695079970406,0.009541390957598867,-0.00033646360492297045,-1.5075646386915467,0.55,0.45,0.2540753915013503,Lift up
-1.0613087621187354,-1.52233886718,-0.67321777343,0.04338780494799101,0.20709682408547447,0.26409701642954025,0.10852050781,0.42614746093,0.01105975198940614,0.10455921003585007,-0.012256139994712643,-0.16137695312,0.20947265625,0.010518327167695166,0.10196777361217027,1.1005090208220691,0.68669476819,1.57495498952,0.04608284082864292,0.21343184627188683,979.430023697419,979.26163393898,979.64324122564,0.01139708027489856,0.38160728666002797,0.1061417889061541,0.0005102826395775319,-0.591742412867915,0.55,0.45,0.31747075760105364,Stairs down
-0.9652596932838271,-1.19799804687,-0.7158203125,0.01844459614807248,0.13496994141110097,0.28756751542938264,0.15441894531,0.46960449218,0.0067770378778513165,0.08181302306819407,-0.039451316549753083,-0.16259765625,0.12280273437,0.006005960371351099,0.07701826220089317,1.012620835604815,0.7397435355,1.27444143448,0.021686605494579125,0.1463518692202996,979.509178186099,979.411761776,979.66318429384,0.005478024069505936,0.2514225178399556,0.07355538146676906,0.0015771972880304524,-0.3009244322649378,0.53,0.47,0.8027943750651353,Stairs down
-1.001385438785728,-1.38977050781,-0.73376464843,0.024092696960316125,0.15446289936774382,0.27051373824029123,0.17749023437,0.35327148437,0.0015648084465151688,0.039365163933361924,-0.023820303018155343,-0.13244628906,0.13000488281,0.004066791910618982,0.06346107857585649,1.040266773896214,0.77280526378,1.41860020451,0.024031957431663118,0.1542680701136772,979.5438310680071,979.41767597865,979.69554760377,0.007247794242491391,0.27787162512004215,0.08471969846557689,0.0007768670674249431,-0.9617428321989174,0.52,0.48,0.4064390020016293,Stairs down
-0.9741927437127174,-1.25463867187,-0.70922851562,0.03016954108673944,0.17274724684439507,0.27561884340652176,0.19934082031,0.40319824218,0.0034150062737930567,0.058119589127782575,-0.001390540082173913,-0.158203125,0.1103515625,0.007454640247985481,0.08586973593553093,1.016980656643913,0.74400910143,1.31067917748,0.031707280188594616,0.17709499100403317,979.6274513908421,979.52516095509,979.83448110502,0.007327242402528539,0.30932014993004486,0.08513282835293691,0.000889268478588954,0.622394251562012,0.55,0.45,1.163729469999325,Stairs down
-1.0401346597293974,-1.40734863281,-0.71911621093,0.03664018215493947,0.1902596493667775,0.25819047674662654,0.130859375,0.41540527343,0.00585443094539431,0.07605192721291945,-0.02864534308915663,-0.16638183593,0.09130859375,0.006662101380683096,0.0811285097791653,1.0764749781212049,0.7384740386,1.45693598172,0.03960625856022479,0.19781070426584552,979.7435660346259,979.59493223408,980.01216373189,0.014089532773477468,0.41723149781000757,0.11798211460457937,-9.687759712439038e-05,-0.3059395490173302,0.65,0.35,0.8826005298645935,Stairs down
-1.0064771247596969,-1.35803222656,-0.7587890625,0.025330846047813813,0.15835080964749665,0.23774241437424246,0.1171875,0.35095214843,0.004576956134000458,0.06731065483160181,-0.016946811868181817,-0.115234375,0.10461425781,0.003606358060719137,0.059748892889491714,1.039026068680707,0.82233453131,1.37737478198,0.023644144402599345,0.1529879559349655,979.895394613401,979.77878002218,980.0797729326,0.004228864686782907,0.3009929104200637,0.06470045503600348,0.0005670413523257474,0.7666838373523674,0.43,0.57,0.49388227225862713,Stairs down
-0.9889780108820225,-1.27185058593,-0.74963378906,0.025324699960391408,0.1582408062726717,0.2358659037007865,0.06359863281,0.44738769531,0.009197336527507415,0.09536244369586898,-0.007754893785168539,-0.20544433593,0.1328125,0.010148862575848515,0.10017400067919288,1.0247478926551683,0.76100338331,1.31793971411,0.02814736681072422,0.16682656941353532,979.969348562594,979.84619774022,980.15895198739,0.008871228259146685,0.31275424717000533,0.09365656163416315,0.0015673127138823252,-0.48393303818167777,0.6,0.4,0.7477873667577221,Stairs down
-1.015380859371605,-1.27758789062,-0.75830078125,0.026736797764632197,0.16250142719869276,0.2491078317862963,0.17004394531,0.36352539062,0.0024781087941437552,0.04947236459290768,0.0011152102624691358,-0.15344238281,0.14721679687,0.009300058614986674,0.09583967381272773,1.0509223004387653,0.78913185079,1.30837717683,0.02698923578678819,0.1632667612987285,980.0474552848495,979.91142790611,980.22328376145,0.010767163302555284,0.3118558553400135,0.1031224289887919,0.0018193117250853664,-1.2307798475825755,0.62,0.38,0.5137503789215679,Stairs down
-0.9996313718247525,-1.28894042968,-0.83410644531,0.016065933400233073,0.1261224197068309,0.262404035809802,0.18542480468,0.40197753906,0.0027085220726368485,0.05178518149444609,-0.04001489016049505,-0.19165039062,0.15002441406,0.008876272147461473,0.09374640401003838,1.0402900258501981,0.86556708524,1.3098778815,0.015042504827286623,0.12203921146880353,980.1578067630961,979.99848961805,980.34306029006,0.011183950498543444,0.3445706720099224,0.10522936051972162,0.0013090880580224483,-1.2438041474775787,0.54,0.46,0.4139333026900611,Stairs down
-1.005098076272043,-1.330078125,-0.77551269531,0.028649090229647744,0.16834795958370158,0.2463667674689247,0.04296875,0.43627929687,0.009003914697433236,0.09437742532175827,-0.03621813045795699,-0.21813964843,0.07873535156,0.0046393650329708816,0.06774569644970126,1.040950951537097,0.78598603009,1.40081872608,0.030820614259670767,0.17461159699534767,980.222422174342,980.13305148118,980.44763553987,0.0064431903617788175,0.31458405869000217,0.07983676311690935,0.0018880427097729597,1.1566124360009118,0.63,0.37,1.2303164494405274,Stairs down
-1.0192239200331763,-1.29467773437,-0.73291015625,0.024906983549975833,0.1568883686386399,0.25204216451905886,0.10327148437,0.4296875,0.009500749547091623,0.09689672864967214,-0.06860926010705884,-0.21813964843,0.04638671875,0.004509812630898176,0.06675893956401,1.0571349170564706,0.74484760012,1.33546187762,0.028308381607108673,0.16725830868299377,980.290008751727,980.20786877958,980.50358392141,0.0074503356865487725,0.29571514182998726,0.08580608765391724,0.00012816992237222417,0.5812933538151634,0.65,0.35,1.2084047696158613,Stairs down
-1.0534996619560253,-1.34387207031,-0.83728027343,0.017934338099420223,0.13305792230411984,0.30760936247653853,0.12890625,0.48278808593,0.015447127873179289,0.12348719679481389,-0.07477589142410253,-0.1787109375,0.02551269531,0.003501139906142371,0.058789909823789184,1.1054602805848714,0.87790679053,1.42501834681,0.024761263665594658,0.15634516803316245,980.3353549502144,980.23220290821,980.4853121811,0.008233120926190758,0.25310927289001484,0.09015302598251318,-0.0007240408583826901,-1.3595576624615693,0.68,0.32,0.5209953910595894,Stairs down
-1.0291580200156252,-1.18933105468,-0.80029296875,0.015921473028990683,0.1253892125189735,0.29869232177425004,0.14025878906,0.44934082031,0.00951476111955833,0.0969320721204486,-0.05243988036912499,-0.11645507812,0.02465820312,0.0015486206033272793,0.03910579043806286,1.077088347333,0.85867450948,1.23903474836,0.01788507383181968,0.13289661549084664,980.3320304037225,980.22808713464,980.5155251811,0.00910240783156995,0.2874380464600108,0.0948083737529303,0.00047064318203316564,-1.2097700465002716,0.56,0.44,0.4712538651768516,Stairs down
-1.041833377575437,-1.26794433593,-0.82019042968,0.018856208357954162,0.1366496921836868,0.2518725348863107,0.13500976562,0.41467285156,0.007899705847592389,0.0884477793633893,-0.04921211316514563,-0.14953613281,0.00720214843,0.0021665997385595204,0.04632024168375492,1.0760387700016505,0.83491256306,1.31876725845,0.022276951917978332,0.14852835026147707,980.3225904221122,980.23836412424,980.54506322681,0.009986071941231592,0.3066991025700645,0.09944405355003562,0.0010119084368960455,-0.2870392147367924,0.64,0.36,1.0799009515932063,Stairs down
-1.0178142170294504,-1.31616210937,-0.71069335937,0.036076400611237264,0.18889138849740192,0.25680106026395605,0.03198242187,0.5498046875,0.01563751276534202,0.12436105485932032,0.002096658224615385,-0.14379882812,0.18774414062,0.008523416715065124,0.09181368522785344,1.0589396108112086,0.72212327428,1.40758183248,0.04056501234703777,0.20029788561187262,980.3180496628963,980.17966057804,980.61989062124,0.014939159663545145,0.44023004320001746,0.12155242932099652,0.0008169432185337793,0.4109600953894317,0.63,0.37,1.123406541498372,Stairs down
-0.9891328007302409,-1.224609375,-0.74060058593,0.01760101717294686,0.13186719351332243,0.2477880271056627,0.09143066406,0.41345214843,0.006847818958154533,0.08225153564089366,-0.025661238703614458,-0.15380859375,0.10778808593,0.0032048138349029046,0.056269011187549366,1.024280680145904,0.80799347715,1.27913621665,0.01883762409608651,0.13642091030933504,980.397868589115,980.27376793296,980.57787233398,0.0064046716016165,0.30410440102002667,0.07954562768326576,0.001025933405173615,-0.48100089816635627,0.63,0.37,0.6761843612002172,Stairs down
-0.9670137445941489,-1.24438476562,-0.80603027343,0.009610412631726038,0.09750986719031893,0.2703350959903192,0.20361328125,0.38488769531,0.0020126698509395384,0.04462351924206073,-0.027238561750744683,-0.16772460937,0.12939453125,0.008637983183566327,0.09244506339141793,1.0097412923709577,0.83945237732,1.27762206425,0.009507777063021982,0.09698778530578864,980.4853502999138,980.36127197887,980.69072309426,0.00805778159139995,0.3294511153899293,0.08928639599984073,0.0016063678291329073,-0.2413535019007247,0.54,0.46,0.825282507245658,Stairs down
-0.9910976763820619,-1.32238769531,-0.78466796875,0.01936392493774483,0.1384351719961482,0.2602841092104124,0.17834472656,0.45739746093,0.004907765124850399,0.06969339716285441,-0.026894480912268037,-0.1708984375,0.13940429687,0.008466963825274098,0.09154056771953953,1.031867288445567,0.81590744915,1.34971985868,0.018588408849593546,0.13563471446746184,980.5891232673586,980.47399633435,980.81630929299,0.008760175621963988,0.3423129586400364,0.09311210733882978,0.0005987973752609891,-0.15113925832922082,0.54,0.46,0.7660320611426759,Stairs down
-0.9884955827545346,-1.25183105468,-0.751953125,0.018044902274131684,0.13354803566164364,0.23945511218767446,0.10632324218,0.43383789062,0.007276399405292476,0.08480442270236911,-0.03494475608523255,-0.15307617187,0.08630371093,0.0038569763909796504,0.061742431344204776,1.0226915581936045,0.80123126713,1.26358208197,0.01884348673527082,0.13647115601619111,980.673160729019,980.55697388903,980.77911176195,0.0031790250698858578,0.22213787292002962,0.05605407801486425,-2.867186972575434e-05,-0.34325590681408524,0.51,0.49,0.1556287633919521,Stairs down
-1.0493586613537178,-1.31713867187,-0.84130859375,0.021151801915394307,0.14450129746047627,0.3004103440470513,0.1416015625,0.42395019531,0.00771013770864101,0.08724270622407043,-0.07961801381923075,-0.19348144531,0.1171875,0.006636598637611459,0.08094142350918572,1.100199711612949,0.87771417945,1.38498391178,0.022633195633586196,0.14947583904697317,980.773023774059,980.65873034435,980.91429966575,0.007170070532560567,0.255569321400003,0.08413172143355853,-0.000210206528050194,-1.3297756310591369,0.55,0.45,0.38313156022978223,Stairs down
-1.0673098873745452,-1.29064941406,-0.85778808593,0.01446590543569991,0.11949073827681196,0.3152870079094805,0.13024902343,0.53540039062,0.013857262857215839,0.1169499824904849,-0.058663504462467535,-0.19934082031,0.1005859375,0.006797005639349779,0.08190685465111416,1.1215623845994807,0.91134567472,1.3762587237,0.019006421672132047,0.13696563447463536,980.7854714450657,980.68054734773,980.96456498098,0.007305729950933505,0.28401763324995954,0.08491672592122898,0.0011680712524093767,-0.4815737203683881,0.68,0.32,0.8746013683118785,Stairs down
-1.0200105365926313,-1.30725097656,-0.78967285156,0.01861828858629626,0.13572879798030096,0.256312962578,0.10656738281,0.45715332031,0.009148082093670918,0.09514087708595559,-0.0645649157028421,-0.18896484375,0.03173828125,0.0030347773568956964,0.05479810518700686,1.0585768029559997,0.8242501167,1.38524423568,0.020393200825181017,0.14205117230539496,980.7817387298636,980.69904848473,981.05067216018,0.010757656537040985,0.35162367545001416,0.10317178900832047,0.00010730541382140163,1.5764303801222566,0.65,0.35,1.5560045949554298,Stairs down
-1.0398150571794846,-1.35217285156,-0.76452636718,0.03089869540201334,0.17487181634113083,0.27732864851525774,0.15087890625,0.42468261718,0.007425806875451119,0.08572777942647834,-0.06821087709237113,-0.177734375,0.07116699218,0.004616311200574117,0.06759230994317916,1.0828159195326805,0.82489133574,1.3989432129,0.03312859719429208,0.18107198917682993,980.7788209721456,980.66087687992,981.04483131392,0.012320846744391933,0.38395443399997475,0.11042566597394808,-0.0013051024197657868,-0.18884854101954707,0.65,0.35,1.0821001930508063,Stairs down
-1.0214531477068602,-1.45349121093,-0.70520019531,0.026193778369611356,0.16090121053416614,0.26257324218430234,0.13073730468,0.37841796875,0.006537368367687046,0.08038253825573606,-0.01134544195,-0.09375,0.07995605468,0.002977498963984006,0.05424828921733337,1.0597391011190695,0.76730302923,1.48018292206,0.02497685451540005,0.15711914579236771,980.8009776564483,980.7078315552,980.95279362917,0.005817742614465458,0.2449620739699867,0.07582937718674612,0.0008216691845105686,-0.7536805886221805,0.55,0.45,0.5152035882498215,Stairs down
-0.9633819203282714,-1.26257324218,-0.70886230468,0.02101302481276441,0.14406111464703988,0.2919861593325926,0.04797363281,0.72644042968,0.02992826771005137,0.17192667891722777,-0.0015477310003703705,-0.1689453125,0.13220214843,0.006568877334079719,0.08054675712306299,1.0257192755674074,0.80464236123,1.27872356352,0.01828896227557596,0.13439930289198973,980.8634282017345,980.7618019527,981.0025359107,0.003664935848255511,0.24073395799996433,0.060163857312111484,0.0012638129634679823,0.09752640642309407,0.43,0.57,0.44406454974909554,Stairs down
-1.0065424992456733,-1.34204101562,-0.78137207031,0.026059786821710243,0.16065245702579392,0.24942603477634614,0.16833496093,0.38427734375,0.0029393685906674476,0.05395466088431841,0.0024836613571153844,-0.14855957031,0.13293457031,0.006803982977511024,0.08208873287038682,1.041394956755577,0.80893105,1.36908954737,0.026558106076025535,0.1621811939512358,980.9606188120486,980.85165260296,981.11183050288,0.005637908794255222,0.26017789991999507,0.07472414691899801,0.0008707638326255701,-0.28564185785540186,0.59,0.41,0.8632935551503693,Stairs down
