avg_accX,min_accX,max_accX,var_accX,std_accX,avg_accY,min_accY,max_accY,var_accY,std_accY,avg_accZ,min_accZ,max_accZ,var_accZ,std_accZ,avg_magnitude,min_magnitude,max_magnitude,var_magnitude,std_magnitude,avg_pressure,min_pressure,max_pressure,var_pressure,range_pressure,std_pressure,slope_pressure,kurtosis_pressure,Pressure_below_avg,Pressure_above_avg,skew_pressure,Label
-0.4013977050745652,-0.515625,-0.34008789062,0.0020677495215919,0.0452247054530345,0.9442457116122828,0.861328125,0.98815917968,0.0007986949922903,0.0281071792427275,0.0131942085570652,-0.029296875,0.04357910156,0.0002668400557366,0.0162462186476783,1.0274833530256522,0.98409086244,1.07132420443,0.0002743369857271,0.0164728583424139,972.6419193948556,972.58066306548,972.75309754448,0.0020810287527389,0.1724344790000032,0.0453696911493977,-0.000858577779807,0.2772756191256738,0.72,0.28,1.0283517627730945,lift down
-0.4561806955604299,-0.69750976562,-0.36169433593,0.0131887914860737,0.1142233624258097,0.9153632707454838,0.69116210937,1.0625,0.0073594011996666,0.0853244856617001,-0.0020515688008602,-0.2607421875,0.14343261718,0.0063553446845038,0.0792906529477816,1.0351546943465595,0.97379925987,1.14019005464,0.0010755289902646,0.0326184635201043,972.5774964645713,972.45569673154,972.69294925692,0.003959108856997,0.2372525253799722,0.0625822482339729,-0.0015795360135671,-0.806414517727339,0.39,0.61,-0.4974948693828744,lift down
0.4269161014747253,-0.31518554687,0.859375,0.1398893043364989,0.3719570663852214,0.0512494097704395,-0.916015625,1.32995605468,0.504619689533574,0.7064519928629391,-0.2876781421676923,-0.64733886718,0.16296386718,0.0655199359577132,0.2545583168185133,0.967439573328352,0.63438749348,1.42827725819,0.0343066554691703,0.184200052267157,972.4711233777612,972.34028720134,972.59083039745,0.0048927227545953,0.2505431961100157,0.0695626089970673,0.0008089221532635,-0.944808401162665,0.44,0.56,-0.3518636812043884,lift down
-0.0002334091684615,-0.58349609375,0.98889160156,0.3198718622777123,0.5624560310531546,0.5614496587371427,-0.66809082031,0.97619628906,0.2061546828586865,0.4515409691083594,-0.2663681533296703,-0.65478515625,0.10461425781,0.0507932681660654,0.2241318816768841,0.9710572715725272,0.7918343816,1.22221923671,0.0138589726483865,0.1170755151415401,972.6674378456,972.46374490302,972.92361451698,0.0257880257896256,0.4598696139599951,0.1597017247584965,-0.0005381935000216,-1.4569200424211604,0.6,0.4,0.4155168555143335,lift down
-0.3962565104124445,-0.501953125,-0.28649902343,0.0036798585667475,0.0603238862254355,0.8998453776006667,0.80334472656,1.02490234375,0.0026072301221312,0.0507765782477708,-0.0345119900164444,-0.23278808593,0.28186035156,0.0195957613207778,0.139204995023296,0.995247359256778,0.90463888073,1.12736560538,0.0030437795414797,0.0548631002477676,972.5932389988302,972.48537575404,972.81330403352,0.0054411666852956,0.3279282794800338,0.0733533181095529,0.0023042154845374,0.5724515841739999,0.49,0.51,0.623612364741925,lift down
-0.4227091471312221,-0.59155273437,-0.35974121093,0.0023461825559495,0.0481675602546304,0.8988878038155554,0.83361816406,0.94836425781,0.0008597928635187,0.0291588684533474,0.1210354275138888,0.09655761718,0.18981933593,0.0003676140669042,0.01906644870344,1.0022594093402224,0.95643825454,1.084698945,0.0008604821611052,0.0291705544720021,972.717215644276,972.64021065623,972.82899967993,0.001521921036582,0.1887890236999965,0.0387944687145243,-0.0002160207578036,3.377204757864128,0.48,0.52,1.6663161889435218,lift down
-0.4304788996625843,-0.48315429687,-0.39379882812,0.0006487630687971,0.0253273290363195,0.9481393192553932,0.89343261718,1.00646972656,0.0010660737411006,0.0324668351469482,-0.1389516766124719,-0.27648925781,0.07775878906,0.010524029826784,0.102008736393705,1.055896855237865,1.00630943821,1.10370450049,0.0007797639804112,0.02776693334477,972.8131333408068,972.66983865088,972.93010852062,0.0080984758391167,0.2602698697400001,0.0894845334600617,0.0032562774636588,-1.4782197548352896,0.45,0.55,-0.2398161419365452,lift down
-0.3405776605341463,-0.36120605468,-0.31591796875,5.334192361567979e-05,0.0072588850626025,0.6715073003962194,0.65490722656,0.68347167968,4.794255225291656e-05,0.0068817066910425,0.6863864805608536,0.67138671875,0.69738769531,4.415982675988744e-05,0.0066046417228496,1.0188984184769512,1.0101795713,1.03290831284,3.166764717118076e-05,0.0055929827777331,973.1144485042108,973.10241769974,973.12537358927,4.615124401759499e-05,0.0229558895299533,0.0067519200208977,-6.636355971865502e-05,-1.1201090976569494,0.51,0.49,-0.2061394175993523,lift down
-0.343465665487317,-0.3583984375,-0.31970214843,0.0001096262074149,0.0104062146069775,0.6743000309601219,0.6611328125,0.69311523437,6.597048050182086e-05,0.008072543740787,0.6835639767489022,0.66967773437,0.69372558593,3.4079713933972206e-05,0.0058020778749069,1.0198461598836586,1.01139158312,1.02848555929,3.020331017709661e-05,0.0054621403429568,973.1126121821447,973.09346018632,973.12794828382,8.007216419551442e-05,0.0344880975000023,0.0088935748936101,6.467494410979605e-05,-0.2939963800424863,0.43,0.57,-0.546875501231628,lift down
-0.340193383485679,-0.626953125,0.05114746093,0.0294775183322361,0.1706270739150907,0.7604151596229629,-0.04675292968,1.43225097656,0.119098820845196,0.342970064338409,0.2581229504220987,-0.58618164062,0.69250488281,0.1418857034463389,0.3743447984080312,0.9993571571016048,0.5509061604,1.44447820657,0.0493609693983901,0.2207975876554348,973.0480043496094,972.82534539797,973.28348682742,0.0118574636565461,0.4581414294500519,0.1082177213599598,-0.000454494847294,0.2037169445396043,0.58,0.42,0.5409313049308562,lift down
-0.2426516685919753,-0.31030273437,-0.13232421875,0.0029797916933227,0.0542494621314659,0.7589246961776542,0.53723144531,0.89929199218,0.013364681228956,0.1148898827765134,-0.6166042751697531,-0.81298828125,-0.46716308593,0.0108445324005704,0.1034922667860453,1.0194214418767902,0.86070177655,1.0950737776,0.0027141290941066,0.0517747170683986,972.9952517748968,972.88100767021,973.05300320496,0.0014730304331175,0.1719955347499535,0.0381424287665961,0.0013210506906396,1.709192883596545,0.49,0.51,-1.0971494844545335,lift down
-0.1982894897417499,-0.29907226562,-0.103515625,0.0029741131405242,0.0541935118466014,0.75744934081675,0.68908691406,0.80859375,0.0013054039565841,0.0359038494750466,-0.625634765622,-0.66809082031,-0.5498046875,0.0011255007001402,0.0333381454401489,1.004363851068375,0.92319241642,1.05887692876,0.0010711851581352,0.0325237658283691,973.055007077456,973.04760577373,973.06205699605,1.2048675873419913e-05,0.0144512223200763,0.0034493575380064,0.0001273669575601,0.1884739982460468,0.49,0.51,-0.1489875924243656,lift down
-0.2458724975543749,-0.33825683593,-0.11901855468,0.0037475085310906,0.0608330886479723,0.742346191402,0.52795410156,0.90173339843,0.007887852870816,0.0882567544719998,-0.6145202636692499,-0.75891113281,-0.52905273437,0.0046328808309896,0.0676385231994481,1.00156667282175,0.91468094827,1.11628930458,0.0021219205079619,0.0457755011071688,973.0993150177208,973.05355528646,973.21535516952,0.0019630456716702,0.1617998830599845,0.0440284862421406,0.0014676541875225,0.7547875526393124,0.56,0.44,1.2614419714121703,lift down
-0.2294612836207594,-0.34826660156,-0.15490722656,0.002091748389082,0.0454452479514875,0.7483620945384809,0.71130371093,0.80383300781,0.0006029386580309,0.0243989041376696,-0.6628557036156961,-0.69555664062,-0.60949707031,0.0003451536815136,0.0184603533977667,1.0270054020108856,1.00009110899,1.06552994883,0.0003415787942869,0.0183645041338126,973.2660236577784,973.15527262191,973.37147857289,0.0044883903454072,0.216205950980111,0.0665700779460552,0.0029087679537467,-1.178859494762808,0.49,0.51,-0.1010432237606523,lift down
-0.223304748531875,-0.30786132812,-0.15502929687,0.0019289389416905,0.0436443261480736,0.7631774902309999,0.67016601562,0.82873535156,0.0013546630174939,0.0365749877617929,-0.66003112792575,-0.70068359375,-0.61584472656,0.0005016688965042,0.0222575388418825,1.0347726443135,0.96779025127,1.11512771203,0.0009412776668631,0.0304878942537423,973.4867055289628,973.37147857289,973.5878504459,0.0042730010676229,0.2163718730099617,0.0649583601569314,0.0028000166844264,-1.2495716366668757,0.49,0.51,0.0117496552498015,lift down
-0.1978509364951282,-0.25939941406,-0.08703613281,0.0026761155464462,0.0513985055500048,0.791327060793846,0.71533203125,0.87744140625,0.0028590039957864,0.0531257950378591,-0.6543829502166665,-0.70458984375,-0.6103515625,0.0008642143665005,0.0292084695787915,1.048196543588974,0.98002311944,1.10249887398,0.0011769419255896,0.0340859637760712,973.7058563869008,973.60090878137,973.81295317035,0.0038447913570408,0.2120443889800753,0.0616076225815906,0.0026935110657436,-1.1528458423407535,0.49,0.51,0.0508204797041992,lift down
-1.15983276367,-1.43603515625,-0.88427734375,0.0269489179307557,0.1631320215550009,0.1578338623021249,-0.1943359375,0.50830078125,0.0356110873753914,0.1875258616383324,0.160530090328625,-0.044921875,0.41223144531,0.0160463004712959,0.1258797907346718,1.2020279933600002,0.97587466621,1.5070628195,0.0290085142314994,0.1692510200962043,973.989702639578,973.96547717085,974.02771039125,0.0003162828123644,0.0622332204000031,0.0176728401002764,0.0001007537937165,-0.1613361748084516,0.68,0.33,0.9199535832090076,stairs down
-1.2489131047130766,-1.67175292968,-0.86865234375,0.0549380974628618,0.233259183154102,0.2496126615055769,-0.03051757812,0.57641601562,0.0354829081751879,0.1874612663080327,0.0918567364004807,-0.0947265625,0.27197265625,0.0064886582692076,0.0801640026714701,1.2910791810326925,0.87256802904,1.70373631364,0.0601993119902713,0.2441730379298732,974.0106312096232,973.98335375767,974.04529889345,0.0003580000495149,0.0619451357799789,0.018829703697788,0.0003840867680799,-1.0644061192562777,0.58,0.42,0.4099621425928835,stairs down
-1.0469827854856384,-1.47729492187,-0.6484375,0.0437883753469269,0.2081406773474143,0.1900271151897873,-0.08703613281,0.4482421875,0.0160473507671771,0.1260025169179328,0.0601754695781914,-0.05859375,0.1826171875,0.0037522607318767,0.0609290001929814,1.0744662556847873,0.6674321568,1.48737705227,0.04481488311888,0.2105662105921728,974.0601944879106,974.03182973451,974.08378616251,0.0002393221205688,0.0519564280000395,0.0153875319841341,0.0004475907524874,-0.9388578369992836,0.46,0.54,-0.2661853273658782,stairs down
-1.0598805147028234,-1.64526367187,-0.68090820312,0.0905287377722225,0.2991048207542494,0.2383200252717647,0.0009765625,0.50109863281,0.0253393732408666,0.1582443141709828,0.0187528722412941,-0.18579101562,0.19812011718,0.0129065442561888,0.112936719268169,1.1045347197988236,0.69658572175,1.67322741382,0.0888022546003345,0.2962389613019729,974.1175434659924,974.0810863614,974.15582818133,0.0003239431491502,0.0747418199299545,0.0178922344406148,0.000249494132009,0.4023454986308925,0.49,0.51,0.5541748990525901,stairs down
-1.1331363600093878,-1.64013671875,-0.67248535156,0.0624753962171717,0.2486722585535817,0.2320307517508163,0.01440429687,0.5869140625,0.0273028562852323,0.1643905584603118,0.0161269830196938,-0.12890625,0.16906738281,0.0089634121941302,0.0941910229501421,1.1722067996513266,0.68858456677,1.66178961792,0.0623983935558135,0.248518963570637,974.1878383215846,974.14010511062,974.2264564013,0.0007198407475982,0.0863512906799996,0.0266926100980635,0.0007056408948395,-1.1960517172917622,0.49,0.51,-0.1778392064660522,stairs down
-1.174318897477653,-1.798828125,-0.78137207031,0.0786437702484222,0.2790005068040339,0.2661132812461225,-0.04711914062,0.65649414062,0.0473218492620385,0.2164231347364707,0.030693209900204,-0.109375,0.24243164062,0.0077476440215582,0.0875704655092203,1.2251772189778571,0.78191947862,1.82073842742,0.0829189609812712,0.2864835931332257,974.2621879803518,974.21841966169,974.30419523478,0.000838066148027,0.085775573090018,0.0288012925515336,0.0007827176414123,-1.4520620520982237,0.49,0.51,-0.1279699394386288,stairs down
-1.1375260786539771,-1.60900878906,-0.55920410156,0.059532880588887,0.2426033193964895,0.1734480424347727,-0.08459472656,0.47302246093,0.0348994942331891,0.1857495870020936,0.0620519464647727,-0.09252929687,0.20422363281,0.0063551200945228,0.0792647640551677,1.168783150541932,0.56293981629,1.63674534341,0.0621951395335921,0.24796849917751,974.335273713162,974.31019509085,974.36158580273,0.0002046113522855,0.0513907118800034,0.014222736139095,0.0003237884969611,-0.8976675166812069,0.38,0.62,-0.2139967872191911,stairs down
-1.1814969219712657,-1.64526367187,-0.67724609375,0.1027609983923763,0.3185282189395898,0.2759082649302531,-0.11267089843,0.54284667968,0.0364202273244915,0.1896291427727776,0.1419492311082278,-0.02807617187,0.3369140625,0.009596982097049,0.0973421866972919,1.243332811389873,0.71970517503,1.70971924594,0.0944236267589018,0.3053332457776972,974.385157581194,974.34767480677,974.44743290367,0.0005275793886804,0.0997580969000182,0.0228232593765781,0.0006117400055007,0.5850957161201022,0.52,0.48,0.5322184223250013,stairs down
-1.1520764160127002,-1.36828613281,-0.91333007812,0.015107450369277,0.1222962626803627,0.2459606933571999,-0.07763671875,0.65979003906,0.0448757298949641,0.2107770684776086,0.0470764160137,-0.09826660156,0.17028808593,0.0058416752424742,0.0760477382309921,1.1989442026866,0.92152310783,1.42677912869,0.0178710361053689,0.1330125022105639,974.431228964017,974.40113934306,974.45573162078,0.0001322826823471,0.0545922777200758,0.0114437692882925,0.0002163296421629,0.6576405761651891,0.48,0.52,-0.5743731460443494,stairs down
-0.9356991482739176,-1.44592285156,0.55676269531,0.2789941759240385,0.5254692639025283,0.3022486106594845,0.00073242187,1.00268554687,0.078836364354555,0.2793270812690406,-0.1143849166404123,-0.66320800781,0.10827636718,0.0510330687315959,0.2247375238382787,1.1586977209140206,0.71003801433,1.46146752947,0.042477047390042,0.2050344841361815,974.4410324545336,974.40979580353,974.51249367173,0.0006035242517524,0.102697868200039,0.0244397698894619,0.0005349390107044,2.605417145146649,0.73,0.27,1.7057783718253396,stairs down
-0.3689329651577011,-1.701171875,0.85913085937,0.9710517508668796,0.9797398820549766,0.1627519980229885,-0.876953125,0.89208984375,0.2252205085119508,0.4718387087075434,0.0050455729174712,-0.267578125,0.2861328125,0.0253551116045276,0.1583151083760101,1.1219232819740228,0.62630758593,1.86798030988,0.1127955302207066,0.3339147044880506,974.3901224732588,974.34086622465,974.50550722523,0.0025391511355892,0.1646410005799907,0.0500995557899722,-0.0011329884482551,0.1465621845394258,0.71,0.29,1.1693661567275575,stairs down
-1.158837622335055,-1.45617675781,-0.88171386718,0.0239154157441675,0.1537940472767011,0.2123433207397802,-0.1005859375,0.61120605468,0.0471214553911673,0.2158787557867972,0.1370138650382417,-0.07360839843,0.29077148437,0.010109415009783,0.0999916123339756,1.2074213973763737,0.88744899744,1.46095362567,0.0294792051941638,0.170749108004516,974.4182740292484,974.39004975167,974.44829948245,0.0002643587156315,0.0582497307800622,0.0161695292077546,0.000324491391873,-0.8270640772303914,0.53,0.47,0.0427412285681231,stairs down
-1.1037106981416664,-1.66040039062,-0.70922851562,0.0800129335290487,0.2814755637781976,0.1415728400716666,-0.13549804687,0.39099121093,0.0246894805660104,0.1563567294201665,0.0245277554378431,-0.13098144531,0.17956542968,0.0063739047953675,0.0794444178823651,1.1285541089575493,0.71188414083,1.67010920405,0.0759190479463338,0.2741801297590748,974.454390008873,974.43194146106,974.52728430765,0.0006062475511338,0.0953428465900287,0.0245011009485563,0.0004048941769847,3.3138446275036504,0.57,0.43,1.9053496776289245,stairs down
-1.1803263346316668,-1.66833496093,-0.78771972656,0.0690367674054778,0.2612846957096485,0.2023518880195555,-0.35473632812,0.57690429687,0.0655834550921604,0.2546659577477542,0.0709852430526666,-0.10412597656,0.20153808593,0.0056931360530836,0.0750325195220521,1.227279396600889,0.79301285268,1.73054930454,0.0725006138313585,0.2677593162813472,974.5163368310922,974.46527551514,974.55208144386,0.0006404794283962,0.0868059287199685,0.0251667040015758,0.0007918540941101,-0.3220226029640498,0.57,0.43,-0.5806741465947104,stairs down
-1.1973831741866667,-1.75524902343,-0.69494628906,0.1049157971311336,0.3219014451294499,0.2274305555523457,-0.35473632812,0.59716796875,0.0516445130104892,0.2258471306661052,0.0520185305734567,-0.1904296875,0.27478027343,0.011523097660661,0.1066810067243207,1.2473953944676546,0.69710372199,1.76617025716,0.0993972108673047,0.313321057075988,974.5848121780184,974.54551027076,974.6571843125,0.000894772095529,0.1116740417400024,0.0297275213640232,0.0008006448806186,-0.093878275775606,0.57,0.43,0.8281310043664273,stairs down
-1.1749942555108233,-1.78601074218,-0.72021484375,0.0864102718036339,0.2922219710607845,0.2345372817071765,-0.01171875,0.58410644531,0.0359716895744669,0.1885430805586142,0.0108154296868235,-0.19580078125,0.19384765625,0.0118769099310925,0.1083382738415287,1.216721022178706,0.72474264065,1.8135597896,0.0890532046403106,0.2966572430935007,974.6654908738102,974.60368577716,974.70697248483,0.0006107691123355,0.1032867076700085,0.0245679383214571,0.0003152483985921,-0.4265375777642757,0.33,0.67,-0.517667785691352,stairs down
-0.6715182702486406,-1.68273925781,0.11560058593,0.3600961167674338,0.5971599768603607,0.5033302677453396,0.0458984375,1.10766601562,0.0870512950122671,0.29360881595801,-0.1908954509246601,-0.69018554687,0.17639160156,0.083796336587567,0.2880673183852489,1.095807453287864,0.72450754318,1.71329288261,0.0663584557542988,0.2563478084601375,974.7459116324106,974.67643793571,974.84019388336,0.0016625163866989,0.1637559476499746,0.0405755523795517,0.0009826647722297,0.3702454038988865,0.44,0.56,0.5794091315300564,stairs down
0.0662311056382608,-0.05932617187,0.25695800781,0.0081273514826576,0.089660530366891,0.9746624490456522,0.50695800781,1.46240234375,0.0717317705315142,0.2663683115041332,-0.4092433763546739,-0.74133300781,-0.23266601562,0.0163517929952916,0.1271772625704299,1.0693914541802176,0.55780107769,1.56002559238,0.0741802560313945,0.2708762612349382,974.8242374135403,974.71807631736,975.09379163605,0.0067891287479986,0.3757153186900268,0.0819471407085261,-0.0004248790608007,2.734658358865192,0.72,0.28,1.5903830066981035,stairs down
0.0188708937301204,-0.13708496093,0.10998535156,0.0040926722619593,0.0635874433956764,0.9780567582796386,0.7021484375,1.38122558593,0.0308894448127271,0.174691965548023,-0.1015110245656626,-0.43298339843,0.31652832031,0.0445227379905136,0.2097291573923555,1.0093429979455422,0.71251269212,1.38958610346,0.0273589244951121,0.1644058967883617,974.8738174279936,974.79093116004,974.95650227583,0.0030642439958778,0.1655711157899304,0.0550211358799309,0.0018469667704096,-1.2361268229684073,0.46,0.54,-0.0382866884530028,stairs down
-0.2235527448729031,-0.69018554687,0.7392578125,0.1421946515495387,0.3750542318141395,0.8348690566167745,-0.06384277343,1.51501464843,0.1591261915704588,0.396755790446084,-0.3245600218389247,-0.541015625,0.09338378906,0.0230046800812473,0.1508552880406785,1.0432028907504298,0.59989444032,1.65470296205,0.0858099475343938,0.2913541829569247,974.9716665429556,974.71395795116,975.44073009387,0.04495408666354,0.7267721427100469,0.2108807942596669,-0.0055662220294105,-0.134324038246592,0.62,0.38,0.8572784678195634,stairs up
-0.2749621073409374,-1.63671875,0.88061523437,0.8593591777824918,0.9221754278230312,0.1068305969242708,-0.55041503906,0.82507324218,0.1641881366524601,0.4030854047994424,-0.0087649027532291,-0.51708984375,0.25354003906,0.0624334663514492,0.2485621003765892,1.032563160796875,0.19301806294,1.75895779492,0.096581618915247,0.3091529724665119,974.947506891108,974.82547941208,975.06171654434,0.0037779844552941,0.2362371322600438,0.0611443411163413,0.001676186823486,-0.7058130749519513,0.42,0.58,0.0023552655051358,stairs up
-1.1134734756616091,-1.42053222656,-0.74633789062,0.0271110186856944,0.1637052161088985,0.1368436265245976,-0.14221191406,0.439453125,0.0186100501569314,0.1356323764240603,0.1041400076310344,-0.12341308593,0.2607421875,0.0115354724484616,0.1067842723022592,1.1397761018391954,0.81485814148,1.42968188216,0.0272161878591731,0.164022431739276,975.0345083996496,975.00083231825,975.05789763042,0.0001781382778764,0.0570653121700388,0.0132699175379537,3.963679585532621e-05,0.3856187939997495,0.48,0.52,-0.3421956021262706,stairs up
-1.1980413122977214,-1.37780761718,-0.92077636718,0.020100114069701,0.1408747040672454,0.145478453815443,-0.09912109375,0.48400878906,0.032244859679008,0.1784284083274329,0.0445263053796202,-0.18786621093,0.25170898437,0.0185583471535062,0.1353640697037179,1.2262004633383543,0.94047421897,1.46038127959,0.0252068668532069,0.1577586529773956,974.9902415664752,974.95239832143,975.03809261898,0.000557544613146,0.0856942975500487,0.023462461217813,-0.0009578105295797,-1.0282095963086293,0.47,0.53,0.0597455328260061,stairs up
-1.3673693338990625,-1.72277832031,-1.07495117187,0.0315034116553375,0.1765651469493941,0.1467221577941666,-0.29675292968,0.54089355468,0.0603080468319551,0.2442945722090218,0.1267890930167708,-0.1552734375,0.54113769531,0.0404373438185859,0.2000402996576998,1.4119987350670833,1.15328660313,1.80618607447,0.0338759940780487,0.1830931979614092,974.9070123711276,974.84735255159,974.96999172288,0.0013116364279543,0.1226391712899612,0.0360273999685869,-0.0009696355041335,-0.951968805510357,0.4,0.6,-0.4309701785918222,stairs up
-0.4177451685845263,-1.73962402343,1.23107910156,1.0891194554793762,1.038101652131688,0.3573319284499999,-0.15344238281,0.86840820312,0.062145730031572,0.2479749270637907,0.0451737253285263,-0.46276855468,0.78356933593,0.150062357746283,0.3853346000303278,1.1967873453757896,0.57155481661,1.97740971648,0.1612647304496956,0.3994586423790049,974.810463517991,974.70421683902,974.94645257876,0.0051073000728116,0.2422357397400674,0.0710882481104548,-0.002001217657302,-0.7758234430654021,0.46,0.54,0.1956595493564636,stairs up
-0.8285891510699998,-1.92651367187,1.01794433593,0.7181907256943191,0.8425198340361995,0.2135790447843023,-0.33361816406,0.88781738281,0.1126895799028648,0.3337352782528481,0.0212175236177907,-0.49975585937,0.37365722656,0.0592400629754089,0.2419736040022432,1.202913688209884,0.3586591557,2.14815929345,0.1673407864924886,0.4066877959734455,974.726585979069,974.71251971691,974.76783567439,0.0001688652136878,0.0553159574799337,0.0129190427157533,5.002682659705784e-05,2.30290806943032,0.64,0.36,1.5022182822831762,stairs up
-1.1977496969250574,-1.38952636718,-0.9052734375,0.0171906249633769,0.1303573226673257,0.0916649829357471,-0.27575683593,0.43237304687,0.0272216652073611,0.1640389359384785,0.0708639210647126,-0.07885742187,0.21350097656,0.0082280195247514,0.0901856118662248,1.2175421163364368,0.93291638752,1.41683022055,0.0178602345542648,0.1328719101312123,974.6895768685108,974.6522057494,974.72691110021,0.0005270637029895,0.0747053508100634,0.022825544889595,-0.0006757918601035,-1.1950439369961736,0.53,0.47,-0.0225137234435721,stairs up
-1.1689270019482998,-1.42663574218,-0.9072265625,0.0247075104276095,0.1563983226359332,0.1592370605448,-0.07116699218,0.43212890625,0.023263965427667,0.1517607517554864,0.1109301757791999,-0.15588378906,0.34301757812,0.0138576785178047,0.1171285692417812,1.1993722052853,0.91813201264,1.46074745655,0.0270398558097797,0.1636137440794077,974.6180795892674,974.56111915546,974.66124187135,0.0008287864727646,0.1001227158899382,0.0286443468774734,-0.0008116905359087,-0.8442977730241794,0.47,0.53,-0.3172866803776099,stairs up
-0.8704142252567777,-1.38024902343,0.14196777343,0.1992585354475183,0.4438970057573307,0.3980957031216666,0.08911132812,0.99829101562,0.0653363764957955,0.2541857918077903,-0.1707750108488889,-0.77282714843,0.25280761718,0.0842445494385293,0.2886321168706149,1.1214039004157776,0.69870250973,1.39982745818,0.0330491894158758,0.1807815704106586,974.5758603565364,974.48210840166,974.63439921864,0.0009205630506695,0.1522908169800985,0.0301717512307261,-0.0001888380836963,2.493106573572515,0.44,0.56,-0.8551605387983222,stairs up
0.21090545654025,0.0146484375,0.38232421875,0.0094395882508916,0.0965483992500938,0.792849731442375,0.53991699218,1.0859375,0.028002429602866,0.1662901056371972,0.5826385498019999,-0.15319824218,0.96899414062,0.0583673270342053,0.2400786026414636,1.0311439141325,0.74155143787,1.38757737133,0.0444693107703014,0.2095553492175102,974.4765017896104,974.43436933402,974.53770113424,0.0013510994298714,0.1033318002200758,0.0365268488511955,-0.0012705806894288,-1.478688287333814,0.59,0.41,0.3952449177337652,stairs up
-0.4993178423721175,-1.3994140625,0.52258300781,0.5699265600255017,0.7504808736218802,0.5860509535807058,0.06701660156,0.92895507812,0.0511270342091224,0.2247788684218672,0.2651381548676471,0.00390625,0.5810546875,0.023665495391972,0.152928342040072,1.116673882287647,0.72269485989,1.43357633949,0.0538797482363787,0.2307506638026477,974.440541363477,974.42112011726,974.46154599471,0.0001298148320674,0.0404258774500476,0.0113264115565802,0.0002508162751997,-0.7362963943471303,0.56,0.44,0.3537248248831719,stairs up
-0.6896911621080001,-1.8427734375,0.93908691406,0.7330528649299158,0.8518933831651803,0.2766271972625999,-0.04248046875,0.91760253906,0.0768375579317975,0.2758064218840446,-0.0259204101568,-0.51892089843,0.41516113281,0.0843713479856854,0.2890114781558487,1.1376348878435998,0.40515381299,2.09829631466,0.1454286748676874,0.3794395711032398,974.435459624576,974.41299125744,974.46120666129,0.0001914867227343,0.0482154038500084,0.0137685095601171,-0.000165062817423,-0.5670184616404481,0.47,0.53,0.2961329412734828,stairs up
-0.4310601128455556,-1.62023925781,1.03625488281,0.9425436031594152,0.9654381888332592,0.2937703450497778,-0.04248046875,0.869140625,0.0865056283851311,0.2924798364612634,-0.117667643229,-0.45825195312,0.21520996093,0.067075415874574,0.2575463715061186,1.131237289156222,0.580147967,1.77279105987,0.0912207550175399,0.3003451199418772,974.4046925388096,974.36431674282,974.43888069131,0.0003642336531721,0.0745639484899811,0.0189785829971923,0.0005073533149627,-0.8024794379175169,0.53,0.47,0.0749287993492156,stairs up
-1.2344413097949385,-1.55639648437,-0.99157714843,0.0248964350853636,0.1568090293613478,0.1633029513861728,-0.37072753906,0.42504882812,0.048152310399751,0.2180775949790645,0.0452971281820987,-0.42590332031,0.59606933593,0.0677334758544113,0.2586450465466569,1.2889898715744446,1.02391020217,1.61067938489,0.0304907401759681,0.1735347552650673,974.4347144136408,974.4010083647,974.49771672596,0.0005254052190366,0.0967083612599708,0.0227797878579027,-0.00038075307347,1.959921256763283,0.64,0.36,1.229627816395586,stairs up
-1.1964453124958998,-1.37036132812,-0.98620605468,0.0099172459950135,0.0990861924541627,0.1385302734363,-0.25524902343,0.42028808593,0.0327953343188432,0.1801870721657212,0.0794824218733,-0.09594726562,0.23291015625,0.0081471572857289,0.0898091627445199,1.2233872895936002,0.99099941157,1.39734281817,0.0107718764875678,0.1032674088117456,974.4353446715202,974.40951019459,974.466723658,0.0002004468107472,0.0572134634099938,0.0140869564718478,-8.106749791753284e-05,-0.1598375719256193,0.42,0.58,0.3597926064272324,stairs up
-1.1736917698595744,-1.49816894531,-0.87609863281,0.0336242929763412,0.1823913038823728,0.1177536984684042,-0.39514160156,0.4853515625,0.0506849878091953,0.2239325474584372,0.1148863447447871,-0.12951660156,0.29125976562,0.0182176927580965,0.1342530726500853,1.2138720386554251,0.88319317028,1.49896591026,0.0329183059200958,0.1804663713168329,974.4088738485854,974.36262612932,974.45928878215,0.0006694420762529,0.0966626528299912,0.0257355853253333,-0.0004716886970383,-0.3320248151685638,0.52,0.48,0.3261265002775581,stairs up
-1.0700857979883334,-1.41528320312,-0.77600097656,0.0324070421840912,0.1789448073089913,0.1480349586091666,-0.07678222656,0.28442382812,0.0137034869259299,0.1163630103461223,0.1054992675760714,-0.1279296875,0.39965820312,0.0196769746935172,0.1394371722130973,1.1007917579816664,0.78169640185,1.41568367059,0.0317680756534429,0.1771719060026624,974.3651570677466,974.3424527963,974.44393733285,0.0007540255014779,0.1014845365500605,0.0272955858594885,-0.0003787108481237,2.974617654233559,0.68,0.32,1.9475961661437944,stairs up
-1.1014895748742854,-1.38647460937,-0.83459472656,0.0194080880830193,0.1384053286222467,0.1660251369707792,-0.12097167968,0.57531738281,0.0416111062873547,0.2026590790208939,0.1043970677741558,-0.14660644531,0.32543945312,0.0159130851775057,0.1253252637485438,1.14260498747013,0.86875579543,1.40881161499,0.0238876254018899,0.1535493292091069,974.3201080249952,974.2747679964,974.36362315535,0.0006366709707528,0.0888551589499684,0.0250679579660414,-0.0008998779877589,-0.9028372939861148,0.39,0.61,-0.0977885882232122,stairs up
-1.1023377763437232,-1.2900390625,-0.92016601562,0.0136265763376597,0.1161103473407925,0.1536826275745744,-0.17736816406,0.50256347656,0.0284465235566695,0.167761440640098,0.1038493704261702,-0.03210449218,0.23266601562,0.0053367458284082,0.072663415393282,1.132011217387447,0.93725279886,1.37167725278,0.0151690774431654,0.1225059356883431,974.2442784491514,974.19759178729,974.28093115704,0.0005082445884516,0.0833393697499786,0.0224240435944933,-0.0006358384031142,-1.3291782101050489,0.47,0.53,-0.0571708891708225,stairs up
-1.1138432820598958,-1.43041992187,-0.91589355468,0.0152593043223896,0.1228834945617112,0.182276407874375,-0.12963867187,0.37585449218,0.0214661852042792,0.1457483417003477,0.0983492533346874,-0.10778808593,0.23010253906,0.0113358496029247,0.1059139643117358,1.146958789318646,0.92342219396,1.44530051973,0.0157544662987215,0.1248613522062633,974.1811659088962,974.14906104518,974.22358564493,0.000431630950994,0.0745245997500205,0.0206672396621935,-0.0006344748521547,-0.7544118068286423,0.56,0.44,0.2548377179796675,stairs up
-1.0689711296666666,-1.43041992187,-0.88220214843,0.0226328887545405,0.1495752005111028,0.1142143161790805,-0.20532226562,0.34899902343,0.0250558710976812,0.1573781197603947,-0.0130264457620689,-0.22265625,0.18872070312,0.0145022709374567,0.1197312748118078,1.0926082707502298,0.89746069674,1.44530051973,0.0238716188335984,0.1536139069557952,974.1202446314238,974.0953999568,974.16687688614,0.0003788908307329,0.071476929340065,0.0193529264896312,-0.0006007582930372,0.4217973184104528,0.59,0.41,0.996294964723931,stairs up
-1.1284767433408642,-1.32165527343,-0.86535644531,0.0188330550159986,0.1363838266215948,0.1257143373807407,-0.20825195312,0.28491210937,0.0156513087859405,0.1243305382902614,0.0636980975101234,-0.15502929687,0.25524902343,0.0159564298051977,0.1255365956390397,1.1510807508362964,0.89554550108,1.3307255249,0.0183793812670327,0.1347311223343159,974.0684575895788,974.03410888351,974.11125588974,0.0005816320817768,0.0771470062300068,0.0239677165952868,-0.0006944037012072,-1.0675426459699238,0.48,0.52,0.2173441543814295,stairs up
-1.0439927184431068,-1.396484375,-0.81628417968,0.022187375038944,0.1482294290308067,0.1104914100396116,-0.11267089843,0.22668457031,0.0070851723957397,0.0837638604305445,0.0131112996826213,-0.15075683593,0.32104492187,0.0207011262673392,0.1431787151043004,1.063393489922913,0.83529783891,1.40633983854,0.0211895558704095,0.1448579719138976,974.022619732178,973.98071952505,974.08350854556,0.0005699100047563,0.1027890205100447,0.0237566179813977,-0.0005748787292179,0.2767907010594879,0.55,0.45,0.6006624028029309,stairs up
-1.0714376698334782,-1.52819824218,0.02575683593,0.0679426123891806,0.2592375469193775,0.2670221743354347,-0.11853027343,0.77612304687,0.0536768542417306,0.2304200732876495,0.1417037300427173,-0.11926269531,0.43518066406,0.0271663581522923,0.1639239813164535,1.1540270794308694,0.56960769108,1.65070926818,0.0553512000090436,0.2339862314981043,973.9888301212048,973.9521445076,974.03021273495,0.0004312023830599,0.0780682273500588,0.0206522492875561,-5.511254705306863e-05,-0.9064693167214704,0.47,0.53,0.2252759887923035,stairs up
0.845066300353012,0.02575683593,1.13012695312,0.0751612128458835,0.2724989102081104,0.1943668227573494,-0.02429199218,0.56896972656,0.0216570921214312,0.1462742742271896,-0.2559402649622891,-0.41625976562,-0.00793457031,0.0118636609858561,0.1082622986608346,0.9474714924690362,0.56740099931,1.16187101852,0.0274216297232983,0.1645941938292318,973.945700092704,973.92585169511,973.96384797429,0.0001552234997905,0.0379962791799926,0.012383591447657,0.0003031067908185,-1.3730734918737988,0.53,0.47,0.0434089537342715,stairs up
-0.8701298154610344,-1.52478027343,0.93908691406,0.4860555224738412,0.6931584792729114,0.3167317708294253,-0.03662109375,1.02905273437,0.0914982407128893,0.3007433071518786,-0.0116415791128735,-0.2763671875,0.24499511718,0.0307827401688275,0.17443885911455,1.1645554752690803,0.43220450391,1.72299702186,0.1039297058625865,0.3205231840948903,973.962966234106,973.93526092177,973.97683557318,0.0001087871610559,0.0415746514099737,0.0103699919921554,0.0002019716642269,1.0002811626883688,0.48,0.52,-1.107670850236086,stairs up
-1.2036059570279,-1.43444824218,-0.85229492187,0.0288699274772722,0.1690598361601583,0.2079760742155,-0.30212402343,0.58874511718,0.0601227303390918,0.2439702912973236,0.0425244140626,-0.29455566406,0.30419921875,0.0240465491460226,0.154292202183268,1.2552252125346,0.85841577922,1.46264374385,0.0303516704458665,0.1733440328981875,973.9695576881558,973.95707823489,973.99971006033,9.204406232652347e-05,0.0426318254400257,0.0095458693529326,-3.9097868980466045e-06,2.291790685301783,0.48,0.52,1.3682249243894504,stairs up
-1.2213079279077272,-1.49658203125,-1.05126953125,0.0146656210769167,0.1204116534723769,0.1971921053781818,-0.22229003906,0.47717285156,0.0441185309750759,0.2088472744188377,0.1162830699547727,-0.22180175781,0.2666015625,0.0109147859838012,0.1038785556546413,1.2639620022252274,1.07412029161,1.53474162474,0.0154824318558213,0.1237194209903483,973.9736004789612,973.95437863838,974.02112274977,0.0001336646179831,0.066744111389994,0.0114954644042641,-9.24234150818104e-05,7.680121941749563,0.48,0.52,1.976798631921855,stairs up
-1.1925305025048147,-1.40161132812,-0.90649414062,0.0249619818166303,0.1570153151817052,0.1487193166461728,-0.10314941406,0.46215820312,0.0310023254306152,0.1749845155212671,0.0855908805919753,-0.18713378906,0.3076171875,0.0202902069148756,0.1415616845520371,1.225121172183827,0.93714961815,1.4592059885,0.0262879903484042,0.1611317698583468,973.9441777512176,973.9055662451,973.99437429128,0.0004652886864814,0.08880804618002,0.0214369863019512,-0.000577280148215,-0.5781897862312948,0.48,0.52,0.2329458513096024,stairs up
-1.261547612205098,-1.45983886718,-1.06579589843,0.0122640263500394,0.1101988693117495,0.0960765165414705,-0.36145019531,0.41418457031,0.0394287306545462,0.1975909270985349,0.1319113338686274,-0.17626953125,0.41650390625,0.0302918335122506,0.1731902270693316,1.298377337123431,1.11421449595,1.51073951449,0.0136647535308781,0.1163219040379186,973.8903779134512,973.85852437151,973.94162895254,0.000623910279565,0.0831045810299428,0.0248554523619743,-0.0004801442215726,-0.5536153479373058,0.49,0.51,0.5156272531369868,stairs up
-1.2056517242065592,-1.43444824218,-1.04296875,0.0095466588453714,0.0971802788621346,0.1636700373808602,-0.25378417968,0.53063964843,0.0511991015094353,0.2250523795391099,0.1568734774003226,-0.06665039062,0.39147949218,0.0159541849403413,0.1256289559163758,1.25283133004,1.07440819196,1.46687577768,0.0114047540646009,0.1062173352163641,973.8385751799768,973.79253312967,973.89415834442,0.0006078352303702,0.1016252147500154,0.0245214063152601,-0.0007743952896705,-0.3753012832227287,0.48,0.52,0.117532479975449,stairs up
-1.16763489504506,-1.33447265625,-1.01208496093,0.0083743410448417,0.0909584815704545,0.1241572736239759,-0.29345703125,0.51965332031,0.038573676715736,0.1952150957860979,0.0691638624786746,-0.09448242187,0.21655273437,0.005051189819205,0.070642282738739,1.193667242991325,1.02178642081,1.38512220755,0.0102243253464282,0.1005044312640005,973.7761753088156,973.7314051248,973.81809736275,0.0006083680213451,0.0866922379500465,0.0245160821941071,-0.0007989574906699,-0.835921972760675,0.57,0.43,-0.0765823492635722,stairs up
-1.1330328606902595,-1.39770507812,-0.78991699218,0.0274430462555187,0.1645802025074557,0.1150488915363636,-0.22644042968,0.47790527343,0.027219373382922,0.1639081298389426,0.0494368912322078,-0.22387695312,0.22082519531,0.0134420749746896,0.1151846455584289,1.1568749184194802,0.80034578159,1.41616989347,0.0286765840187428,0.1682384048000583,973.7164541128084,973.68233569948,973.75478044105,0.0004519960080547,0.0724447415700524,0.0211216933513414,-0.0005782938625814,-0.8126562005153515,0.43,0.57,0.0850335420166057,stairs up
-1.0521754844472548,-1.3466796875,-0.82678222656,0.019341800011376,0.1383913816719394,0.1193656173390196,-0.13159179687,0.33203125,0.0160341807943757,0.1260039005088751,0.0366713579944117,-0.22387695312,0.23095703125,0.0139692420862811,0.1176107509222439,1.072944985640098,0.84489142953,1.3858515916,0.0205178485377563,0.1425366379564749,973.6425596913372,973.59733832342,973.72848395331,0.0010087554208637,0.1311456298900566,0.0316048360513965,-0.0005350489598955,0.6696031406851031,0.54,0.46,0.8767455220169968,stairs up
-1.1978300361182794,-1.51049804687,-0.92712402343,0.0217545524607029,0.1466991224982981,0.1034224315334408,-0.20544433593,0.52355957031,0.0335976398494918,0.1823084608702341,0.1236401629691397,-0.11889648437,0.40600585937,0.0228401745108067,0.150314940163967,1.230987390576989,0.95753130402,1.54125292537,0.0230493601761223,0.1510017138763115,973.5967049760447,973.56461345353,973.63786532936,0.0004716893813681,0.0732518758300102,0.0216013298788799,-0.0004365975078529,-0.7219149463413168,0.44,0.56,0.0198420798162436,stairs up
-1.0590271681851686,-1.64489746093,0.14135742187,0.15511692688165,0.3916299785036318,0.3319544417112359,-0.11071777343,0.6474609375,0.0540091647275138,0.231089420311735,0.1767262662374157,-0.16442871093,0.45788574218,0.0250413290902312,0.1573529975628886,1.1924306802722473,0.53311115911,1.78795858749,0.0734349784520441,0.2694621797852259,973.5018271562354,973.41937535885,973.57917004168,0.0021132559899371,0.1597946828300109,0.0457111752267649,0.0001280161573589,-0.8605594911635923,0.54,0.46,0.1963510665272649,stairs down
-1.1905502319293748,-1.88989257812,-0.67712402343,0.1302133936263711,0.3585885193450028,0.1874176025355,-0.02795410156,0.53894042968,0.0267166147406996,0.1624273901053664,0.127391052243125,-0.0234375,0.4560546875,0.0054505768054776,0.073365145644299,1.2244320327581248,0.67943306249,1.91169749919,0.1315247774113785,0.360389674787911,973.5281403511392,973.49537384657,973.55650194161,0.0004488706965106,0.0611280950399759,0.0210537363145887,0.0006277323993416,-1.5397439035490332,0.51,0.49,-0.0228307190796347,stairs down
-1.067996754362157,-1.69189453125,0.08288574218,0.2281532563355505,0.4753067006731651,0.1283964269291176,-0.62036132812,0.61608886718,0.1007652980278311,0.3158756130965587,0.0687076344189215,-0.94567871093,0.63061523437,0.1122716914281149,0.3334231374259689,1.223499649605588,0.48559409208,1.74838408728,0.1051121556383428,0.3226168692250223,973.5896663355636,973.54299609616,973.66128778446,0.000822884695663,0.1182916883000189,0.0285450030416317,0.0005187895987855,0.8274831610057145,0.51,0.49,0.8792182460885405,stairs down
-0.8313132665468815,-1.57189941406,0.22338867187,0.3677417674268868,0.6031480372793313,-0.003377278646129,-0.58325195312,0.51489257812,0.1115441187331431,0.3321817568846615,-0.0569779590895699,-0.93395996093,0.5234375,0.129980992167184,0.3585852019954497,1.0860248878192476,0.5841003864,1.61387166725,0.1188835230270441,0.3429361537883406,973.6086562977588,973.57332277503,973.64314672225,0.000445751280666,0.0698239472200157,0.020999006075115,0.000624923824437,-1.409261227251047,0.48,0.52,0.0055815479255197,stairs down
-1.1961829775810715,-1.74780273437,-0.63952636718,0.1106549935098246,0.3306624746754872,0.2684849330321429,-0.02014160156,0.54797363281,0.0268037047315144,0.1627409383299736,0.2146519252185715,0.03063964843,0.36682128906,0.0105367174658574,0.1020356817646095,1.258386251157381,0.64026159353,1.77667730643,0.1130568473941112,0.3342318544725821,973.7054673452404,973.64314672225,973.75218902432,0.0007880680504153,0.1090423020700654,0.027904950956961,0.0010223130726855,-0.9683381443601782,0.6,0.4,-0.1135417131192408,stairs down
-0.489895469264079,-1.95825195312,1.26684570312,1.0148793171195305,1.0007625302209675,0.3171418842477632,-0.07873535156,0.66589355468,0.0472149693854104,0.2158557846994933,-0.0961801629317105,-0.53381347656,0.36608886718,0.081248363325454,0.2831595061326336,1.1568180635167105,0.55409200698,2.0059705293,0.1417631088700004,0.3740291496740882,973.7653126654586,973.73354310396,973.85395476467,0.0008390404563566,0.1204116607100331,0.0287749969652812,2.0888778310651165e-05,1.4286987823821091,0.54,0.46,1.3151511878903588,stairs down
0.6928877396981817,0.36462402343,1.015625,0.0349514029430084,0.185887675518215,-0.3661041259738636,-0.84216308593,0.5361328125,0.0902997453351819,0.2987869004248077,-0.5032723166690909,-0.84777832031,-0.21081542968,0.0323901648691235,0.1789471844254404,0.979548897792159,0.59891828043,1.45417490838,0.0644752402116264,0.2524729035508631,973.8042193192196,973.77045082358,973.85006204126,0.0005061783731484,0.0796112176800534,0.0223702111340248,0.0004379766379512,-0.3469339310098376,0.66,0.34,0.8355672998319265,stairs down
-0.9864760890120202,-1.85339355468,0.623046875,0.3243928677179343,0.5666711322137558,0.3040808475342424,0.01354980468,0.57934570312,0.0308289015336059,0.1746925828070897,0.1174489030914141,-0.21081542968,0.44506835937,0.0242113878555526,0.15481223589324,1.146155532569091,0.57006093577,1.87132294431,0.1427645410538932,0.3759288163770394,973.879519922875,973.80734784556,973.94853086635,0.0012909397457398,0.1411830207899811,0.0357477265057287,0.0011127684788535,-0.3640929476324985,0.53,0.47,-0.1366084263371758,stairs down
-1.2600783444484271,-1.6826171875,-0.72314453125,0.0862155949368485,0.291970684122561,0.2102297665012359,-0.04223632812,0.55908203125,0.0359590443626352,0.1885603621027322,0.1611465282620224,-0.033203125,0.44506835937,0.0200652955735312,0.1408539769203486,1.30674509719,0.72746057279,1.74936327249,0.09205550832259,0.3016971606899932,973.9515320451472,973.90579341394,974.06115252286,0.0012093671799359,0.1553591089199244,0.0345800344802574,0.0005825135223322,2.412455534898508,0.72,0.28,1.5900172231307426,stairs down
-1.1350700472562962,-1.48718261718,-0.77600097656,0.0305396270464039,0.1736738167189639,0.2619960455211111,-0.00561523437,0.50817871093,0.0185954123779516,0.1355206234697556,0.2280695408919752,0.06408691406,0.45483398437,0.0119798385204954,0.1087747180161901,1.1972863864107408,0.79272557744,1.56432109566,0.0332859788412556,0.1813147562413765,973.9735212134784,973.93534801818,974.01627766522,0.0002146654578487,0.0809296470399658,0.0145607440404357,0.0002235031291572,0.8202948520737818,0.43,0.57,-0.6602391047491994,stairs down
-0.4864697265588998,-1.17028808593,-0.17749023437,0.0480013681544566,0.2179939321928757,0.7328625488243997,0.23828125,0.99255371093,0.0246872492195313,0.1563341828498681,0.0742138671865,-0.45690917968,0.90368652343,0.2061758480616527,0.4517898732608293,1.0215877243096998,0.82541931542,1.25661691863,0.0118003542751494,0.1080849237053808,974.126841511887,973.77816703045,974.63044681727,0.0614700915268079,0.8522797868199632,0.2466888538453651,-0.0057029064165201,-0.8527768213991678,0.52,0.48,0.4159927604596027,stairs down
-0.3067127574544318,-0.46203613281,-0.1201171875,0.0107071449825865,0.1028857272925244,0.4825897216757954,0.2978515625,0.70190429687,0.006656326888712,0.0811214324974061,0.8417871648577272,0.68518066406,0.92578125,0.0042357257118205,0.0647116099714363,1.0273402810401135,0.94685573558,1.09668405588,0.0015140906570776,0.0386895991376105,974.139643628334,973.84409019289,974.47562453261,0.0252134188256788,0.6315343397200195,0.1578825598432574,-0.004116705091802,-0.6215479423973127,0.43,0.57,-0.3528014793157571,lift down
-0.2592563821780808,-0.32177734375,-0.1630859375,0.0018427259582363,0.0427096308192752,0.6246831103974747,0.4248046875,0.92272949218,0.0256492197266404,0.1593428275734388,0.7153936829195959,0.32775878906,0.95092773437,0.0342776992409206,0.1842049398215171,1.013984565708687,0.89513427698,1.12310905616,0.0022345626414468,0.047031811592094,973.8746102380546,973.49181849436,974.24394609736,0.0462601357677715,0.7521276029999626,0.2139926673255585,-0.0050982455871714,-1.2226675446800428,0.57,0.43,0.037840180280127,lift down
-0.3124561095469663,-0.45825195312,-0.16552734375,0.0082964135999282,0.0905714936919557,0.7657662723806742,0.66015625,0.92272949218,0.0045326778490203,0.066945865327327,0.5686775807542696,0.32275390625,0.71325683593,0.0129784368037103,0.1132811178929849,1.015163064012247,0.90671387671,1.1077685007,0.0024095785694755,0.0488109071106511,973.9868086374992,973.79632790076,974.19038461275,0.0139466459981758,0.3940567119899469,0.1174305842213001,-0.0007555572598559,-1.0739992538993175,0.4,0.6,0.0262441118057233,lift down
-0.3052420910460493,-0.47253417968,-0.11999511718,0.0132896449602577,0.1145669030278396,0.7656219859145679,0.56494140625,1.01281738281,0.0204292803909786,0.1420460032975882,0.4931203583095062,0.09448242187,0.77575683593,0.0656989277557857,0.2547308969918205,1.0090650563803705,0.94468943499,1.14497466497,0.0025268268327096,0.0499562952961208,974.0507624160588,973.67547397201,974.37350293706,0.0429383893744379,0.6980289650500708,0.2059327215425319,0.0064007926775444,-0.6993324651357185,0.38,0.62,-0.3890200720411117,lift down
-0.1558012120832353,-0.23107910156,-0.08813476562,0.0014939462081085,0.0384616650270958,0.5010830748288234,0.45263671875,0.56494140625,0.0012746284125376,0.0355264979353718,0.8318708831164706,0.73889160156,0.89855957031,0.001679436399302,0.0407795455659306,0.985587748507059,0.94468943499,1.02163592321,0.0003924725730226,0.019713568999522,974.183438814568,974.067820683,974.3232889093,0.0082623401026807,0.2554682262999677,0.0904507422210604,0.0010157931434586,-1.516814199788417,0.58,0.42,0.2505561081699332,lift down
-0.1497054561467742,-0.17163085937,-0.13330078125,6.17996610485949e-05,0.0078188968892166,0.4662547778018279,0.4560546875,0.4775390625,3.891615192321171e-05,0.0062046513743098,0.8833178448373117,0.87316894531,0.89245605468,3.0232056136075624e-05,0.0054687274812011,1.0100230950444085,0.99989224389,1.0209336045,3.896269192637743e-05,0.0062083603511514,974.2701512746676,974.17445860185,974.34769635709,0.0023076841418653,0.1732377552399384,0.0477793923557881,0.0016311354836382,-0.5353967318882358,0.52,0.48,-0.1334804075682169,lift down
-0.1560852786115663,-0.16723632812,-0.14733886718,3.736063973670263e-05,0.0060754021716347,0.4539118387579517,0.43835449218,0.46923828125,8.031589702011776e-05,0.0089077626601878,0.893070818426747,0.87768554687,0.9052734375,4.32611405169111e-05,0.0065375776826334,1.0139457890890362,1.00178084649,1.03108529018,4.7566842366895765e-05,0.0068551986025605,974.4605529868536,974.32469780128,974.58789575425,0.0051248282006921,0.2631979529700174,0.0711553461281125,0.002811041508685,-0.9778438344424218,0.4,0.6,-0.4291854235903329,lift down
-0.1542968749963953,-0.16357421875,-0.14343261718,4.218921942163802e-05,0.0064574489624604,0.4498518123148837,0.43884277343,0.46801757812,6.785235392766508e-05,0.0081892229831676,0.8921693313929069,0.88427734375,0.9052734375,3.7969479647394816e-05,0.0061260080044103,1.0110603046339537,1.00315941962,1.02826902111,4.415841200640075e-05,0.0066064318735115,974.6757573387756,974.58789575425,974.76541062684,0.0039144141542459,0.1775148725899953,0.0622004639097806,0.0023924323878753,-1.6845596126814404,0.45,0.55,-0.0713732323818426,lift down
-0.1630175781207999,-0.17370605468,-0.14929199218,5.089794745926625e-05,0.0070985187176391,0.4404772949181,0.42248535156,0.46069335937,0.0001694267732046,0.0129511584606413,0.8969555664024,0.88134765625,0.90966796875,4.7971810959706565e-05,0.0068914507072248,1.0126014020402998,1.00407774829,1.02300988065,2.8566027498331124e-05,0.0053179288471497,974.8534360551092,974.75929002985,975.00908813879,0.0049591410488505,0.2497981089400127,0.0700681785003866,0.0022938232451429,-0.5126607998142254,0.64,0.36,0.7554664771272838,lift down
-0.1555840386247777,-0.17175292968,-0.14196777343,5.14857424367078e-05,0.0071353821643872,0.4367838541614445,0.42443847656,0.44946289062,4.953956337538176e-05,0.0069992230841945,0.895925564231889,0.87915039062,0.90966796875,6.998589125865968e-05,0.0083191508127136,1.0088603112681112,0.9968287206,1.01965431406,3.956804177608353e-05,0.0062552695279628,975.088412839494,975.00908813879,975.17598652031,0.001955751759666,0.1668983815198998,0.0439775077119954,0.0016587519864987,-1.2840637483307609,0.48,0.52,-0.0690524048976437,lift down
-0.1506076388850617,-0.171875,-0.12805175781,0.000205877423254,0.0142595836780289,0.441986460741605,0.42443847656,0.45703125,3.927295314748722e-05,0.0062280094632283,0.9061369719297532,0.88623046875,0.94396972656,0.0001797801918595,0.013325189804205,1.0194866106033336,1.0006030842,1.05740178839,0.0001879600742495,0.0136249616331849,975.2974323124986,975.17598652031,975.44604738886,0.0068439881883463,0.2700608685501038,0.0822161450507669,0.0034030398676277,-1.2593627505977596,0.43,0.57,0.0511788041838509,lift down
-1.0646338369292156,-1.28479003906,-0.84643554687,0.023964087777399,0.1540426750623532,0.1268813189316666,-0.11975097656,0.51245117187,0.0245407800130125,0.1558851632790371,0.1280290192235294,-0.13464355468,0.29187011718,0.0128574848552584,0.1128336433966735,1.0970102659178431,0.87270651547,1.32433611706,0.0234950870072061,0.1525278434153562,975.5887245109752,975.55257633359,975.62280047014,0.0004015074747082,0.0702241365499958,0.0199391857134882,-0.0002797044324295,-0.6663665745397034,0.53,0.47,-0.0029209666994101,stairs up
-0.8332782048009677,-1.24829101562,-0.06787109375,0.1207912929831127,0.3456768170933182,0.4030236685109675,-0.05346679687,1.0380859375,0.1027916489730654,0.3188829917461386,0.0137125651032258,-0.14416503906,0.16320800781,0.0082807075496482,0.0905078321667411,1.0199075771683872,0.64974394715,1.37143733401,0.0466290925307541,0.2147736120640188,975.5248951645063,975.49108141299,975.6185383522,0.0007266261124406,0.127456939209992,0.0268106868326033,-0.0007106883959705,1.6231658863386669,0.58,0.42,1.317633171889678,stairs up
-0.3976295107888094,-1.318359375,0.25317382812,0.389021534838195,0.6199921984106908,0.7210373651378571,0.03771972656,1.18481445312,0.0893851899663574,0.2971886279149928,0.2714800153415477,-0.07385253906,0.54919433593,0.021798642085971,0.146762169655843,1.1029631144464287,0.73127125195,1.40364036547,0.0297829770237266,0.1715471298898473,975.4812905568326,975.45127702134,975.52614393778,0.0004956258362277,0.0748669164399871,0.0221297430769896,-0.0005572219515765,-0.5846301487379382,0.58,0.42,0.5908693744523235,stairs up
-0.53485030162,-1.37561035156,0.21435546875,0.3027252069130145,0.5467112970010277,0.4902606432931644,-0.06091308593,1.10339355468,0.1421757988701192,0.3746679933134607,0.2524877620612658,-0.09191894531,0.54528808593,0.035403980774415,0.1869647804241287,1.02228105436519,0.8197260077,1.37845458287,0.0195849467017049,0.139057671431539,975.4727224798696,975.36235554404,975.62234885455,0.0023062069154058,0.2599933105099126,0.0477180722871931,-0.0007490919384409,2.436902854513427,0.49,0.51,0.4339322792877241,stairs up
0.1299246993698039,-0.07043457031,0.33471679687,0.0151687566870507,0.1225562866041449,0.9486000210590194,0.74865722656,1.18371582031,0.0189461044921954,0.1369684575722563,0.351944268915098,0.19494628906,0.53173828125,0.0082432579497697,0.0903462323252068,1.0296077316169607,0.82849698439,1.30483232482,0.0226601163319943,0.1497930516704281,975.3656647144576,975.35189707474,975.37341466421,2.9401606479293383e-05,0.0215175894700223,0.0053956793302955,0.0001188033745431,-0.2827444331507815,0.49,0.51,-0.4139597112848259,stairs up
0.1233162257955435,-0.04516601562,0.24182128906,0.0059287765974394,0.0765789355733952,0.914459228512826,0.74877929687,1.10791015625,0.0108617988343454,0.1036519937267842,0.3773896590484781,0.22814941406,0.62573242187,0.0108057431576981,0.1033841836439364,1.0023189316413044,0.83119360976,1.29061606452,0.0167001683568636,0.1285248800340513,975.3432207686444,975.3002169836,975.37392820871,0.0006584139912149,0.0737112251100597,0.0255197436781279,-0.0008914876257192,-1.4167177092885557,0.52,0.48,-0.1914341176572579,stairs up
0.1685276261261445,0.02001953125,0.291015625,0.0060681937381756,0.0774279211282711,0.922455937026506,0.73449707031,1.15869140625,0.0198019272637124,0.1398690452773603,0.4367278685010843,0.23205566406,0.58386230468,0.013608652683482,0.1159512527426794,1.0409866478272292,0.82228580368,1.30800253195,0.025717522169383,0.1593978434756622,975.2965067665444,975.27665378189,975.30936104478,0.0001237865157343,0.0327072628899713,0.0110587120375888,-0.0004036315605896,-1.1234271982678043,0.37,0.63,-0.6099506930814566,stairs up
0.1954602693226315,-0.07238769531,0.30590820312,0.0121287401984541,0.1095493918239472,0.8579397101114735,0.53771972656,1.20922851562,0.0361282751649147,0.1890713556612948,0.4790103309996839,0.26159667968,0.73986816406,0.0201055827196281,0.1410458968094783,1.0163023167449476,0.76589395703,1.39174311403,0.0388982078609584,0.1961855067056927,975.2424143248596,975.18788858114,975.28978295466,0.0008790120539205,0.1018943735200537,0.0294916818011152,-0.0009963854078711,-0.9575180091908044,0.55,0.45,-0.1322166432413357,stairs up
0.2104390462205208,0.00744628906,0.39514160156,0.0116124352864578,0.10719828552216,0.8685124715130209,0.6171875,1.19311523437,0.0278180112899861,0.1659163654949348,0.4484494527153125,0.26904296875,0.6875,0.0165655365490541,0.1280350689329613,1.007925843096771,0.73317898084,1.39174311403,0.0396162729527286,0.197998998590408,975.1764891035218,975.1467793601,975.20955686919,0.0002811263720642,0.0627775090899831,0.0166792677403802,-0.0003992716150373,-0.8929964658284684,0.41,0.59,-0.2041607554422246,stairs up
0.5711556368062791,0.11340332031,1.20263671875,0.0618845450975354,0.2473155016650658,0.7872215093534882,0.45397949218,1.18835449218,0.0337602023566615,0.182668119452033,0.1952713367534883,-0.17736816406,0.59399414062,0.0706765310223332,0.264300417884964,1.0574238464906975,0.77486334488,1.338613468,0.0306660623181628,0.1740961808833961,975.1271461739088,975.09298644463,975.15851442689,0.0003116179422717,0.0655279822599368,0.0175497714465658,-0.0006623065435642,-0.739007419414115,0.49,0.51,-0.2822134517108713,stairs up
-0.227157399623038,-1.19018554687,1.0205078125,0.5705903024843543,0.7505782040717611,0.3922799025893671,-0.52062988281,0.9501953125,0.1664270173060421,0.4053644609495291,0.2441607125168354,-0.1591796875,0.44458007812,0.0365560067878781,0.1899822952928519,0.9962923082683546,0.5957777258,1.37387987591,0.0367465009362703,0.1904766530438797,975.0882238424472,975.05278164685,975.11749228429,0.0004056978908886,0.0647106374400436,0.0200140569237797,0.0004407319255271,-1.077244980599264,0.46,0.54,-0.2328748092317959,stairs up
-1.0373986816373,-1.3837890625,-0.77819824218,0.0297586341864608,0.1716422088083122,0.1680651855436,0.0771484375,0.29309082031,0.0029877831523521,0.0543866281435855,0.0286584472643,-0.068359375,0.31079101562,0.0057432109217179,0.0754041034195143,1.0548974414528,0.79180719776,1.40106275488,0.0308680382294867,0.1748123503851827,975.0758469378364,975.02789222613,975.12941416313,0.0007132658282674,0.1015219370000295,0.0265731663522583,-0.0005778599478861,-0.6772492663058953,0.45,0.55,-0.11114128094737,stairs up
-1.0888251848080643,-1.32214355468,-0.85437011718,0.016440361574394,0.1275287555532043,0.2215615549354839,0.01049804687,0.46801757812,0.0179561238743235,0.1332780824949261,0.1421069073396774,-0.07995605468,0.32421875,0.0124161689146164,0.1108271705042865,1.1324791310353763,0.88269759586,1.37302814866,0.01882692916641,0.1364715687161487,975.0307757835624,975.01091299063,975.06402659083,0.0002125006640796,0.0531136002000494,0.0144988175622174,-4.5145428605117024e-05,-0.3408494583629653,0.47,0.53,0.6646058547882608,stairs up
-1.1059742647021171,-1.37451171875,-0.81079101562,0.0253358058108089,0.1582331744835841,0.1526955997207059,0.01159667968,0.40515136718,0.011514052539884,0.1066704884128613,0.1306583180123529,-0.02648925781,0.30969238281,0.0106427881353344,0.1025552478576988,1.133354167082706,0.82596830019,1.41185752976,0.0263184871091272,0.1612726196507634,975.0321580619324,975.01209049385,975.05700760079,0.0002181299730943,0.0449171069400335,0.0146820890242768,9.598959082219762e-05,-1.3496089520616477,0.46,0.54,0.1047970373174676,stairs up
-1.0695022750642855,-1.25122070312,-0.85632324218,0.0121563207828858,0.1096482322712807,0.1788102034641758,0.05017089843,0.39562988281,0.0062310927152503,0.0785023513592359,0.1291289277085714,-0.05676269531,0.23413085937,0.0075692758270798,0.0865222339739171,1.0984243288969229,0.87911546548,1.2670685871,0.0117470179798242,0.1077865013355374,975.0276479172576,975.00545249404,975.0902366784,0.0005821079311343,0.0847841843599326,0.0239939813428766,-5.938088519842377e-06,1.4534009998749449,0.59,0.41,1.5377428688749366,stairs up
-1.0384916055049496,-1.25,-0.81701660156,0.0123801227822315,0.1107026243453897,0.1370824948661616,0.03894042968,0.27575683593,0.005484268975465,0.0736808816393179,0.126633769330101,0.00891113281,0.23010253906,0.0046595033051568,0.0679149292512753,1.0598403782808083,0.83034063339,1.28280552782,0.0124530788501384,0.1110283305057072,975.0325212231976,975.0066332496,975.06114329541,0.0002928628709884,0.0545100458100478,0.0170265868620341,0.0001130271058881,-1.3458024655192429,0.64,0.36,0.486740167798813,stairs up
-1.0988573096228735,-1.37658691406,-0.86059570312,0.0229946582378455,0.1507658841426621,0.1831573837075862,0.04833984375,0.4404296875,0.0123736524416434,0.1105957799896071,0.1874424726080459,0.02880859375,0.32336425781,0.0063703818511447,0.0793546411449675,1.1378067994387362,0.88142048965,1.4280210382,0.0230887066816239,0.1510738867193858,975.0297222332676,975.01127020373,975.06193228818,0.0001950139458449,0.0506620844499821,0.0138842502943996,-0.0001137865495103,0.4680956881943734,0.62,0.38,1.1689413669621045,stairs up
-1.126387023922125,-1.32604980468,-0.86059570312,0.0139245142829329,0.1172623462770395,0.1476684570285,-0.11791992187,0.47143554687,0.0234530803518485,0.1521838258404961,0.118722534177875,-0.17126464843,0.28601074218,0.0130519036149387,0.113528651977164,1.1576195754536251,0.88411520319,1.3316904622,0.0145466218013439,0.1198531978247852,975.0333212344748,975.00869696812,975.06895856209,0.0003674432585409,0.0602615939699262,0.0190486277145938,-5.192172825631924e-05,-0.9411872846408702,0.62,0.38,0.589155440104924,stairs up
-1.0762134898745457,-1.26599121093,-0.92956542968,0.0083663511161485,0.0909465719220584,0.0101027055218181,-0.3564453125,0.47143554687,0.038998667875652,0.1963555479105364,0.1545840176639772,-0.00341796875,0.46374511718,0.0150467246562065,0.1219661393533043,1.1120871991814774,0.9363069095,1.27781459751,0.0072810792055853,0.0848430295849824,975.0239871003834,974.99793865223,975.06823544844,0.0003549980346979,0.0702967962099592,0.0187340322974492,1.885957412798378e-05,-0.4025413330647631,0.6,0.4,0.6178965883302169,stairs up
-1.1137904928152524,-1.66833496093,-0.84948730468,0.0437535494686687,0.2081143782239244,0.1534645774130303,-0.28186035156,0.49841308593,0.0372125540946795,0.1919288141730802,0.1298840455310101,-0.06506347656,0.31286621093,0.0094589495214759,0.0967646866207634,1.152243596386768,0.87088658559,1.69871002562,0.0432335697109287,0.2068740365212027,975.0420664857952,974.95996194996,975.226386699,0.0034048692404789,0.2664247490400839,0.0580558060997195,0.0004280068795261,4.610429298598966,0.69,0.31,2.037961666851752,stairs up
-1.191514604542921,-1.51696777343,-0.92846679687,0.0168168874757304,0.1289493454185334,0.1966031535264045,-0.11389160156,0.70764160156,0.0520514266343372,0.2268624674644612,0.1664188685007865,-0.15283203125,0.38500976562,0.0264349398296437,0.1616722549907838,1.2509730291713483,1.00646804615,1.55218957904,0.0155284810733251,0.1239112737320317,974.9913798115468,974.94388073612,975.04687124402,0.000472314948605,0.1029905079000172,0.021610368786074,1.1944572661716747e-05,1.4010951273052523,0.4,0.6,0.8257568174721783,stairs up
-1.123748779292875,-1.30114746093,-0.96472167968,0.0107705293200925,0.1031304887198321,0.1408554077111249,-0.14599609375,0.40539550781,0.0213715388779105,0.145273516657155,0.11287384033125,-0.2587890625,0.42260742187,0.02999135510117,0.1720943437838834,1.159510713018875,0.99235801282,1.36504033009,0.0124392208381934,0.1108319925730656,974.9378891811136,974.90526107677,974.98773623316,0.0005697999758083,0.0824751563900463,0.0237208236811194,-0.0004927862625767,-0.3998871786081208,0.55,0.45,0.6815768834439724,stairs up
-1.074657963767647,-1.431640625,-0.85375976562,0.0247808170378425,0.1566456761331029,0.032439587162647,-0.47497558593,0.30676269531,0.034808388642367,0.1856532518707575,0.1065973020030392,-0.2587890625,0.25866699218,0.0092118932573147,0.095506966124579,1.1008371449822552,0.87946174021,1.44188010431,0.0238227658140479,0.153587790160739,974.8982171260702,974.87513238596,974.97262198,0.0003721012597488,0.0974895940399847,0.0191951350133997,-0.0002717793675747,3.4544991117223978,0.65,0.35,1.884353455079433,stairs up
-1.078373078372473,-1.29357910156,-0.82397460937,0.0228084524855885,0.150210519965561,0.1259253717206452,-0.00341796875,0.30676269531,0.008170030791503,0.0899009510408315,0.0922641549031182,-0.08654785156,0.22399902343,0.008808054555485,0.0933452960327813,1.097054712861828,0.84538372254,1.32829002589,0.0233390093587951,0.1519475313024715,974.85422753003,974.81061637381,974.89327525394,0.0007776141017298,0.0826588801299976,0.0277354044458656,-0.000794875998744,-1.3135749704165511,0.38,0.62,-0.4585109713123701,stairs up
-1.040269966579277,-1.39013671875,-0.78527832031,0.0333776172385171,0.1815915121138321,0.16465961502,-0.02209472656,0.36145019531,0.0145362401196587,0.119837826651397,0.080095773716747,-0.16528320312,0.1982421875,0.008615059144313,0.0922565079059906,1.067243589696265,0.80824119142,1.39565591847,0.0329253819758096,0.1803571197006192,974.7958254265776,974.75829513133,974.88429904825,0.0010681708784327,0.1260039169200126,0.0324854021027441,-0.0009430610843068,2.041821158351368,0.7,0.3,1.6987597857683534,stairs up
-1.055297851557922,-1.34020996093,-0.79992675781,0.0211620534721019,0.1445241212006767,0.1222240893838961,-0.02160644531,0.24609375,0.0049646878723444,0.0700015100299261,0.0565042867274025,-0.12048339843,0.24645996093,0.0119183635917059,0.1084600371056386,1.0719102889216885,0.80717501361,1.34827307807,0.0206120521067829,0.1426336675486653,974.742871918114,974.69262112362,974.78673599408,0.000508773175016,0.0941148704599754,0.0224090546695907,-0.0005751331115135,-0.257550602969423,0.58,0.42,-0.3569655468743636,stairs up
-1.0126991271933334,-1.31518554687,-0.79577636718,0.0211476270943971,0.1446628470346268,0.0823771158820833,-0.02465820312,0.20849609375,0.003162726812252,0.0559444522834135,0.0612564086902083,-0.18981933593,0.21997070312,0.0126471878071204,0.1118724553563699,1.0262330832465625,0.81431524449,1.32029977487,0.0197215176915625,0.1396999828761936,974.6812536836755,974.64167003444,974.73519470618,0.0007987643628001,0.0935246717399422,0.028114834174999,-0.0006967913331444,-0.6549379625988063,0.5,0.5,0.5794835905210111,stairs up
-1.0386436060818949,-1.36596679687,-0.77001953125,0.0261086154657501,0.1607289268754437,0.0770739103585263,-0.13818359375,0.18957519531,0.0065493803371858,0.0805011769574287,0.0830039576469473,-0.08752441406,0.32690429687,0.0145623685359204,0.1200378292292417,1.0552557147361048,0.77232080821,1.37145752713,0.0250327723510457,0.1573825577508277,974.6329949443774,974.58993536396,974.66560963443,0.0005174955819551,0.0756742704700172,0.022628483379135,-0.0005628606131167,-1.073737865314371,0.53,0.47,-0.1603827005908263,stairs up
-1.0475151594268604,-1.30920410156,-0.77001953125,0.0267045276779669,0.1624623338323983,0.1093409338637209,-0.04345703125,0.26452636718,0.0078297540195333,0.0879699401394785,0.0146612123017441,-0.21704101562,0.25439453125,0.0132675125413152,0.114513052267731,1.0625287741980232,0.77232080821,1.33776305766,0.0280632808307433,0.1665441791591084,974.5900777328555,974.56453395741,974.61416699291,0.000275985822789,0.0496330354999372,0.0165159524495189,-0.0003137411034476,-1.3445745122242427,0.53,0.47,0.0042968623824446,stairs up
-1.0413818359339284,-1.29931640625,-0.86962890625,0.0139830651052281,0.1175440344911284,0.100362141925119,-0.16552734375,0.27368164062,0.0108888952962915,0.103726879787176,-0.0088922409773809,-0.20715332031,0.265625,0.0219031541793248,0.14711356954359,1.062015574884405,0.88513092684,1.32329656622,0.0131251987423737,0.1138812819404186,974.5453692444396,974.51033099665,974.59918575856,0.0006148903710721,0.0888547619099426,0.0246489400909456,-0.0009032180362938,-0.2973274821190492,0.54,0.46,0.5536106450325411,stairs up
-1.0555190284626732,-1.37585449218,-0.80908203125,0.0330217897033492,0.1808171487731316,0.1077131516826732,-0.03442382812,0.224609375,0.0037911769658542,0.0612669614086726,-0.0111156501389108,-0.13500976562,0.16137695312,0.0071233865083383,0.0839812951141374,1.0662871843350497,0.82147284593,1.37692959271,0.0327028712747295,0.1799418808116366,974.4993816083388,974.47352259882,974.52104221339,0.0001590374773559,0.047519614570092,0.0125484201741608,-0.0002434547820934,-0.6798581512123096,0.44,0.56,-0.4335253679215016,stairs up
-1.0756460336499998,-1.28015136718,-0.81103515625,0.017084172928353,0.1299862868317469,0.1639176253396703,-0.02026367187,0.38427734375,0.0104726787780226,0.1017722673219311,0.0944354717521978,-0.05737304687,0.23779296875,0.006165879888215,0.0780904793580275,1.101685199038022,0.82288267673,1.31551941903,0.0172439836712051,0.130592838031601,974.4637225567302,974.438919022,974.55957218064,0.0005564879132157,0.1206531586399251,0.0234600226219447,-0.0002159036543839,9.59439212928552,0.69,0.31,3.0168612600224862,stairs up
-1.0452895745967072,-1.28991699218,-0.84899902343,0.0138505997091932,0.1169687563268161,0.1239847322746341,0.05749511718,0.24206542968,0.003354446342646,0.0575633430267789,0.1022845012352438,-0.01184082031,0.23779296875,0.0050460031007581,0.0706007540864697,1.0616893788558537,0.8570556119,1.30020263335,0.0134236890326193,0.1151520104376441,974.4584623270432,974.44176950196,974.49491189372,0.000202808093315,0.053142391759934,0.0141539684853527,-1.5750923800382447e-05,1.194523555156897,0.6,0.4,1.35080864818825,stairs up
-1.0787176834872367,-1.29113769531,-0.90686035156,0.0121175093269801,0.1093529533884796,0.1687461451438157,0.03588867187,0.38842773437,0.0102100049821734,0.1003776011436584,0.1345038162993421,-0.01245117187,0.25732421875,0.0060310195698263,0.0771470287773336,1.106657395396185,0.92690943933,1.327623396,0.013841935238404,0.1168751663595948,974.4579329641876,974.44162081841,974.48052583663,0.0001350123996243,0.0389050182200207,0.0115427865215455,-7.288052766625155e-05,-0.8523242434468439,0.63,0.37,0.6760424611908227,stairs up
-1.1299185704665655,-1.42199707031,-0.84130859375,0.0222882315976961,0.1485365205772446,0.1627295908273737,-0.13427734375,0.34558105468,0.0184887929460467,0.1352850230503851,0.2205896859186868,-0.02478027343,0.55456542968,0.0324692468408128,0.1792798779855163,1.1829843659894952,0.86040941751,1.52669459155,0.0251652999826266,0.1578325221027251,974.4553076249512,974.43965764236,974.51352552556,0.0002622283721104,0.0738678832000232,0.0161114741931015,0.0001005280795768,4.389071027240642,0.63,0.37,1.990224165958904,stairs up
-1.138744597735638,-1.37353515625,-0.87194824218,0.0195261949235153,0.1389908969882763,0.1548046355515957,-0.05688476562,0.42541503906,0.0172871409890361,0.1307793379469158,0.1542475274239362,-0.18530273437,0.31469726562,0.0218703949696766,0.1470976926855192,1.1749365578301063,0.8916294223,1.41715274797,0.022316969288094,0.1485919066477021,974.4485117569742,974.43689204324,974.46472517016,5.535412207171861e-05,0.0278331269199725,0.0074003546153314,0.0001370672868261,-0.5363533975403709,0.57,0.43,0.5004161828149527,stairs up
-1.1251838235255294,-1.39794921875,-0.80090332031,0.026168680838293,0.1608129783472135,0.1972053079025882,-0.04174804687,0.44775390625,0.0243224542842538,0.1550364723646106,0.125745346965647,-0.11096191406,0.34826660156,0.0180450624729917,0.1335393860266262,1.1680638795625882,0.8322697508,1.39881338363,0.0243839956589249,0.1552324873271092,974.451559836316,974.42907630612,974.49091293163,0.0002793606312157,0.0618366255099545,0.016615475784773,-0.0002452790521149,0.2831915929683544,0.49,0.51,0.6595561674803948,stairs up
-1.0224595013749411,-1.37280273437,-0.84204101562,0.0256811481480903,0.1593079313575031,0.1029512293168235,-0.03442382812,0.24633789062,0.0034506959490819,0.0583960574538348,0.0929285386012941,-0.14196777343,0.30786132812,0.014447429842097,0.1194883261212109,1.040635742001529,0.87241575398,1.37504273044,0.0229377959602225,0.1505587577564358,974.407310853633,974.38108693446,974.45452811285,0.0004926705724156,0.0734411783899986,0.0220652316560293,-0.0006721261429386,-0.6313753105092959,0.51,0.49,0.6756919500606376,stairs up
-1.0951765471769606,-1.35559082031,-0.9033203125,0.014146479928923,0.1183545054031647,0.0757889093113725,-0.09313964843,0.20617675781,0.0067472717660964,0.0817381308992284,0.0449553844961764,-0.17236328125,0.26452636718,0.0185514081097746,0.135534244970335,1.1104873980934316,0.9064447917,1.36415260799,0.0131820316897674,0.1142488340639231,974.3829956236845,974.33352944344,974.46479730542,0.0009194458432834,0.1312678619799498,0.0301733602429238,-0.000543427826885,1.7880506576586417,0.59,0.41,1.4033874534120772,stairs up
-1.083852810326,-1.35852050781,-0.80871582031,0.0276877023620953,0.1654692153384996,0.1361070420964444,-0.10595703125,0.31433105468,0.0099011544073705,0.0989501974764173,0.0941609700501111,-0.13989257812,0.38732910156,0.0184948429125887,0.1352381035729368,1.1102875272855557,0.89698642809,1.3763021134,0.0251297027779521,0.1576403624018834,974.3332645754168,974.29158419776,974.39365001908,0.0006985091179029,0.1020658213200249,0.026282083355051,-0.0004956355648929,0.1617279890073581,0.43,0.57,0.4528575761046038,stairs up
-1.0629626615514816,-1.34887695312,-0.87414550781,0.0195641032293558,0.1390056512905924,0.1056284963309876,-0.0478515625,0.29943847656,0.0093223916894182,0.0959546790625308,0.0804548852220987,-0.17858886718,0.20092773437,0.0115858495964721,0.1069710914979778,1.0806333837820987,0.89370074303,1.38041324234,0.0199707154843603,0.1404427407926219,974.279396451744,974.24744109722,974.33826160048,0.0005515142413675,0.0908205032600335,0.0233389250732104,-0.0006468316950248,-0.1362020904216963,0.54,0.46,0.6347299956888157,stairs up
-1.0432578638940788,-1.32104492187,-0.86999511718,0.0189552878708298,0.1367694270965515,0.1109442459885526,-0.03601074218,0.21801757812,0.0056649481071953,0.0747690398247242,0.0818658126014473,-0.11145019531,0.21411132812,0.0100678323517827,0.099676280395437,1.0608742289592104,0.88443295117,1.3214664326,0.0163907925978239,0.1271814619910006,974.2284179585112,974.17890274752,974.28444325509,0.0008074255831767,0.1055405075699127,0.0282276736970214,-0.0008666629621035,-0.7165251247161257,0.59,0.41,0.4052454062575999,stairs up
-1.072121478138085,-1.33081054687,-0.87145996093,0.017538159432898,0.131725408591958,0.0830169028404255,-0.23352050781,0.24206542968,0.0173087056724517,0.1308608822594571,0.0938902509947872,-0.16052246093,0.24438476562,0.0141725850860118,0.1184137361299177,1.094318862946702,0.88443295117,1.3370519585,0.0162891307760389,0.1269481868746534,974.175151809316,974.13081925037,974.22174532328,0.0004801853947307,0.0909260729099514,0.0217962620526467,-0.0004867399317677,-0.1267502438417258,0.48,0.52,0.1333408008951565,stairs up
-1.0326258341439585,-1.43725585937,-0.83117675781,0.0261544683979813,0.1608789172602667,0.1029370625780208,-0.01110839843,0.22619628906,0.0040812433533447,0.0635510063000377,0.0982831319140625,-0.12072753906,0.24450683593,0.0119501507965264,0.1087458967458665,1.0513499767220835,0.87142672824,1.44243870693,0.0232232883929226,0.1515961052891191,974.1238741014458,974.08593118617,974.19523999437,0.0008797134305475,0.1093088082000122,0.0295050800537691,-0.0005822909246817,0.3584698305389588,0.58,0.42,1.001384792439504,stairs up
-1.0479147023126436,-1.23754882812,-0.84826660156,0.0124080738570148,0.1107495025651513,0.0839015916820689,-0.06372070312,0.18017578125,0.0035366313727244,0.0591268165674914,0.0086333176183908,-0.16748046875,0.18676757812,0.0103769329009717,0.1012800958241842,1.0581010316447133,0.86110279483,1.23843113927,0.0118163521220642,0.1080765098563519,974.0900499920036,974.05796294497,974.12368386526,0.0003738622161133,0.0657209202900048,0.0192240721300515,-0.0003469433758036,-0.955636593675742,0.54,0.46,0.1156983478858727,stairs up
-1.034172058102375,-1.42077636718,-0.77966308593,0.0250232662368655,0.1571956596376144,0.08279266357175,-0.02221679687,0.23254394531,0.0044428616547943,0.0662368921682576,0.0188644409165,-0.17944335937,0.20739746093,0.0131969693121282,0.1141578170592214,1.046224863451,0.79072145243,1.42579425649,0.0245728421426232,0.1557744575206102,974.0541727617508,973.99626281744,974.1284779574,0.0013531075560447,0.132215139960067,0.0365539835256601,-0.0007522821634477,-0.8108794252878591,0.54,0.46,0.3029581800968114,stairs up
-1.1014309484941749,-1.28234863281,-0.84631347656,0.0145981950763593,0.1202350407621434,0.1848974135279611,-0.07641601562,0.3837890625,0.0191077646125102,0.1375581780001425,0.0267274726936893,-0.24938964843,0.3623046875,0.0339697127177674,0.1834118580726793,1.140051765737767,0.85289077233,1.33584122004,0.0155026553280991,0.1239037695605806,974.0310816049667,974.00878771701,974.07835406953,0.0003755362646658,0.0695663525199279,0.0192844569929699,-7.691651954212234e-05,0.3403237431504893,0.63,0.37,1.1387458436240276,stairs up
-1.0434066109001083,-1.28723144531,-0.85217285156,0.0149414864059836,0.1215692351915115,0.1801943571630435,-0.02941894531,0.35974121093,0.0107334937153049,0.1030379799169025,0.0426728621754347,-0.1474609375,0.13317871093,0.0044219239178473,0.0661351610524685,1.0669020940066305,0.85458240141,1.30449051997,0.014637119899487,0.1203246473925637,974.0347678356048,974.02364563527,974.06078501783,0.0001110684317612,0.0371393825599852,0.0104814677502088,0.0001516820782478,0.4508333500520316,0.71,0.29,1.0938870307090196,stairs up
-1.069834513833012,-1.30541992187,-0.87585449218,0.0180889143468479,0.133682368395303,0.1394910697444578,0.00048828125,0.33947753906,0.0074531957616804,0.0858102454394759,0.098647519762771,-0.05590820312,0.20690917968,0.0052763330488719,0.0721994651723593,1.089443706832048,0.88792937563,1.31185030183,0.0175054337785766,0.1315086496694072,974.0374954435785,974.01584654478,974.09579900319,0.000384290141217,0.0799524584100481,0.0194848695021455,-1.664668748680323e-05,3.941406057523537,0.77,0.23,2.123304868604626,stairs up
-1.0586666751196103,-1.21887207031,-0.91650390625,0.0105718665449597,0.1021497409533835,0.1035695261738961,-0.11608886718,0.29479980468,0.0118124647721062,0.1079771093274046,0.0698860465698701,-0.126953125,0.28271484375,0.0147525321583731,0.1206687235021612,1.0777807691996104,0.93157486113,1.2509907968,0.0115793971335957,0.1069065730095207,974.0330256417316,974.0110859542,974.06124564588,0.0002560745637806,0.0501596916800508,0.0158980791322465,-0.0003484625505712,-0.9975521707455792,0.6,0.4,0.4632953482118884,stairs up
-1.071546766489506,-1.19604492187,-0.87829589843,0.0084990665315914,0.0916195382235025,0.1531017915671605,-0.11535644531,0.36596679687,0.0144263758195488,0.1193661275838721,0.1188799069229629,-0.11547851562,0.24291992187,0.0082185271203268,0.0900947491396976,1.0987635776661726,0.90081414711,1.23775483623,0.0093789292907249,0.0962452078818588,974.0122741687096,973.9989464558,974.04658581605,0.0001783597431231,0.0476393602499456,0.0132724440471928,-0.0002436793713631,0.7079689908885696,0.69,0.31,1.25502484243561,stairs up
-0.9283773592158416,-1.5927734375,-0.33557128906,0.103078052071372,0.3194643599814979,0.2871154180812871,0.013671875,0.73376464843,0.0528645498682123,0.2287818578545479,0.0009415126069306,-0.51501464843,0.57531738281,0.0859118113905894,0.291652531956476,1.0593741049259409,0.53684523589,1.70473223277,0.0621220617613017,0.2480060318679226,974.1745508758128,973.8655391854,974.66009341909,0.055038810328219,0.7945542336899507,0.2334392246647895,0.004971413470117,-0.3886798309797767,0.64,0.36,0.891605414147172,stairs up
-0.4357191297703333,-0.87268066406,-0.27453613281,0.0204763345150324,0.1422983474503047,0.8521253797711111,0.41052246093,1.17883300781,0.0309405905124035,0.1749194276613574,-0.1056599934873333,-0.48400878906,0.18908691406,0.0253959703471863,0.1584733192019535,0.992277768832,0.6411403932,1.2359608531,0.0186847132894673,0.1359305166768257,973.8881061266924,973.71143663913,974.08483037729,0.0143909830180431,0.3733937381599617,0.1192941038221568,0.0018280408787065,-1.440360179868141,0.52,0.48,0.2365472789652479,stairs up
-1.1219173569231329,-1.33605957031,-0.82409667968,0.0243118659184097,0.154980488679059,0.1962405285178313,-0.1240234375,0.61328125,0.029810045891673,0.1716126123344531,0.084777096666265,-0.17065429687,0.23425292968,0.0120653438755911,0.1091786530725152,1.1593622101666266,0.84393790589,1.36963588556,0.0259781309558148,0.1602034376230007,973.9191491197644,973.77986163436,974.0523173298,0.0041819492598347,0.2724556954399304,0.0642772458105773,0.002225446080282,0.1559297319251662,0.42,0.58,-0.3582694909480833,stairs up
-1.0900248865898925,-1.453125,-0.81591796875,0.0336433459923451,0.1824324247052187,0.2005602108491398,0.03149414062,0.33837890625,0.0081106124672541,0.0895734423839427,0.0725412676393548,-0.30004882812,0.24487304687,0.0188354120632447,0.1365023104227059,1.1230833535160216,0.84529475688,1.48694501549,0.0326132198226258,0.1796177609246559,973.9641480467716,973.91715864276,974.07022546541,0.0020707161809153,0.1530668226499756,0.0452598101578997,-0.0006136642013511,0.0363107802519491,0.73,0.27,1.2114399630516304,stairs up
-0.9899411545546392,-1.15051269531,-0.80444335937,0.0067966240954705,0.0820155827012557,0.1049062197938144,-0.19372558593,0.29345703125,0.0083681293934334,0.0910047252522823,0.1679372885748453,0.08361816406,0.23559570312,0.00192157405071,0.0436092193114041,1.0148224330715463,0.83158708635,1.16524953931,0.0063023188541593,0.0789768731644783,973.9338969321318,973.92024069068,973.98043247149,0.0002313462154814,0.0601917808099869,0.0151314640055315,5.975650167058535e-06,4.482123109317468,0.71,0.29,2.28155123774807,stairs up
-1.0255779887319765,-1.32348632812,-0.81909179687,0.0249935850315524,0.1571717593901341,0.142793877177093,0.04016113281,0.27551269531,0.0029602842030775,0.0540912404529556,0.0705921261788372,-0.26550292968,0.23413085937,0.01939632993016,0.1384586263475191,1.0485541549265116,0.84136262212,1.33543176726,0.0248057896624845,0.156580171949722,973.9232002702104,973.89821880604,973.99432105396,0.0006277524725815,0.0961022479200437,0.0249088945002768,-0.0005885881923889,1.0658351318028352,0.63,0.37,1.2748743746964837,stairs up
-1.0436192765983543,-1.37438964843,-0.76086425781,0.030666717245241,0.1740072726957052,0.1111195238303797,-0.18054199218,0.4306640625,0.0158858120251834,0.1252386753244244,0.0569403926017721,-0.154296875,0.21899414062,0.0098275056236812,0.0985043492355447,1.0625148254578478,0.78004482773,1.39485693582,0.0318628883208312,0.1773684318602597,973.8850969887768,973.82241844193,974.01622767541,0.0024329531535889,0.1938092334800103,0.0490117973372441,-0.0007955337708047,1.4305779672232184,0.66,0.34,1.259306782033638,stairs up
-1.0859921103997368,-1.50146484375,-0.76965332031,0.0381854619166966,0.1941211519343501,0.1670002184377631,-0.01892089843,0.41137695312,0.0190365136999422,0.1370621510721394,0.1204143323365789,-0.08813476562,0.36633300781,0.0120980860133519,0.1092652766027296,1.117241707385658,0.77050202999,1.50425282733,0.0425057573535922,0.2048083764708463,973.8156482075846,973.76548756017,973.87982688499,0.0009948557554423,0.1143393248200936,0.0313331381788331,-0.0009576754945194,-0.5627157841126307,0.51,0.49,0.236622739644722,stairs up
-1.1167191485919388,-1.44421386718,-0.82214355468,0.0402941011563618,0.1997071277116767,0.1563546316942857,-0.11083984375,0.36682128906,0.0111840671483756,0.1052138014435773,0.0368664799885714,-0.20129394531,0.18908691406,0.0119147769239781,0.1085964896652329,1.1382672416474489,0.85246070248,1.452905264,0.0403733025410516,0.1999033017889972,973.7665399044432,973.72545224537,973.8569489411,0.0015919909296569,0.131496695729993,0.0396956688349277,-0.0001361538462176,-0.2310313417968879,0.69,0.31,1.0152380538495795,stairs up
-1.0231175472825262,-1.44018554687,-0.7001953125,0.0460407420607413,0.2134387562525332,0.1102269222835789,-0.05932617187,0.32434082031,0.0064380447845343,0.0798140081192869,0.0546900698993684,-0.12670898437,0.17980957031,0.007659129315806,0.0870546202217636,1.0377518853922103,0.70112482194,1.44389803982,0.0449596631392855,0.210918001904278,973.7115702490704,973.66030640527,973.8569489411,0.0022601643150645,0.1966425358299375,0.0472903067419543,-0.0004029711059652,0.5373915260904814,0.66,0.34,1.2451568138471767,stairs up
-1.0694953469632942,-1.42041015625,-0.83251953125,0.025287709428886,0.1580829116793361,0.172661994481647,0.0439453125,0.37292480468,0.008741755750101,0.0929457452754331,0.0451573988952941,-0.34814453125,0.21569824218,0.0204055673970003,0.1420052882755148,1.097908267951882,0.87577747817,1.43994137003,0.0243501804897938,0.1551248135475081,973.6701631824794,973.62410974479,973.75818825483,0.0007896424259492,0.1340785100400126,0.0279347904065122,-0.0003591933799256,1.3510295127029115,0.55,0.45,0.8403803132893158,stairs up
-1.129535054047209,-1.92016601562,-0.74499511718,0.0658740736163012,0.2551628813446653,0.1376073083180232,-0.00830078125,0.37353515625,0.0109617361780235,0.1040878193135099,0.084110703577093,-0.11279296875,0.31030273437,0.0137665157619969,0.1166466458897235,1.1513188331440698,0.76619453072,1.93045119953,0.0666485579041875,0.2566584786691129,973.6467389669044,973.59348276775,973.79408635137,0.0023873485792938,0.2006035836200226,0.0485755979077224,-0.0002650188877095,4.075902039448023,0.78,0.22,2.166165519711833,stairs up
-0.4444012028145544,-1.11901855468,0.15405273437,0.2533756612393347,0.5008662409526858,0.7318381130069305,0.10388183593,1.43017578125,0.1065090705765346,0.3247376253582293,0.0820578395732673,-0.298828125,0.4912109375,0.0470367686747809,0.215803285641907,1.0500260510264356,0.77140889824,1.43720831192,0.0405523167444947,0.2003766669498113,973.6153450996242,973.47626093955,973.81401556042,0.0052815267037386,0.3377546208699868,0.0723134452238121,-0.0005849336718899,1.0473733571362542,0.51,0.49,0.1100356710388274,stairs up
0.0840364949065168,-0.07775878906,0.212890625,0.0105677795294774,0.1022205480010774,0.95355293187809,0.73083496093,1.24206542968,0.0241965296331528,0.1546759791101359,-0.2097812609705618,-0.61560058593,0.0869140625,0.0415799580812722,0.2027628356998225,1.0073011397711231,0.75718930762,1.25563183706,0.0214048884912162,0.1454798409613731,973.5433111683748,973.46923801563,973.60681778146,0.0017629107728672,0.1375797658299689,0.0417504824721257,0.0001109055820412,-1.2304774116274568,0.49,0.51,-0.1355156685709866,stairs up
0.1366207923390123,-0.03515625,0.33630371093,0.0127559372853268,0.11224284644511,0.935543860915185,0.62768554687,1.2412109375,0.0231431927441018,0.1511868853940789,-0.1709541980124691,-0.70593261718,0.220703125,0.0686887584796881,0.2604625675903187,1.006477737671852,0.81347709371,1.24817068235,0.0136000397159643,0.1158971008743356,973.5081865388696,973.42048263289,973.73297706383,0.0071812938076406,0.3124944309400916,0.0842177882599524,-0.0014226783434446,1.705923021184499,0.64,0.36,1.4999238276572664,stairs up
0.1752496016619737,0.01953125,0.34045410156,0.0074169503464709,0.085553251805783,0.926956979849342,0.73046875,1.08984375,0.0097870563834201,0.0982765451455408,-0.2815037777531579,-0.77526855468,0.12622070312,0.066751454973306,0.2566576442563832,1.0212133751985524,0.88439716473,1.22530140404,0.0093024700754723,0.0958126774149781,973.5291187314364,973.50832847054,973.58777090432,0.0003701022102183,0.0794424337799455,0.0191110555515489,0.0001489559679228,2.4149913651170394,0.63,0.37,1.6793212473485846,stairs up
-0.0222067292207216,-0.37780761718,0.28039550781,0.0419543809773315,0.2037691379620884,0.8779108106438145,0.39709472656,1.2470703125,0.0593674401256637,0.2423951415776536,-0.3873806982882474,-0.89453125,-0.06591796875,0.0509393851071563,0.2245311488570852,1.0246044630574227,0.75366189188,1.26990559854,0.0223923823156244,0.1488675015354308,973.5610075556876,973.50594645194,973.7164668581,0.0027392454496255,0.2105204061600716,0.0520673199407743,0.0013241771649343,1.128980567267834,0.67,0.33,1.300873071663774,stairs up
-0.4721050061631576,-0.701171875,-0.20544433593,0.0159181926680741,0.1255015248722193,0.3391974198154736,0.0732421875,0.71801757812,0.0398301922492131,0.1985218553903889,-0.891091437083684,-1.41430664062,-0.49951171875,0.0438384150499312,0.2082713567666126,1.0975695529005267,0.85890970638,1.49191136826,0.0261366931976463,0.1608153292175695,973.5240593856736,973.38589292118,974.02269378655,0.0272277686402799,0.6368008653699917,0.164137626854203,-0.0021101944314496,4.279730692771876,0.75,0.25,2.2624783461467137,stairs up
-0.4333496093723256,-0.72924804687,0.07165527343,0.0448806650492412,0.2106152816179163,0.1052785474194185,-0.20422363281,0.70727539062,0.0499265192544266,0.2221395469808641,-0.8185779660211627,-1.01721191406,-0.38403320312,0.0247066252781113,0.1562668836883494,0.9862442504362792,0.75226004145,1.19072786622,0.0145610500833383,0.1199655598390035,973.5303967086882,973.45964065811,973.62754527724,0.0017987948165079,0.1679046191300131,0.0421648976959669,-0.0004678597653552,0.1887015581903255,0.57,0.43,0.7284358135871939,stairs up
0.1101960681704761,-0.00866699218,0.2431640625,0.0057961134130612,0.0756776853696366,0.7585449218713095,0.39184570312,1.05053710937,0.0210620771689944,0.1442613536435794,-0.6354762486000001,-0.98425292968,-0.29418945312,0.0358658749510562,0.1882522250844805,1.0177367982765475,0.78234874709,1.23899752,0.0158715267156279,0.1252301080771445,973.526299345077,973.49353721286,973.582386435,0.0005635282862913,0.0888492221399701,0.0235970255798575,0.0002440471861501,-0.5542150811285826,0.56,0.44,0.6325304136352444,stairs up
0.2647475440877228,-0.02319335937,0.43518066406,0.0206304290032632,0.1429201431917966,0.9633994527343565,0.63562011718,1.40734863281,0.0439424959032073,0.2085843275184978,-0.2148884688253465,-0.59521484375,0.04248046875,0.0437430160404947,0.2081103478248425,1.05102619321,0.71168024438,1.4730962708,0.0474642114249226,0.2167816153126163,973.5090498120647,973.47117485099,973.54560653984,0.0003613950163773,0.0744316888500407,0.0189160473645617,-0.0005808106849386,-0.9339393466378864,0.46,0.54,-0.0690347128488017,stairs up
-0.2659496265451648,-1.537109375,0.61450195312,0.6257192900451026,0.786665909958453,0.5429003369638461,0.09729003906,0.83679199218,0.0546545019442212,0.232494952680176,-0.0547143286385714,-0.35266113281,0.39733886718,0.054784056145804,0.2327703450845817,1.022784522317912,0.60955340879,1.61254267839,0.0500041449646332,0.2223840121639161,973.4849695816318,973.46502245174,973.59650012477,0.0004939892081413,0.1314776730300764,0.0221034104903432,0.0003337271048975,18.43729330626745,0.78,0.22,4.2254826208980525,stairs up
-1.2049334490707406,-1.7587890625,-0.76013183593,0.0881699808362049,0.2950956837269506,0.2100091628050617,-0.04455566406,0.76831054687,0.0374797756517434,0.19239818702912,0.1230966073480247,-0.10583496093,0.42895507812,0.0203420742511309,0.1417425043237955,1.2492205892501234,0.76337653495,1.78900365024,0.0959431045145589,0.3078288838669534,973.4927672415242,973.46302194532,973.58086990891,0.0004815806917289,0.1178479635900657,0.0218090635078704,-0.0002045100924741,7.244295054574204,0.56,0.44,2.199478766739518,stairs up
0.6027072482608888,-1.24780273437,1.18420410156,0.3270456970307969,0.5686931122782102,0.0846015082467777,-0.39086914062,0.83361816406,0.1740532532010682,0.4148726650015651,-0.2767483181388889,-0.52770996093,0.50244140625,0.0681989215817082,0.2596943507016583,0.9826729195473334,0.7440635461,1.58252275626,0.0448274295398994,0.2105453561336751,973.4132943108992,973.3585387224,973.47842590441,0.0020543167386431,0.1198871820099611,0.0450720644868044,-0.0014321324340851,-1.6711356579317471,0.59,0.41,0.2418059500672439,stairs up
-0.3741140463903092,-1.32067871093,0.77978515625,0.5628006182796297,0.7463233548871044,0.2799437218076288,-0.01733398437,0.78002929687,0.0662257730849124,0.2560137362646816,-0.0061878322332989,-0.58056640625,0.45910644531,0.1046437156559398,0.3218150314444783,0.9529728076177318,0.71347361725,1.34691925905,0.0366957284453093,0.1905713041527809,973.3494321017628,973.29618501641,973.45054095738,0.0008472777243239,0.1543559409699355,0.0289576052605136,0.0002585562217818,3.125379753737468,0.47,0.53,0.6338465967700179,stairs up
-1.090249736654382,-1.41162109375,-0.8447265625,0.0279391640882673,0.1662084260687898,0.1442980819838202,-0.03002929687,0.32104492187,0.0073995084383707,0.0855357696763137,0.0771840984873033,-0.232421875,0.23156738281,0.0140619231220918,0.1179149014581642,1.1128045983053934,0.87796860588,1.42720978123,0.0262299875220386,0.1610443062052081,973.3457785969048,973.28848429346,973.45054095738,0.0016114522640049,0.1620566639199978,0.0399167390801326,-0.0007478211124635,0.5299996685961497,0.67,0.33,0.924489339005601,stairs up
-1.0634825171463416,-1.3896484375,-0.82788085937,0.0297412220722077,0.1714016459724317,0.1173036156603658,-0.00622558593,0.27026367187,0.0039286120077831,0.0622952815648923,0.0677564667487804,-0.21667480468,0.19494628906,0.0135308111691047,0.115610558673499,1.0807974983424389,0.84932077702,1.39570652032,0.0281917381923205,0.1668770101213714,973.2790514737264,973.24309518676,973.32827292283,0.0007745590018632,0.0851777360700225,0.0276606789572692,-0.0007257204151979,-1.5372345263314489,0.48,0.52,0.1286904387565025,stairs up
-1.030666906853495,-1.27746582031,-0.82800292968,0.0190917302965015,0.1375004497871959,0.1114454547150485,-0.03381347656,0.22570800781,0.0053513882562501,0.072797204825881,0.0309857118480582,-0.14916992187,0.22497558593,0.0122545674426716,0.1101616587553632,1.045859450020874,0.85341322435,1.28186468173,0.0183520605264675,0.1348105529309572,973.2218137727702,973.18907848254,973.27771804298,0.0006642859746103,0.0886395604400149,0.025648325407637,-0.0004386395881029,-0.5860046846125146,0.47,0.53,0.7004489326024106,stairs up
-1.0283203124964837,-1.31164550781,-0.76525878906,0.0211174266205611,0.1445177047540134,0.0762832138531868,-0.11865234375,0.23840332031,0.0077756605702712,0.0876938638150792,0.0579780327067032,-0.0146484375,0.17370605468,0.0022795673581628,0.0474817561534305,1.0376287561814288,0.77787289269,1.31372486589,0.0210107962059985,0.144152378875976,973.1776883909306,973.16071841625,973.19775535943,0.0001063119378669,0.0370369431799417,0.0102539589824358,-0.0001799534406716,-1.0147604398967005,0.56,0.44,0.1248770595964834,stairs up
-1.0650128620389026,-1.32421875,-0.80346679687,0.0264482196285517,0.1616344034071612,0.1192061261396341,-0.09790039062,0.34631347656,0.0107146612634643,0.1028785432570389,0.0881273223113414,-0.19104003906,0.30456542968,0.0179319279964881,0.1330911189664827,1.0879704326690245,0.82426368446,1.33691157138,0.0273051702468855,0.1642320929837586,973.1394940188744,973.08995861465,973.19000329213,0.0008592416574508,0.1000446774800138,0.029133539102771,-0.0006686224817209,-1.056626078165622,0.59,0.41,0.0657039849102069,stairs up
-1.0511881510372,-1.24523925781,-0.822265625,0.0139594103568514,0.1173596390818698,0.1207975260385333,-0.03491210937,0.2646484375,0.0069460555400516,0.0827855148331173,0.0702766927070666,-0.09313964843,0.27233886718,0.0121241786881719,0.109373319289165,1.0696054001412,0.83270496082,1.25194104407,0.0132374209763145,0.1142843910162876,973.1015930069162,973.08518509947,973.1589013469,0.0004214421915187,0.0737162474300703,0.0203917375988039,-0.0002726906182362,2.220584616215696,0.72,0.28,1.7697782457050235,stairs up
-1.095091599679904,-1.36364746093,-0.83508300781,0.0228001864483213,0.1502696040000046,0.1963489239001923,0.07800292968,0.37744140625,0.0087633115559797,0.0931614133902259,0.1021082951458653,-0.03979492187,0.26525878906,0.0089230305811878,0.0940065540811641,1.12571825295,0.84385345849,1.36611941987,0.0212647341606203,0.1451215544394492,973.1056484561266,973.09088671158,973.1336945298,0.0002025011602499,0.0428078182200124,0.0141617101265742,1.6469980485640714e-05,-1.164860054459153,0.64,0.36,0.6673124741770433,stairs up
-1.1727520486532608,-1.53686523437,-0.79028320312,0.0371850339033674,0.191783338046463,0.1247678010342391,-0.12536621093,0.37390136718,0.0191582012494633,0.1376588534440643,0.0830436374831521,-0.15222167968,0.33557128906,0.0263240607672568,0.1613627270219508,1.2009286590196742,0.79585033809,1.55710569491,0.0377601482174481,0.1932607353390238,973.1005980766432,973.0628209936,973.16722747502,0.0006907807219042,0.1044064814200282,0.0261394765784745,-0.0001556415789278,0.9735423978954794,0.54,0.46,1.0471552785538083,stairs up
-1.156761812872771,-1.47814941406,-0.85131835937,0.0371168213857333,0.191493161148455,0.2030764660177108,-0.15710449218,0.45861816406,0.0245344733096399,0.1556883979160566,0.197645072473494,-0.04455566406,0.34765625,0.0109586334124969,0.1040509571538655,1.2072365272922894,0.85418298849,1.5035022837,0.0331155771691964,0.1808772907573979,973.0908427326866,973.06422750375,973.15395555925,0.0004885708612262,0.0897280555000179,0.0219700811402199,-7.58001540829827e-05,0.5212453805420232,0.61,0.39,1.0823306283306935,stairs up
-1.102215706030106,-1.3125,-0.8212890625,0.0218974184310854,0.147188542934497,0.1565824468048936,0.03198242187,0.38647460937,0.0126004999055449,0.1116532670109092,0.1500659699106383,-0.08422851562,0.3212890625,0.0142631263347666,0.1187913757316859,1.1356513154612768,0.82775137228,1.35705682799,0.02265755321137,0.1497214594213169,973.1056083374144,973.07972152645,973.15198889173,0.0002912067896236,0.072267365279913,0.0169737693236694,0.0002335950608829,2.2236272991524766,0.65,0.35,1.4827633198857757,stairs up
-1.0923682143960824,-1.29333496093,-0.87036132812,0.0139109295317184,0.1173350667407725,0.1859307043294845,0.02294921875,0.35681152343,0.009593739791815,0.0974414452780686,0.1258607844684536,-0.0546875,0.26623535156,0.0063180129885428,0.0790751467530842,1.1219498015384537,0.88291927974,1.30668136578,0.0145735977844681,0.1200972710278612,973.0986046762032,973.07918660556,973.16396677892,0.0004492395513906,0.0847801733599453,0.0210857348890023,0.0002196622028239,4.732146191636151,0.69,0.31,2.312243320141815,stairs up
-1.0787886696262068,-1.49560546875,-0.80078125,0.0400123747633013,0.198878008863977,0.0958364201650574,-0.0498046875,0.21801757812,0.004176926000065,0.0642566366719124,0.0895196322714942,-0.24645996093,0.24743652343,0.014614471109046,0.1201935467589892,1.1000787093086204,0.82244125447,1.49644597541,0.0394196882864887,0.1973995654025782,973.0832836539848,973.04505061711,973.16146318943,0.0012401746942924,0.1164125723200868,0.0350131377164187,-0.000520913034374,-0.1849705588336285,0.57,0.43,0.8984777500938267,stairs up
-1.0673225499372152,-1.552734375,-0.818359375,0.0314169751042442,0.1761229453395456,0.114314984667848,-0.06506347656,0.25854492187,0.0079611607983732,0.088658821394445,0.0626205251186075,-0.17431640625,0.30236816406,0.0187538661604339,0.1360752565661458,1.087162386691392,0.82758113708,1.55634109697,0.0320464212908947,0.1778785270584348,973.0441701511564,973.01837442173,973.10838525347,0.0007153402224218,0.0900108317400736,0.0265760283507055,-0.0002284061305892,-0.4450764268484,0.56,0.44,0.8607441918338287,stairs up
-1.0165917968716,-1.45520019531,-0.7666015625,0.0394894733461235,0.1973903417972669,0.0426464843736,-0.16796875,0.22204589843,0.0100098746205503,0.0993801269148399,0.0669384765608,-0.17346191406,0.24353027343,0.0123992576947126,0.1106071166733095,1.0309868434828002,0.78280972234,1.45680089771,0.0384099154296341,0.1946735298490928,973.0029792092694,972.95804317063,973.08958490917,0.0010573797405904,0.1315417385399087,0.0322998660066764,-0.0003125012965,1.697696481783228,0.61,0.39,1.2075640047523424,stairs up
-1.0743513840860577,-1.36328125,-0.83959960937,0.0248426037247049,0.1568557698493885,0.1201911339366346,-0.09631347656,0.24914550781,0.006287966659144,0.0789145451819094,0.0748948317296153,-0.11413574218,0.27880859375,0.0126190306841222,0.1117930849857048,1.0937344908393267,0.86093076852,1.38160817456,0.0239571918456625,0.1540351720606755,972.9653960299812,972.91856852906,973.05258377074,0.0008988864300786,0.1340152416798901,0.0298369450736478,-0.0003847582135824,0.84508040885237,0.67,0.33,0.799413642154697,stairs up
-1.014014202612065,-1.27038574218,-0.83325195312,0.0169885624368104,0.1296298736767642,0.1310066554830435,0.01538085937,0.28393554687,0.0050053575333077,0.0703629978977808,0.0613363514754347,-0.1748046875,0.20397949218,0.0107656086700646,0.1031920112437029,1.031679682940652,0.83708328975,1.29337245136,0.0173790765094585,0.1311113019686746,972.911991279252,972.87803661705,972.96526065912,0.0004351022044821,0.0872240420699199,0.02074542920005,-0.0006846821362723,0.3688249786012658,0.46,0.54,0.4521732066468414,stairs up
-1.070011683867619,-1.39978027343,-0.83618164062,0.0241767683111845,0.1545605047895912,0.1156078520240476,-0.02587890625,0.30383300781,0.0074606937639573,0.0858596295184943,0.0557120186923809,-0.1845703125,0.18798828125,0.0124221124623191,0.1107891247871425,1.0869141650661904,0.84207946919,1.42234154267,0.0238303563835323,0.1534492152625121,972.8665863603952,972.83736258351,972.93476431738,0.0007609775463234,0.097401733870015,0.0274211285292847,-0.0007863961106776,-0.3732868852028677,0.61,0.39,0.8679617110286557,stairs up
-1.0340589735210002,-1.42260742187,-0.75720214843,0.03035457867423,0.173255030454673,0.0990247938345555,-0.04040527343,0.35241699218,0.0079859958919187,0.0888665437846593,0.0502726236977777,-0.24450683593,0.22875976562,0.0145749875826107,0.1200543346828314,1.0502663679246669,0.76400728981,1.43829233164,0.031226334338694,0.1757252829511568,972.8206671165937,972.77193338679,972.93697038138,0.001669684339277,0.1650369945899683,0.0406341271724014,-0.0008890592750349,2.066945047283125,0.64,0.36,1.5419304245931882,stairs up
-1.0428997001227274,-1.34436035156,-0.81652832031,0.0203323580666019,0.1418695905132382,0.1156585385057575,0.01684570312,0.23999023437,0.0048712985685106,0.0694412955845802,0.0291575422166666,-0.18920898437,0.17236328125,0.0076745903640972,0.0871611682419893,1.0551620371750503,0.81716378215,1.36088910679,0.0212608188572372,0.1450726132362842,972.7721235849162,972.72955124274,972.8188510771,0.0006812700734473,0.0892998343600766,0.0259689922321586,-0.0004516635845674,-0.7011472429701557,0.44,0.56,0.0241100485730527,stairs up
-1.0696203058379543,-1.26733398437,-0.87463378906,0.0142437862670014,0.118667287233769,0.13347556373875,-0.09130859375,0.38317871093,0.0099744902243811,0.0993032917105906,0.1280462091604545,-0.12683105468,0.36779785156,0.0212730336830267,0.1450217041132168,1.0994054897745456,0.91008929386,1.32256534622,0.0147486876991102,0.1207521800020884,972.7339706577604,972.71205638577,972.79920958415,0.0005204458396565,0.087153198380065,0.0226832908191839,-0.0002659235335893,2.872877087820247,0.8,0.2,1.9075262062105909,stairs up
-0.7376629717923374,-2.0,0.388671875,0.5022263139988832,0.7040624221875217,0.2997317623753247,-0.1748046875,0.90380859375,0.0867609888543457,0.2926332564240234,-0.1981090198854545,-0.94580078125,0.21423339843,0.1013546696540506,0.3162884367835142,1.078165318426104,0.24928043044,2.05718920529,0.194697551202733,0.4383708607751243,972.6595550001672,972.52907071053,972.80091495498,0.004511768226517,0.2718442444499942,0.0667321049717815,0.0006167598213646,0.2624117879963954,0.64,0.36,0.3121403094058104,stairs down
0.3498037832733333,-0.87243652343,1.06677246093,0.2880125588811477,0.5333449618002187,0.6409324363402469,-0.16931152343,1.47265625,0.1987251647218577,0.4430256963501397,-0.3703070746496296,-0.82861328125,0.04772949218,0.0458672679958217,0.2128403284811694,1.0590375453875307,0.56389717257,1.67628044749,0.0756879218613327,0.2734108686078907,972.6205334398732,972.55729335261,972.69131561567,0.0013010421418061,0.1340222630599328,0.0358466162021166,0.0008547772738324,-0.4842645447893083,0.49,0.51,0.1401123376325306,stairs down
-0.7271429323666665,-1.34191894531,0.62182617187,0.3829336146985364,0.6157754165067334,0.2309558344809804,-0.57373046875,1.16772460937,0.1949690490331623,0.4393831901292211,-0.2826430376821567,-0.85595703125,0.10290527343,0.074093113839966,0.2708629003077084,1.0914373614825488,0.43188888866,1.81166545794,0.1174844850626843,0.3410757634098313,972.7026093949942,972.61572234454,972.82966675879,0.0032223173271794,0.2139444142500224,0.0564865114946443,-0.0001432737786079,0.0992770645413201,0.54,0.46,0.635519271186939,stairs down
0.1149373372383333,-1.60620117187,1.06970214843,0.6778694150259932,0.8187414320997903,0.1371134440097777,-0.82653808593,0.88562011718,0.2132342076160286,0.4592003251768418,-0.2089816623235555,-0.56701660156,0.10314941406,0.0325550932485358,0.1794251096982215,0.9518813929126668,0.26563313415,1.63627378109,0.0891537396265235,0.2969227888181743,972.8431702957386,972.7543159867,972.97742281518,0.0035083932122082,0.223106828480013,0.0589017068123323,0.0018946362990224,-0.1356341895418968,0.62,0.38,0.6836895235593421,stairs down
-1.0520754894536144,-2.02392578125,-0.39624023437,0.2024069446399936,0.4471781599684457,0.1776387777675903,-0.44519042968,0.642578125,0.1141769315564986,0.3358590565625632,-0.2937247034991566,-0.87194824218,0.49951171875,0.1676957249097727,0.4070323015304474,1.2539639376234943,0.67429613087,2.13130057546,0.132305970414934,0.3615410385815275,972.9574211592897,972.82780036299,973.11297741093,0.0083459502032119,0.2851770479398965,0.0908041661285743,0.0032705099055191,-1.1745940210231234,0.52,0.48,-0.0672372596946216,stairs down
-1.2491104450596808,-1.97863769531,-0.39624023437,0.1371044037881408,0.3683012982614003,0.3277445042361702,-0.41174316406,0.97412109375,0.1390928484583883,0.3709624472969948,-0.0732629654264893,-1.01794433593,0.24450683593,0.1150221785008167,0.3373403893754786,1.4089170149467023,0.67429613087,2.03241985818,0.0758784101479431,0.2739912279959154,973.0002091926189,972.91084030025,973.13083956299,0.0020260086269222,0.2199992627399751,0.0447711440959138,0.0009062919980456,1.0387488806939729,0.48,0.52,0.2016925431458481,stairs down
-1.005006141265567,-1.22509765625,-0.798828125,0.0116189760141363,0.1072342890882328,0.180715659227835,-0.06921386718,0.91882324218,0.0707680517289088,0.2646478493872788,0.01709739449,-0.12731933593,0.138671875,0.005649880447928,0.0747772308777424,1.0602196223094846,0.9088223715,1.29365434362,0.0061145142692095,0.0777912465488894,973.0645126548048,973.01770261521,973.13083956299,0.0008619837841647,0.1131369477799353,0.0292078303439358,0.0002519943921472,-0.3865796665166461,0.47,0.53,0.3237189008197247,stairs down
-1.2129804238472413,-1.91625976562,-0.19250488281,0.2048522207837402,0.4499973306102392,0.371242479344138,-0.89013671875,1.29248046875,0.3926784414957898,0.6230288084761735,-0.0718208400668965,-0.45422363281,0.27563476562,0.0231835769272476,0.1513839457522894,1.4480624919897698,0.6164380243,1.92380924893,0.1325185337807766,0.3619327730989092,973.0700462456584,973.03941975234,973.13368299063,0.0006728041344176,0.0942632382899546,0.0257889657326986,-0.0003805686621524,0.97685422245276,0.64,0.36,1.2945236479573583,stairs down
-1.285037270072025,-1.56079101562,-0.97839355468,0.0216430070212314,0.1461815477652313,0.2446304514412657,-0.21374511718,0.86511230468,0.0675384167258125,0.2582314854125986,0.20391922962481,-0.01611328125,0.64184570312,0.0285509232042193,0.1678973469505303,1.354602972519494,0.98080224372,1.79585787139,0.0344771662010158,0.1845013451866585,973.06468068689,973.04363968155,973.10960065654,0.0003306143671519,0.0659609749900482,0.0180673566180189,0.0001933227516286,-0.1822490558686116,0.58,0.42,0.8917637359805392,stairs down
-0.7583131115813131,-1.68920898437,0.01281738281,0.1893258987319578,0.4329128271563265,-0.0484027284560606,-0.52075195312,0.51196289062,0.0831180964063147,0.2868423254593678,-0.5286643288334343,-1.17053222656,0.32141113281,0.2574541466443516,0.5048302682174971,1.15218353374697,0.73944313215,1.70801847355,0.0544361720875677,0.2321342537486679,973.1574633708262,973.04868222781,973.30227521714,0.0051089457502555,0.253592989330059,0.0711149789961772,0.0002656596952748,-0.5162169814391313,0.52,0.48,0.2686085370698767,stairs down
-0.628515365272553,-0.98608398437,0.01281738281,0.0853346312490715,0.2905629295402591,0.3360751537537235,-0.29272460937,1.31628417968,0.1338742840769377,0.3639369307524051,-0.6829872942949998,-0.95263671875,-0.36254882812,0.0335309314641623,0.18213791320675,1.0719119092345744,0.75386398078,1.85750454499,0.0763175906433296,0.274783007810102,973.1432402281536,973.02844477956,973.25512925918,0.0045172604716076,0.226684479619962,0.0668521092348158,0.0010672109905995,-0.9361214542126244,0.49,0.51,0.1492399948727394,stairs down
-0.4994097541319999,-0.8701171875,-0.09875488281,0.0412022563130645,0.2017858366829844,0.3748779296844706,-0.02282714843,0.74963378906,0.0331571116326689,0.1810166510749833,-0.8069235408963529,-0.93884277343,-0.60668945312,0.009388901013785,0.096324676769763,1.0563337601242353,0.87270461164,1.21854757192,0.0080862806849407,0.0893932210573055,973.2342323627986,973.13270369219,973.3959515138,0.0046235978732582,0.2632478216099798,0.0675958771239865,0.0011945782412406,0.3361446064879958,0.47,0.53,0.7506674702090089,stairs down
-0.9272633428126086,-1.67309570312,-0.24182128906,0.2055108598244404,0.4508625579161531,0.283299985136087,-0.41748046875,0.96655273437,0.1339921298044181,0.3640545201077605,-0.2251759404709783,-0.93701171875,0.28527832031,0.1435344391392399,0.3767947480951324,1.189419116319565,0.79018529946,1.75715852228,0.0544413339671339,0.2320551234880548,973.3194708746588,973.20642230368,973.41602856435,0.0043734453373152,0.2096062606699433,0.0657716343722474,0.0023606501657236,-1.2200641464894175,0.55,0.45,-0.067631310080102,stairs down
-1.1368806800022448,-1.76037597656,-0.57946777343,0.0657090470274892,0.2550265604748198,0.3689824318368366,-0.16418457031,1.18835449218,0.1451157181549505,0.3789920124761422,0.0244750976564285,-0.35107421875,0.44067382812,0.0370292009909592,0.1914454282589572,1.2725915509239798,0.91640026744,1.90917040732,0.0556481730597749,0.2346919993505636,973.4437352587114,973.39923538728,973.50241450768,0.0007596867620528,0.1031791204000001,0.0274214306030451,0.0008689962974821,-0.5233183373085963,0.55,0.45,0.4238639844180153,stairs down
-1.367241599340341,-1.74719238281,-1.04113769531,0.0343207353346582,0.18420295051541,0.1928919011880682,-0.19763183593,0.63061523437,0.0687591475376852,0.2607255138807735,0.2272824374081818,-0.20031738281,0.71594238281,0.0510917878149289,0.2247469673144268,1.439347463064886,1.05530407861,1.75176125691,0.039360056686744,0.1972632335619179,973.5009257407604,973.47193443147,973.52956417401,0.0002773604241912,0.0576297425400298,0.0165592451877819,0.0003048835032269,-0.9659242518980128,0.49,0.51,-0.0710645403188365,stairs down
-1.2514802956840505,-1.70361328125,-0.79870605468,0.0534215865108425,0.229663588530662,0.1667403209050633,-0.24560546875,0.56481933593,0.0526130575164684,0.227918997555359,0.0715007540536708,-0.14819335937,0.24035644531,0.0160774694448392,0.1259918932843917,1.291799915161013,0.81129368767,1.71230927,0.0515900310064147,0.2256922520585164,973.5236638548428,973.48678522621,973.59896881554,0.0008354909775783,0.1121835893300158,0.0287213360138273,0.0001191912186038,1.5495939481142198,0.67,0.33,1.3998700831473658,stairs down
-1.181729524029674,-1.52416992187,-0.86083984375,0.0281980270548509,0.1670075649806814,0.1430491571830434,-0.0947265625,0.583984375,0.0374270649985761,0.1924064683805578,0.1810501762033695,-0.12817382812,0.63488769531,0.0403322309828146,0.1997344165830816,1.232471149626413,0.87445491604,1.58657672289,0.0359380044580346,0.1885401123761071,973.5356639602466,973.49016314272,973.56776898843,0.0005290381529391,0.0776058457099679,0.0228754833442546,0.000200194048962,-1.1958077771652698,0.57,0.43,-0.0385541102970627,stairs down
-1.1698247169920408,-1.48559570312,-0.9208984375,0.0208233822122917,0.1435649634149277,0.2078683035694898,-0.06909179687,0.51550292968,0.0355584744317136,0.1876049915537426,0.1306638133748979,-0.04418945312,0.3017578125,0.0125194369328309,0.1113179571155231,1.213956124284694,0.92279037191,1.52359708781,0.0235208887733121,0.1525807317592779,973.5275951133912,973.49018373287,973.56271906941,0.0002544803144146,0.0725353365399996,0.0158708404475759,9.926317936126202e-05,0.5201799451892279,0.4,0.6,-0.6070731188762162,stairs down
-1.0873041262529883,-1.46838378906,-0.67578125,0.0603360498500242,0.2442182057825667,0.357351719645977,-0.06970214843,0.95642089843,0.1189330679840018,0.3428790183513203,-0.0461972992990804,-0.505859375,0.19641113281,0.0298777949521839,0.1718556720672874,1.2065698669288505,0.69853514814,1.6497649999,0.0637293072402573,0.2509916063683819,973.5551242212232,973.500818755,973.65195596867,0.001873564825553,0.1511372136700401,0.043035213461456,0.0006649373576999,0.488292562819598,0.57,0.43,1.2517439137159057,stairs down
-0.4617889404274999,-1.64636230468,0.31616210937,0.2687819992311752,0.5151914442620195,0.6716583251922499,0.00402832031,1.33190917968,0.1259471887179586,0.352665349671589,-0.2976943969696249,-0.93090820312,0.1396484375,0.0882809475973695,0.2952582526406374,1.087284301509625,0.72701251542,1.66570005301,0.0483860676807056,0.2185892079556921,973.6153865484278,973.51258052516,973.80364905433,0.0080604537775815,0.2910685291699337,0.089217140199413,-0.0029792820679117,-0.2457769400049714,0.6,0.4,0.9468148834693576,stairs down
-1.0440450815013462,-1.76489257812,-0.72705078125,0.062586384133073,0.2489670499844253,0.3390526404717307,-0.05041503906,0.70715332031,0.0701707885039788,0.2636210715852363,-0.0494795579183653,-0.2109375,0.18591308593,0.0093663799556784,0.0963136470597537,1.131987564722596,0.73574645241,1.77812317745,0.0674446918068882,0.2584495795216137,973.6173481422684,973.54712718461,973.68635246817,0.0021387308053,0.1392252835599947,0.0460235383908969,0.0012612471759234,-1.3764704372132952,0.5,0.5,-0.0610841416764248,stairs down
-0.877008852747826,-1.76489257812,-0.10302734375,0.1715459055338528,0.4119238717601544,0.4153057595930434,-0.01794433593,1.24011230468,0.1405236720793265,0.3728219962141089,-0.0621576723840217,-0.58959960937,0.19909667968,0.0411469773389931,0.2017417348624433,1.1131188498598912,0.78178323667,1.77812317745,0.0564441722550143,0.2362851003418259,973.7209412359188,973.6456301444,973.81069912034,0.0013865457423044,0.1650689759400165,0.0370334253469967,0.0007885211801849,-0.1556359945780943,0.38,0.62,-0.3495296740253124,stairs down
-0.6605209902081927,-1.62805175781,0.14599609375,0.3035922350279393,0.5476627586905269,0.5106539438968672,0.00207519531,1.10314941406,0.1095208999279594,0.3289397680627332,-0.0887009953880722,-0.47924804687,0.17272949218,0.0265558211453565,0.1619749100725258,1.034808716425783,0.63154673258,1.64323830236,0.0693009063567983,0.2616600001486677,973.7994726841986,973.70625205222,973.94075903937,0.0026403071004962,0.2345069871500982,0.0510734390028182,-0.0003763772570514,0.864761949619651,0.47,0.53,0.647368014406465,stairs down
-1.1167891652928947,-1.4619140625,-0.74182128906,0.0326046889496064,0.17937580629639,0.1803380062678947,-0.09216308593,0.4736328125,0.0259354342569186,0.1599818069125729,-0.0539245605446052,-0.26196289062,0.09448242187,0.0106430213147658,0.1024840551531026,1.1479232946625,0.74363496075,1.49771590972,0.0336352125954585,0.1821884848410465,973.8919265945372,973.83453853576,973.92899870375,0.0008309994630331,0.0944601679900642,0.0286367815854393,0.0007054549350864,-0.6895528758433462,0.3,0.7,-0.8262589749607698,stairs down
-1.2786198252216496,-1.74328613281,-0.72741699218,0.1037334995417143,0.3204123624654106,0.3472233408482474,-0.19934082031,1.09387207031,0.1170330808238171,0.340333004889896,0.0568520457469072,-0.10388183593,0.24389648437,0.0075463620057628,0.0864208566221814,1.3650455051643295,0.73028228542,1.87807056217,0.1225381099954146,0.3482453596401908,973.9409151269888,973.89455205931,973.97998998108,0.0005875005498706,0.085437921770108,0.0241131466874592,0.0007764950223814,-0.8610610068687943,0.59,0.41,-0.0067352950410756,stairs down
-1.3037546258183157,-1.70617675781,-0.82446289062,0.046652879777325,0.2148529656120682,0.2501516241757895,-0.19934082031,0.64807128906,0.0486306119201075,0.2193597746671006,0.0997597142242105,-0.10791015625,0.32263183593,0.0117701648560343,0.1079178779622061,1.3539007384641055,0.83175809612,1.73391774739,0.0456642021568795,0.212564169945694,973.990175479032,973.94988750439,974.03979369272,0.00058756010635,0.0899061883300191,0.0241117245987367,0.0001546194051605,-0.6386130703766466,0.46,0.54,0.1292521335510394,stairs down
-1.1838307935098835,-1.40710449218,-0.78454589843,0.0282630241463052,0.1671358259938621,0.2347596634245349,-0.10583496093,0.57177734375,0.0485980239033314,0.2191641635900585,0.0340732308303488,-0.18530273437,0.18041992187,0.0091438191059221,0.095065743714265,1.2291446102347676,0.78895984586,1.456818941,0.0323124966889664,0.1787086175406234,974.004392983535,973.97649317115,974.03370005728,0.0002718860320344,0.0572068861300749,0.0163928205793154,0.0001848812687346,-0.8782007784845121,0.56,0.44,-0.1472108530642339,stairs down
-1.2333165610676828,-1.42980957031,-0.91931152343,0.0224861355679776,0.1490366210114632,0.1654529106306097,-0.16967773437,0.60278320312,0.0447682947115368,0.2102910837339081,0.0376021222352439,-0.12475585937,0.23364257812,0.0097536461015256,0.0981565035942525,1.265824079760366,0.92864426013,1.46179464256,0.0239082415560687,0.15367718644826,974.0151975393028,973.99637809736,974.04166957173,0.0001492325958591,0.0452914743700603,0.0121413626151896,3.334400914613913e-05,-0.1091820882707832,0.54,0.46,0.7711561086167049,stairs down
-1.2131513577033008,-1.5859375,-0.83117675781,0.033898698947243,0.1832200462974262,0.2138861498759223,-0.07067871093,0.58801269531,0.046600376494436,0.2148207291084457,0.0808318795490291,-0.01501464843,0.25598144531,0.0052396118719196,0.0720329220131023,1.2540557689186405,0.83221059308,1.60035757468,0.0366232615178226,0.190440793613182,974.0215232926952,973.98715756059,974.08539307403,0.0006917891196668,0.0982355134399313,0.0261738938724587,-0.0002047021449286,0.6189278077454983,0.76,0.24,1.148189794410962,stairs down
-1.1915999702751088,-1.72717285156,-0.72521972656,0.0732724025199534,0.2692136017405657,0.1154904572845652,-0.59301757812,0.62841796875,0.1080934900031713,0.3269840374758475,0.0302349588129347,-0.16284179687,0.1357421875,0.0053526513289493,0.0727631110951376,1.2469895985594563,0.73180455959,1.73481841476,0.064570476166727,0.2527224231541687,974.0328933955676,973.9842092158,974.14279730942,0.0019531337662206,0.1585880936199828,0.0439534304846668,5.061834229562772e-05,0.9755251928407364,0.71,0.29,1.4605698036082635,stairs down
-1.1993854801784147,-1.72583007812,-0.79406738281,0.054189712365172,0.2313630528290488,0.2222840844115853,-0.38647460937,0.60791015625,0.0910374080319649,0.2998786350157214,0.0624836247129268,-0.06921386718,0.19201660156,0.0064380775120144,0.0797468768769287,1.2601845396782925,0.83388100548,1.78699987941,0.0542521069437844,0.2314962113804335,974.0755808262792,974.04266671616,974.1387981607,0.0007353499073672,0.0961314445399921,0.0269514790980025,-3.1925849112929054e-05,-0.569443623663878,0.55,0.45,0.6610193978553807,stairs down
-1.1172635957754544,-1.73547363281,-0.66259765625,0.0906203220701023,0.2990709527361202,0.2288533000181818,-0.14819335937,0.55297851562,0.0397227359029198,0.1980072125349704,-0.084604238533896,-0.39892578125,0.13134765625,0.0202640035294573,0.1414243071485642,1.175870694650779,0.71169618849,1.77148330671,0.0824840264518337,0.2853292927988338,974.1481892509802,974.10559086996,974.26040915283,0.0018047251717788,0.1548182828699964,0.0422052980386942,0.0006203047122286,0.1248336596627055,0.57,0.43,0.9749644622490784,stairs down
0.4748021175958946,-1.35595703125,1.21362304687,0.4204209103137968,0.6449770748230791,0.176220703124421,-0.53186035156,0.97985839843,0.1656352314512453,0.4048354019834814,-0.3255319695693684,-0.92822265625,0.10949707031,0.0611063190326848,0.2458924452312728,0.9772190702909476,0.58373918776,1.36357286826,0.048364058681,0.2187577731795221,974.2088028895056,974.11356248494,974.36962738795,0.0033541428901923,0.2560649030100421,0.0576093405875052,0.0007458353640554,0.4475299120756322,0.45,0.55,0.6755571690904281,stairs down
-0.1178296407067708,-1.65368652343,1.0361328125,0.6425745014227784,0.7974214801677704,0.2445945739734375,-0.52526855468,1.505859375,0.2733112230720774,0.520061757068405,-0.2025388081859375,-0.92822265625,0.76354980468,0.2193343976954497,0.4658858920230598,1.042532539472396,0.51239705447,1.86437887575,0.1528452534520863,0.3889127349358642,974.2330110721978,974.11477170951,974.36696141098,0.0038040383967241,0.2521897014700016,0.0613548123357761,0.0008621129062336,-0.2972284811814547,0.49,0.51,-0.2247937470013585,stairs down
-1.1537636943210343,-1.58801269531,-0.65380859375,0.0714590792445147,0.2657775583407415,0.1543052936417241,-0.19396972656,0.47778320312,0.0360122637659742,0.1886751963022661,0.0882203551524137,-0.10864257812,0.29516601562,0.007744344207479,0.0874947355948823,1.1860771143611497,0.65847630024,1.59110479463,0.0706885771834137,0.2643408118357724,974.343884782793,974.27507170945,974.44083261872,0.0013627426628994,0.165760909270034,0.0367025742166737,0.0012660814300266,-0.33335526710162,0.43,0.57,-0.1897972654065142,stairs down
-1.3366684332086585,-2.0009765625,-0.73278808593,0.1239422281929114,0.3499010397315118,0.2102527153184146,-0.17785644531,0.81811523437,0.0712595676763808,0.2653121719001527,0.0939256621553658,-0.1611328125,0.373046875,0.0184277686425531,0.1349186412497115,1.3874636172613417,0.73845551467,2.00422491176,0.1272313734597215,0.3545134290042608,974.423820500635,974.38131331923,974.49821100573,0.0007152052899291,0.1168976865000104,0.0265797530876102,0.0002310406441676,0.4308672308464363,0.52,0.48,0.6231472183639934,stairs down
-1.3067318814433009,-1.61987304687,-0.89868164062,0.0436711339735303,0.2079594729305551,0.2246733730263106,-0.18151855468,0.64404296875,0.0680351873355994,0.2595662758068248,0.1861987067634951,-0.173828125,0.59765625,0.0400743649726361,0.1992116800492568,1.3766252565068933,0.92784966003,1.69235259841,0.0483759529063626,0.2188750407439592,974.4446820196044,974.41815101989,974.48053947556,0.0002706058296743,0.0623884556699749,0.0163700515762642,0.0002168251928733,-0.2270794801131748,0.47,0.53,0.3451754836038975,stairs down
-1.3249095874783516,-1.65905761718,-0.89782714843,0.0496174945501557,0.2215225662484454,0.2253672840810989,-0.16186523437,0.66918945312,0.0755798732282814,0.2734032281646064,0.1146347548918681,-0.19494628906,0.34362792968,0.029446293462027,0.1706537659109438,1.3877167164550548,0.92784966003,1.67857710042,0.0470202560845451,0.2156468176758607,974.4490301662098,974.42140648133,974.4851287821,0.0002473248078256,0.0637223007699958,0.0156399153704414,5.840584414158144e-05,-0.7711582396370229,0.62,0.38,0.4494249787415272,stairs down
