avg_accX,min_accX,max_accX,var_accX,std_accX,avg_accY,min_accY,max_accY,var_accY,std_accY,avg_accZ,min_accZ,max_accZ,var_accZ,std_accZ,avg_magnitude,min_magnitude,max_magnitude,var_magnitude,std_magnitude,avg_pressure,min_pressure,max_pressure,var_pressure,range_pressure,std_pressure,slope_pressure,kurtosis_pressure,Pressure_below_avg,Pressure_above_avg,skew_pressure,Label
-0.4013977050745652,-0.515625,-0.34008789062,0.0020677495215919027,0.04522470545303452,0.9442457116122828,0.861328125,0.98815917968,0.0007986949922903204,0.028107179242727594,0.013194208557065218,-0.029296875,0.04357910156,0.0002668400557366141,0.01624621864767838,1.0274833530256522,0.98409086244,1.07132420443,0.0002743369857271412,0.01647285834241397,972.6419193948556,972.58066306548,972.75309754448,0.002081028752738905,0.1724344790000032,0.045369691149397776,-0.0008585777798070401,0.2772756191256738,0.72,0.28,1.0283517627730945,Lift down
-0.45618069556042995,-0.69750976562,-0.36169433593,0.013188791486073739,0.11422336242580977,0.9153632707454838,0.69116210937,1.0625,0.007359401199666645,0.08532448566170013,-0.002051568800860215,-0.2607421875,0.14343261718,0.006355344684503877,0.07929065294778165,1.0351546943465595,0.97379925987,1.14019005464,0.0010755289902646835,0.0326184635201043,972.5774964645713,972.45569673154,972.69294925692,0.003959108856997076,0.2372525253799722,0.06258224823397297,-0.001579536013567145,-0.806414517727339,0.39,0.61,-0.49749486938287446,Lift down
0.42691610147472536,-0.31518554687,0.859375,0.13988930433649893,0.37195706638522147,0.05124940977043955,-0.916015625,1.32995605468,0.504619689533574,0.7064519928629391,-0.28767814216769233,-0.64733886718,0.16296386718,0.0655199359577132,0.2545583168185133,0.967439573328352,0.63438749348,1.42827725819,0.034306655469170305,0.18420005226715702,972.4711233777612,972.34028720134,972.59083039745,0.004892722754595303,0.25054319611001574,0.06956260899706733,0.0008089221532635389,-0.944808401162665,0.44,0.56,-0.35186368120438843,Lift down
-0.00023340916846152133,-0.58349609375,0.98889160156,0.31987186227771236,0.5624560310531546,0.5614496587371427,-0.66809082031,0.97619628906,0.20615468285868657,0.45154096910835945,-0.26636815332967034,-0.65478515625,0.10461425781,0.05079326816606548,0.22413188167688416,0.9710572715725273,0.7918343816,1.22221923671,0.013858972648386517,0.11707551514154013,972.6674378455999,972.46374490302,972.92361451698,0.025788025789625676,0.45986961395999515,0.1597017247584965,-0.000538193500021666,-1.4569200424211604,0.6,0.4,0.41551685551433354,Lift down
-0.3962565104124445,-0.501953125,-0.28649902343,0.0036798585667475966,0.060323886225435525,0.8998453776006667,0.80334472656,1.02490234375,0.0026072301221312325,0.050776578247770855,-0.03451199001644444,-0.23278808593,0.28186035156,0.019595761320777866,0.13920499502329609,0.995247359256778,0.90463888073,1.12736560538,0.0030437795414797074,0.054863100247767624,972.5932389988302,972.48537575404,972.81330403352,0.005441166685295659,0.3279282794800338,0.07335331810955291,0.002304215484537403,0.5724515841739999,0.49,0.51,0.623612364741925,Lift down
-0.42270914713122215,-0.59155273437,-0.35974121093,0.0023461825559495633,0.04816756025463047,0.8988878038155554,0.83361816406,0.94836425781,0.0008597928635187201,0.029158868453347486,0.12103542751388889,0.09655761718,0.18981933593,0.00036761406690429053,0.019066448703440018,1.0022594093402224,0.95643825454,1.084698945,0.0008604821611052164,0.029170554472002196,972.717215644276,972.64021065623,972.82899967993,0.0015219210365820083,0.1887890236999965,0.03879446871452435,-0.00021602075780367185,3.3772047578641278,0.48,0.52,1.6663161889435218,Lift down
-0.4304788996625843,-0.48315429687,-0.39379882812,0.0006487630687971106,0.025327329036319582,0.9481393192553932,0.89343261718,1.00646972656,0.0010660737411006952,0.03246683514694825,-0.13895167661247193,-0.27648925781,0.07775878906,0.010524029826784036,0.10200873639370502,1.055896855237865,1.00630943821,1.10370450049,0.0007797639804112299,0.027766933344770022,972.8131333408069,972.66983865088,972.93010852062,0.008098475839116787,0.2602698697400001,0.08948453346006177,0.003256277463658825,-1.4782197548352896,0.45,0.55,-0.23981614193654524,Lift down
-0.3405776605341463,-0.36120605468,-0.31591796875,5.334192361567979e-05,0.0072588850626025166,0.6715073003962194,0.65490722656,0.68347167968,4.7942552252916556e-05,0.00688170669104253,0.6863864805608536,0.67138671875,0.69738769531,4.415982675988744e-05,0.006604641722849611,1.0188984184769512,1.0101795713,1.03290831284,3.166764717118076e-05,0.005592982777733185,973.1144485042108,973.10241769974,973.12537358927,4.615124401759499e-05,0.02295588952995331,0.006751920020897754,-6.636355971865502e-05,-1.1201090976569494,0.51,0.49,-0.20613941759935236,Lift down
-0.34346566548731705,-0.3583984375,-0.31970214843,0.00010962620741494866,0.010406214606977587,0.6743000309601219,0.6611328125,0.69311523437,6.597048050182086e-05,0.008072543740787076,0.6835639767489022,0.66967773437,0.69372558593,3.4079713933972206e-05,0.005802077874906949,1.0198461598836586,1.01139158312,1.02848555929,3.0203310177096612e-05,0.0054621403429568165,973.1126121821447,973.09346018632,973.12794828382,8.007216419551442e-05,0.03448809750000237,0.008893574893610109,6.467494410979605e-05,-0.2939963800424863,0.43,0.57,-0.546875501231628,Lift down
-0.340193383485679,-0.626953125,0.05114746093,0.029477518332236153,0.17062707391509072,0.7604151596229629,-0.04675292968,1.43225097656,0.11909882084519605,0.342970064338409,0.25812295042209876,-0.58618164062,0.69250488281,0.14188570344633894,0.37434479840803125,0.9993571571016048,0.5509061604,1.44447820657,0.049360969398390186,0.22079758765543486,973.0480043496094,972.82534539797,973.28348682742,0.011857463656546174,0.4581414294500519,0.1082177213599598,-0.00045449484729402975,0.20371694453960432,0.58,0.42,0.5409313049308562,Lift down
-0.24265166859197532,-0.31030273437,-0.13232421875,0.00297979169332278,0.054249462131465996,0.7589246961776542,0.53723144531,0.89929199218,0.013364681228956005,0.11488988277651341,-0.6166042751697531,-0.81298828125,-0.46716308593,0.010844532400570404,0.10349226678604531,1.0194214418767902,0.86070177655,1.0950737776,0.002714129094106643,0.05177471706839869,972.9952517748968,972.88100767021,973.05300320496,0.0014730304331175485,0.17199553474995355,0.03814242876659617,0.0013210506906396727,1.709192883596545,0.49,0.51,-1.0971494844545335,Lift down
-0.19828948974174998,-0.29907226562,-0.103515625,0.002974113140524289,0.05419351184660148,0.75744934081675,0.68908691406,0.80859375,0.0013054039565841072,0.03590384947504663,-0.625634765622,-0.66809082031,-0.5498046875,0.0011255007001402743,0.0333381454401489,1.004363851068375,0.92319241642,1.05887692876,0.0010711851581352845,0.03252376582836916,973.0550070774561,973.04760577373,973.06205699605,1.2048675873419911e-05,0.01445122232007634,0.0034493575380064854,0.0001273669575601017,0.18847399824604683,0.49,0.51,-0.1489875924243656,Lift down
-0.24587249755437499,-0.33825683593,-0.11901855468,0.003747508531090698,0.060833088647972364,0.742346191402,0.52795410156,0.90173339843,0.007887852870816062,0.08825675447199983,-0.6145202636692499,-0.75891113281,-0.52905273437,0.004632880830989652,0.06763852319944812,1.00156667282175,0.91468094827,1.11628930458,0.002121920507961937,0.04577550110716881,973.0993150177208,973.05355528646,973.21535516952,0.001963045671670249,0.1617998830599845,0.044028486242140674,0.0014676541875225703,0.7547875526393124,0.56,0.44,1.2614419714121703,Lift down
-0.22946128362075943,-0.34826660156,-0.15490722656,0.0020917483890820817,0.045445247951487536,0.7483620945384809,0.71130371093,0.80383300781,0.0006029386580309778,0.024398904137669652,-0.6628557036156961,-0.69555664062,-0.60949707031,0.0003451536815136486,0.018460353397766735,1.0270054020108856,1.00009110899,1.06552994883,0.0003415787942869864,0.018364504133812652,973.2660236577783,973.15527262191,973.37147857289,0.0044883903454072515,0.21620595098011108,0.06657007794605523,0.002908767953746722,-1.178859494762808,0.49,0.51,-0.10104322376065233,Lift down
-0.223304748531875,-0.30786132812,-0.15502929687,0.0019289389416905585,0.04364432614807366,0.7631774902309999,0.67016601562,0.82873535156,0.001354663017493982,0.03657498776179299,-0.66003112792575,-0.70068359375,-0.61584472656,0.0005016688965042131,0.02225753884188255,1.0347726443135001,0.96779025127,1.11512771203,0.0009412776668631678,0.03048789425374239,973.4867055289627,973.37147857289,973.5878504459,0.004273001067622907,0.21637187300996175,0.06495836015693146,0.0028000166844264576,-1.2495716366668757,0.49,0.51,0.011749655249801578,Lift down
-0.19785093649512825,-0.25939941406,-0.08703613281,0.002676115546446262,0.0513985055500048,0.791327060793846,0.71533203125,0.87744140625,0.002859003995786497,0.053125795037859136,-0.6543829502166665,-0.70458984375,-0.6103515625,0.0008642143665005825,0.029208469578791533,1.048196543588974,0.98002311944,1.10249887398,0.0011769419255896615,0.03408596377607123,973.7058563869007,973.60090878137,973.81295317035,0.0038447913570408532,0.21204438898007538,0.06160762258159062,0.002693511065743645,-1.1528458423407537,0.49,0.51,0.05082047970419923,Lift down
-1.15983276367,-1.43603515625,-0.88427734375,0.026948917930755725,0.1631320215550009,0.15783386230212498,-0.1943359375,0.50830078125,0.03561108737539141,0.18752586163833249,0.160530090328625,-0.044921875,0.41223144531,0.016046300471295984,0.12587979073467187,1.2020279933600002,0.97587466621,1.5070628195,0.029008514231499496,0.1692510200962043,973.989702639578,973.96547717085,974.02771039125,0.0003162828123644972,0.06223322040000312,0.017672840100276498,0.00010075379371651114,-0.16133617480845164,0.68,0.33,0.9199535832090076,Stairs down
-1.2489131047130766,-1.67175292968,-0.86865234375,0.05493809746286181,0.233259183154102,0.24961266150557693,-0.03051757812,0.57641601562,0.03548290817518798,0.18746126630803275,0.09185673640048077,-0.0947265625,0.27197265625,0.006488658269207697,0.08016400267147013,1.2910791810326923,0.87256802904,1.70373631364,0.06019931199027131,0.24417303792987324,974.0106312096233,973.98335375767,974.04529889345,0.00035800004951490663,0.061945135779978955,0.01882970369778808,0.0003840867680799065,-1.0644061192562775,0.58,0.42,0.4099621425928835,Stairs down
-1.0469827854856384,-1.47729492187,-0.6484375,0.04378837534692691,0.20814067734741437,0.19002711518978732,-0.08703613281,0.4482421875,0.016047350767177105,0.12600251691793282,0.060175469578191476,-0.05859375,0.1826171875,0.003752260731876729,0.06092900019298149,1.0744662556847873,0.6674321568,1.48737705227,0.04481488311888003,0.2105662105921728,974.0601944879106,974.03182973451,974.08378616251,0.0002393221205688027,0.05195642800003952,0.015387531984134156,0.0004475907524874139,-0.9388578369992837,0.46,0.54,-0.2661853273658782,Stairs down
-1.0598805147028234,-1.64526367187,-0.68090820312,0.09052873777222255,0.29910482075424943,0.23832002527176474,0.0009765625,0.50109863281,0.02533937324086668,0.15824431417098284,0.018752872241294117,-0.18579101562,0.19812011718,0.012906544256188857,0.11293671926816903,1.1045347197988236,0.69658572175,1.67322741382,0.08880225460033454,0.2962389613019729,974.1175434659923,974.0810863614,974.15582818133,0.00032394314915028163,0.07474181992995454,0.017892234440614885,0.0002494941320090056,0.40234549863089253,0.49,0.51,0.5541748990525901,Stairs down
-1.1331363600093878,-1.64013671875,-0.67248535156,0.062475396217171755,0.24867225855358172,0.23203075175081636,0.01440429687,0.5869140625,0.027302856285232303,0.16439055846031184,0.016126983019693876,-0.12890625,0.16906738281,0.00896341219413022,0.0941910229501421,1.1722067996513266,0.68858456677,1.66178961792,0.062398393555813544,0.24851896357063702,974.1878383215846,974.14010511062,974.2264564013,0.0007198407475982444,0.08635129067999969,0.026692610098063507,0.0007056408948395678,-1.1960517172917622,0.49,0.51,-0.17783920646605225,Stairs down
-1.174318897477653,-1.798828125,-0.78137207031,0.07864377024842226,0.2790005068040339,0.2661132812461225,-0.04711914062,0.65649414062,0.047321849262038515,0.21642313473647073,0.03069320990020408,-0.109375,0.24243164062,0.007747644021558275,0.08757046550922039,1.2251772189778571,0.78191947862,1.82073842742,0.08291896098127129,0.28648359313322574,974.2621879803518,974.21841966169,974.30419523478,0.0008380661480270581,0.08577557309001804,0.028801292551533637,0.0007827176414123431,-1.4520620520982235,0.49,0.51,-0.12796993943862883,Stairs down
-1.1375260786539771,-1.60900878906,-0.55920410156,0.05953288058888702,0.24260331939648955,0.17344804243477274,-0.08459472656,0.47302246093,0.03489949423318913,0.18574958700209362,0.062051946464772724,-0.09252929687,0.20422363281,0.006355120094522814,0.07926476405516777,1.168783150541932,0.56293981629,1.63674534341,0.062195139533592146,0.24796849917751002,974.3352737131619,974.31019509085,974.36158580273,0.00020461135228556603,0.05139071188000344,0.014222736139095072,0.0003237884969611397,-0.8976675166812069,0.38,0.62,-0.21399678721919113,Stairs down
-1.1814969219712657,-1.64526367187,-0.67724609375,0.10276099839237635,0.3185282189395898,0.27590826493025317,-0.11267089843,0.54284667968,0.036420227324491544,0.18962914277277765,0.14194923110822788,-0.02807617187,0.3369140625,0.009596982097049034,0.09734218669729193,1.243332811389873,0.71970517503,1.70971924594,0.09442362675890188,0.3053332457776972,974.3851575811939,974.34767480677,974.44743290367,0.0005275793886804434,0.09975809690001824,0.02282325937657819,0.0006117400055007097,0.5850957161201022,0.52,0.48,0.5322184223250013,Stairs down
-1.1520764160127002,-1.36828613281,-0.91333007812,0.015107450369277051,0.12229626268036273,0.24596069335719994,-0.07763671875,0.65979003906,0.04487572989496415,0.2107770684776086,0.047076416013700016,-0.09826660156,0.17028808593,0.005841675242474241,0.0760477382309921,1.1989442026866,0.92152310783,1.42677912869,0.01787103610536896,0.1330125022105639,974.431228964017,974.40113934306,974.45573162078,0.00013228268234713832,0.0545922777200758,0.011443769288292513,0.00021632964216290024,0.6576405761651891,0.48,0.52,-0.5743731460443494,Stairs down
-0.9356991482739175,-1.44592285156,0.55676269531,0.2789941759240385,0.5254692639025283,0.30224861065948455,0.00073242187,1.00268554687,0.078836364354555,0.27932708126904066,-0.11438491664041238,-0.66320800781,0.10827636718,0.0510330687315959,0.22473752383827872,1.1586977209140206,0.71003801433,1.46146752947,0.04247704739004205,0.20503448413618153,974.4410324545336,974.40979580353,974.51249367173,0.0006035242517524514,0.10269786820003901,0.024439769889461907,0.0005349390107044822,2.6054171451466486,0.73,0.27,1.7057783718253396,Stairs down
-0.3689329651577011,-1.701171875,0.85913085937,0.9710517508668797,0.9797398820549766,0.16275199802298854,-0.876953125,0.89208984375,0.22522050851195088,0.47183870870754346,0.005045572917471265,-0.267578125,0.2861328125,0.02535511160452769,0.15831510837601015,1.1219232819740228,0.62630758593,1.86798030988,0.11279553022070661,0.3339147044880506,974.3901224732588,974.34086622465,974.50550722523,0.002539151135589202,0.16464100057999076,0.05009955578997228,-0.0011329884482551016,0.14656218453942582,0.71,0.29,1.1693661567275577,Stairs down
-1.158837622335055,-1.45617675781,-0.88171386718,0.023915415744167598,0.1537940472767011,0.21234332073978024,-0.1005859375,0.61120605468,0.04712145539116737,0.21587875578679722,0.13701386503824176,-0.07360839843,0.29077148437,0.010109415009783058,0.09999161233397569,1.2074213973763737,0.88744899744,1.46095362567,0.02947920519416387,0.17074910800451606,974.4182740292484,974.39004975167,974.44829948245,0.0002643587156315461,0.05824973078006224,0.016169529207754635,0.00032449139187300095,-0.8270640772303914,0.53,0.47,0.04274122856812318,Stairs down
-1.1037106981416664,-1.66040039062,-0.70922851562,0.08001293352904879,0.2814755637781976,0.14157284007166668,-0.13549804687,0.39099121093,0.02468948056601049,0.15635672942016654,0.02452775543784314,-0.13098144531,0.17956542968,0.006373904795367541,0.07944441788236514,1.1285541089575493,0.71188414083,1.67010920405,0.07591904794633383,0.2741801297590748,974.454390008873,974.43194146106,974.52728430765,0.0006062475511338353,0.09534284659002878,0.024501100948556304,0.00040489417698470217,3.3138446275036504,0.57,0.43,1.9053496776289243,Stairs down
-1.1803263346316668,-1.66833496093,-0.78771972656,0.06903676740547782,0.2612846957096485,0.20235188801955553,-0.35473632812,0.57690429687,0.06558345509216047,0.2546659577477542,0.07098524305266667,-0.10412597656,0.20153808593,0.005693136053083621,0.07503251952205214,1.227279396600889,0.79301285268,1.73054930454,0.07250061383135854,0.26775931628134725,974.5163368310922,974.46527551514,974.55208144386,0.0006404794283962233,0.0868059287199685,0.02516670400157581,0.0007918540941101787,-0.32202260296404983,0.57,0.43,-0.5806741465947104,Stairs down
-1.1973831741866667,-1.75524902343,-0.69494628906,0.10491579713113364,0.32190144512944996,0.2274305555523457,-0.35473632812,0.59716796875,0.051644513010489224,0.22584713066610523,0.05201853057345679,-0.1904296875,0.27478027343,0.011523097660661012,0.10668100672432079,1.2473953944676546,0.69710372199,1.76617025716,0.09939721086730471,0.313321057075988,974.5848121780183,974.54551027076,974.6571843125,0.0008947720955290653,0.1116740417400024,0.029727521364023266,0.0008006448806186139,-0.09387827577560603,0.57,0.43,0.8281310043664273,Stairs down
-1.1749942555108233,-1.78601074218,-0.72021484375,0.08641027180363395,0.29222197106078457,0.2345372817071765,-0.01171875,0.58410644531,0.035971689574466996,0.1885430805586142,0.01081542968682353,-0.19580078125,0.19384765625,0.01187690993109258,0.10833827384152878,1.216721022178706,0.72474264065,1.8135597896,0.08905320464031063,0.2966572430935007,974.6654908738102,974.60368577716,974.70697248483,0.0006107691123355756,0.10328670767000858,0.02456793832145713,0.00031524839859216786,-0.4265375777642757,0.33,0.67,-0.517667785691352,Stairs down
-0.6715182702486406,-1.68273925781,0.11560058593,0.3600961167674338,0.5971599768603607,0.5033302677453396,0.0458984375,1.10766601562,0.08705129501226719,0.29360881595801,-0.19089545092466015,-0.69018554687,0.17639160156,0.08379633658756706,0.2880673183852489,1.0958074532878639,0.72450754318,1.71329288261,0.06635845575429883,0.2563478084601375,974.7459116324106,974.67643793571,974.84019388336,0.0016625163866989374,0.1637559476499746,0.0405755523795517,0.0009826647722297219,0.3702454038988865,0.44,0.56,0.5794091315300564,Stairs down
0.06623110563826087,-0.05932617187,0.25695800781,0.008127351482657606,0.08966053036689108,0.9746624490456522,0.50695800781,1.46240234375,0.07173177053151421,0.26636831150413326,-0.4092433763546739,-0.74133300781,-0.23266601562,0.016351792995291686,0.12717726257042994,1.0693914541802176,0.55780107769,1.56002559238,0.0741802560313945,0.2708762612349382,974.8242374135403,974.71807631736,975.09379163605,0.006789128747998616,0.37571531869002683,0.08194714070852613,-0.00042487906080077123,2.7346583588651914,0.72,0.28,1.5903830066981035,Stairs down
0.01887089373012048,-0.13708496093,0.10998535156,0.004092672261959316,0.06358744339567647,0.9780567582796386,0.7021484375,1.38122558593,0.030889444812727193,0.17469196554802308,-0.10151102456566265,-0.43298339843,0.31652832031,0.04452273799051362,0.20972915739235554,1.0093429979455422,0.71251269212,1.38958610346,0.027358924495112118,0.16440589678836176,974.8738174279935,974.79093116004,974.95650227583,0.003064243995877803,0.16557111578993045,0.05502113587993099,0.0018469667704096278,-1.2361268229684073,0.46,0.54,-0.03828668845300281,Stairs down
-0.22355274487290314,-0.69018554687,0.7392578125,0.14219465154953878,0.3750542318141395,0.8348690566167745,-0.06384277343,1.51501464843,0.15912619157045885,0.396755790446084,-0.3245600218389247,-0.541015625,0.09338378906,0.023004680081247366,0.15085528804067858,1.0432028907504298,0.59989444032,1.65470296205,0.08580994753439387,0.2913541829569247,974.9716665429555,974.71395795116,975.44073009387,0.044954086663540005,0.7267721427100469,0.2108807942596669,-0.005566222029410574,-0.134324038246592,0.62,0.38,0.8572784678195634,Stairs up
-0.27496210734093746,-1.63671875,0.88061523437,0.8593591777824918,0.9221754278230313,0.10683059692427083,-0.55041503906,0.82507324218,0.16418813665246013,0.4030854047994424,-0.008764902753229166,-0.51708984375,0.25354003906,0.06243346635144923,0.24856210037658927,1.032563160796875,0.19301806294,1.75895779492,0.09658161891524703,0.3091529724665119,974.947506891108,974.82547941208,975.06171654434,0.003777984455294159,0.23623713226004384,0.06114434111634135,0.001676186823486088,-0.7058130749519513,0.42,0.58,0.0023552655051358095,Stairs up
-1.1134734756616091,-1.42053222656,-0.74633789062,0.027111018685694443,0.16370521610889854,0.13684362652459767,-0.14221191406,0.439453125,0.01861005015693146,0.1356323764240603,0.10414000763103447,-0.12341308593,0.2607421875,0.011535472448461691,0.10678427230225924,1.1397761018391954,0.81485814148,1.42968188216,0.02721618785917319,0.164022431739276,975.0345083996497,975.00083231825,975.05789763042,0.0001781382778764653,0.05706531217003885,0.013269917537953735,3.963679585532621e-05,0.3856187939997495,0.48,0.52,-0.3421956021262706,Stairs up
-1.1980413122977214,-1.37780761718,-0.92077636718,0.020100114069701084,0.14087470406724545,0.14547845381544305,-0.09912109375,0.48400878906,0.03224485967900807,0.17842840832743292,0.044526305379620254,-0.18786621093,0.25170898437,0.01855834715350624,0.1353640697037179,1.2262004633383545,0.94047421897,1.46038127959,0.025206866853206993,0.15775865297739566,974.9902415664752,974.95239832143,975.03809261898,0.0005575446131460667,0.08569429755004876,0.02346246121781307,-0.0009578105295797034,-1.0282095963086293,0.47,0.53,0.05974553282600619,Stairs up
-1.3673693338990625,-1.72277832031,-1.07495117187,0.031503411655337564,0.1765651469493941,0.14672215779416667,-0.29675292968,0.54089355468,0.06030804683195517,0.2442945722090218,0.12678909301677083,-0.1552734375,0.54113769531,0.04043734381858594,0.20004029965769982,1.4119987350670833,1.15328660313,1.80618607447,0.033875994078048775,0.1830931979614092,974.9070123711277,974.84735255159,974.96999172288,0.0013116364279543997,0.12263917128996127,0.03602739996858698,-0.0009696355041335496,-0.951968805510357,0.4,0.6,-0.43097017859182224,Stairs up
-0.4177451685845263,-1.73962402343,1.23107910156,1.0891194554793762,1.0381016521316881,0.3573319284499999,-0.15344238281,0.86840820312,0.062145730031572026,0.2479749270637907,0.04517372532852632,-0.46276855468,0.78356933593,0.15006235774628307,0.3853346000303278,1.1967873453757896,0.57155481661,1.97740971648,0.16126473044969564,0.39945864237900497,974.810463517991,974.70421683902,974.94645257876,0.005107300072811605,0.2422357397400674,0.07108824811045486,-0.0020012176573020045,-0.7758234430654021,0.46,0.54,0.1956595493564636,Stairs up
-0.8285891510699998,-1.92651367187,1.01794433593,0.7181907256943191,0.8425198340361995,0.2135790447843023,-0.33361816406,0.88781738281,0.11268957990286485,0.3337352782528481,0.0212175236177907,-0.49975585937,0.37365722656,0.05924006297540893,0.2419736040022432,1.2029136882098839,0.3586591557,2.14815929345,0.16734078649248868,0.4066877959734455,974.726585979069,974.71251971691,974.76783567439,0.00016886521368782961,0.055315957479933786,0.012919042715753342,5.002682659705784e-05,2.3029080694303197,0.64,0.36,1.5022182822831762,Stairs up
-1.1977496969250574,-1.38952636718,-0.9052734375,0.017190624963376904,0.1303573226673257,0.09166498293574711,-0.27575683593,0.43237304687,0.027221665207361138,0.16403893593847851,0.07086392106471263,-0.07885742187,0.21350097656,0.008228019524751462,0.09018561186622484,1.2175421163364368,0.93291638752,1.41683022055,0.01786023455426484,0.13287191013121233,974.6895768685108,974.6522057494,974.72691110021,0.0005270637029895562,0.07470535081006346,0.022825544889595026,-0.0006757918601035257,-1.1950439369961736,0.53,0.47,-0.022513723443572133,Stairs up
-1.1689270019482998,-1.42663574218,-0.9072265625,0.02470751042760955,0.1563983226359332,0.1592370605448,-0.07116699218,0.43212890625,0.02326396542766706,0.15176075175548648,0.11093017577919997,-0.15588378906,0.34301757812,0.013857678517804785,0.11712856924178122,1.1993722052853,0.91813201264,1.46074745655,0.027039855809779717,0.1636137440794077,974.6180795892674,974.56111915546,974.66124187135,0.0008287864727646711,0.10012271588993826,0.028644346877473473,-0.0008116905359087933,-0.8442977730241794,0.47,0.53,-0.31728668037760993,Stairs up
-0.8704142252567777,-1.38024902343,0.14196777343,0.19925853544751834,0.4438970057573307,0.3980957031216666,0.08911132812,0.99829101562,0.0653363764957955,0.25418579180779033,-0.1707750108488889,-0.77282714843,0.25280761718,0.08424454943852933,0.28863211687061496,1.1214039004157776,0.69870250973,1.39982745818,0.03304918941587589,0.18078157041065868,974.5758603565364,974.48210840166,974.63439921864,0.0009205630506695999,0.1522908169800985,0.030171751230726178,-0.00018883808369634733,2.493106573572515,0.44,0.56,-0.8551605387983222,Stairs up
0.21090545654025,0.0146484375,0.38232421875,0.009439588250891662,0.09654839925009381,0.792849731442375,0.53991699218,1.0859375,0.028002429602866037,0.16629010563719723,0.5826385498019999,-0.15319824218,0.96899414062,0.05836732703420536,0.24007860264146363,1.0311439141325,0.74155143787,1.38757737133,0.04446931077030145,0.20955534921751026,974.4765017896103,974.43436933402,974.53770113424,0.0013510994298714762,0.10333180022007582,0.03652684885119551,-0.001270580689428818,-1.4786882873338139,0.59,0.41,0.3952449177337652,Stairs up
-0.4993178423721175,-1.3994140625,0.52258300781,0.5699265600255017,0.7504808736218802,0.5860509535807058,0.06701660156,0.92895507812,0.05112703420912243,0.22477886842186726,0.2651381548676471,0.00390625,0.5810546875,0.023665495391972,0.15292834204007205,1.116673882287647,0.72269485989,1.43357633949,0.05387974823637877,0.23075066380264772,974.440541363477,974.42112011726,974.46154599471,0.0001298148320674749,0.040425877450047665,0.011326411556580223,0.00025081627519976196,-0.7362963943471303,0.56,0.44,0.3537248248831719,Stairs up
-0.6896911621080001,-1.8427734375,0.93908691406,0.7330528649299158,0.8518933831651803,0.27662719726259993,-0.04248046875,0.91760253906,0.07683755793179754,0.2758064218840446,-0.0259204101568,-0.51892089843,0.41516113281,0.08437134798568549,0.2890114781558487,1.1376348878435998,0.40515381299,2.09829631466,0.14542867486768746,0.37943957110323984,974.4354596245759,974.41299125744,974.46120666129,0.00019148672273438066,0.04821540385000844,0.013768509560117131,-0.00016506281742304313,-0.5670184616404481,0.47,0.53,0.2961329412734828,Stairs up
-0.4310601128455556,-1.62023925781,1.03625488281,0.9425436031594152,0.9654381888332593,0.2937703450497778,-0.04248046875,0.869140625,0.0865056283851311,0.29247983646126346,-0.117667643229,-0.45825195312,0.21520996093,0.06707541587457402,0.2575463715061186,1.1312372891562221,0.580147967,1.77279105987,0.09122075501753996,0.30034511994187724,974.4046925388097,974.36431674282,974.43888069131,0.0003642336531721198,0.07456394848998116,0.018978582997192347,0.0005073533149627077,-0.8024794379175169,0.53,0.47,0.0749287993492156,Stairs up
-1.2344413097949385,-1.55639648437,-0.99157714843,0.024896435085363648,0.15680902936134783,0.16330295138617287,-0.37072753906,0.42504882812,0.04815231039975109,0.21807759497906457,0.045297128182098766,-0.42590332031,0.59606933593,0.06773347585441138,0.25864504654665693,1.2889898715744446,1.02391020217,1.61067938489,0.030490740175968138,0.17353475526506731,974.4347144136407,974.4010083647,974.49771672596,0.0005254052190366935,0.09670836125997084,0.022779787857902786,-0.00038075307347009606,1.959921256763283,0.64,0.36,1.229627816395586,Stairs up
-1.1964453124958998,-1.37036132812,-0.98620605468,0.009917245995013514,0.09908619245416275,0.1385302734363,-0.25524902343,0.42028808593,0.032795334318843274,0.18018707216572125,0.0794824218733,-0.09594726562,0.23291015625,0.008147157285728963,0.08980916274451997,1.2233872895936002,0.99099941157,1.39734281817,0.01077187648756789,0.10326740881174569,974.4353446715202,974.40951019459,974.466723658,0.00020044681074720726,0.05721346340999389,0.01408695647184782,-8.106749791753284e-05,-0.15983757192561932,0.42,0.58,0.3597926064272324,Stairs up
-1.1736917698595744,-1.49816894531,-0.87609863281,0.03362429297634124,0.18239130388237285,0.11775369846840425,-0.39514160156,0.4853515625,0.05068498780919539,0.2239325474584372,0.11488634474478719,-0.12951660156,0.29125976562,0.01821769275809651,0.13425307265008538,1.2138720386554251,0.88319317028,1.49896591026,0.032918305920095835,0.18046637131683296,974.4088738485854,974.36262612932,974.45928878215,0.0006694420762529692,0.0966626528299912,0.025735585325333328,-0.0004716886970383586,-0.33202481516856386,0.52,0.48,0.32612650027755813,Stairs up
-1.0700857979883334,-1.41528320312,-0.77600097656,0.032407042184091205,0.1789448073089913,0.14803495860916668,-0.07678222656,0.28442382812,0.013703486925929981,0.1163630103461223,0.10549926757607146,-0.1279296875,0.39965820312,0.019676974693517296,0.1394371722130973,1.1007917579816664,0.78169640185,1.41568367059,0.03176807565344295,0.17717190600266242,974.3651570677466,974.3424527963,974.44393733285,0.000754025501477922,0.10148453655006051,0.027295585859488502,-0.00037871084812373794,2.974617654233559,0.68,0.32,1.9475961661437944,Stairs up
-1.1014895748742854,-1.38647460937,-0.83459472656,0.019408088083019387,0.13840532862224678,0.16602513697077925,-0.12097167968,0.57531738281,0.04161110628735478,0.20265907902089395,0.10439706777415585,-0.14660644531,0.32543945312,0.015913085177505785,0.12532526374854383,1.14260498747013,0.86875579543,1.40881161499,0.023887625401889944,0.15354932920910694,974.3201080249952,974.2747679964,974.36362315535,0.0006366709707528421,0.08885515894996843,0.025067957966041447,-0.0008998779877589298,-0.9028372939861149,0.39,0.61,-0.09778858822321229,Stairs up
-1.1023377763437232,-1.2900390625,-0.92016601562,0.01362657633765971,0.11611034734079259,0.15368262757457446,-0.17736816406,0.50256347656,0.028446523556669517,0.167761440640098,0.10384937042617023,-0.03210449218,0.23266601562,0.005336745828408232,0.07266341539328203,1.132011217387447,0.93725279886,1.37167725278,0.015169077443165454,0.12250593568834311,974.2442784491514,974.19759178729,974.28093115704,0.0005082445884516938,0.08333936974997869,0.02242404359449338,-0.0006358384031142167,-1.3291782101050489,0.47,0.53,-0.057170889170822574,Stairs up
-1.1138432820598958,-1.43041992187,-0.91589355468,0.015259304322389686,0.12288349456171128,0.18227640787437502,-0.12963867187,0.37585449218,0.021466185204279235,0.14574834170034776,0.09834925333468748,-0.10778808593,0.23010253906,0.01133584960292479,0.10591396431173586,1.146958789318646,0.92342219396,1.44530051973,0.015754466298721573,0.12486135220626339,974.1811659088962,974.14906104518,974.22358564493,0.00043163095099406606,0.07452459975002057,0.02066723966219351,-0.0006344748521547507,-0.7544118068286423,0.56,0.44,0.2548377179796675,Stairs up
-1.0689711296666666,-1.43041992187,-0.88220214843,0.02263288875454053,0.14957520051110282,0.11421431617908052,-0.20532226562,0.34899902343,0.025055871097681297,0.15737811976039473,-0.013026445762068966,-0.22265625,0.18872070312,0.014502270937456712,0.11973127481180787,1.0926082707502298,0.89746069674,1.44530051973,0.023871618833598406,0.15361390695579522,974.1202446314238,974.0953999568,974.16687688614,0.00037889083073299,0.071476929340065,0.01935292648963124,-0.0006007582930372983,0.42179731841045287,0.59,0.41,0.996294964723931,Stairs up
-1.1284767433408642,-1.32165527343,-0.86535644531,0.018833055015998613,0.13638382662159487,0.12571433738074073,-0.20825195312,0.28491210937,0.015651308785940506,0.12433053829026149,0.06369809751012345,-0.15502929687,0.25524902343,0.015956429805197774,0.12553659563903977,1.1510807508362964,0.89554550108,1.3307255249,0.01837938126703272,0.13473112233431597,974.0684575895789,974.03410888351,974.11125588974,0.0005816320817768862,0.07714700623000681,0.023967716595286803,-0.0006944037012072459,-1.0675426459699238,0.48,0.52,0.2173441543814295,Stairs up
-1.0439927184431068,-1.396484375,-0.81628417968,0.022187375038944065,0.14822942903080677,0.11049141003961167,-0.11267089843,0.22668457031,0.00708517239573978,0.08376386043054453,0.013111299682621353,-0.15075683593,0.32104492187,0.02070112626733921,0.14317871510430047,1.063393489922913,0.83529783891,1.40633983854,0.021189555870409583,0.1448579719138976,974.0226197321779,973.98071952505,974.08350854556,0.000569910004756366,0.10278902051004479,0.023756617981397755,-0.0005748787292179028,0.2767907010594879,0.55,0.45,0.6006624028029309,Stairs up
-1.0714376698334782,-1.52819824218,0.02575683593,0.06794261238918062,0.25923754691937756,0.26702217433543474,-0.11853027343,0.77612304687,0.05367685424173068,0.23042007328764952,0.14170373004271739,-0.11926269531,0.43518066406,0.027166358152292378,0.16392398131645358,1.1540270794308694,0.56960769108,1.65070926818,0.05535120000904363,0.2339862314981043,973.9888301212048,973.9521445076,974.03021273495,0.00043120238305992714,0.0780682273500588,0.02065224928755613,-5.511254705306863e-05,-0.9064693167214704,0.47,0.53,0.22527598879230354,Stairs up
0.845066300353012,0.02575683593,1.13012695312,0.07516121284588355,0.27249891020811046,0.19436682275734943,-0.02429199218,0.56896972656,0.021657092121431205,0.1462742742271896,-0.25594026496228917,-0.41625976562,-0.00793457031,0.011863660985856155,0.10826229866083469,0.9474714924690362,0.56740099931,1.16187101852,0.027421629723298323,0.1645941938292318,973.945700092704,973.92585169511,973.96384797429,0.00015522349979056466,0.0379962791799926,0.01238359144765708,0.00030310679081856225,-1.3730734918737988,0.53,0.47,0.043408953734271595,Stairs up
-0.8701298154610344,-1.52478027343,0.93908691406,0.48605552247384126,0.6931584792729114,0.31673177082942533,-0.03662109375,1.02905273437,0.0914982407128893,0.3007433071518786,-0.011641579112873564,-0.2763671875,0.24499511718,0.030782740168827524,0.17443885911455,1.1645554752690803,0.43220450391,1.72299702186,0.10392970586258655,0.3205231840948903,973.962966234106,973.93526092177,973.97683557318,0.00010878716105594152,0.04157465140997374,0.010369991992155417,0.00020197166422699001,1.0002811626883688,0.48,0.52,-1.1076708502360861,Stairs up
-1.2036059570278999,-1.43444824218,-0.85229492187,0.028869927477272298,0.16905983616015832,0.20797607421550005,-0.30212402343,0.58874511718,0.06012273033909188,0.24397029129732364,0.04252441406260001,-0.29455566406,0.30419921875,0.024046549146022677,0.154292202183268,1.2552252125346,0.85841577922,1.46264374385,0.03035167044586659,0.17334403289818753,973.9695576881558,973.95707823489,973.99971006033,9.204406232652347e-05,0.04263182544002575,0.00954586935293262,-3.9097868980466045e-06,2.291790685301783,0.48,0.52,1.3682249243894504,Stairs up
-1.2213079279077272,-1.49658203125,-1.05126953125,0.01466562107691674,0.12041165347237691,0.19719210537818183,-0.22229003906,0.47717285156,0.044118530975075905,0.20884727441883774,0.11628306995477274,-0.22180175781,0.2666015625,0.010914785983801257,0.10387855565464138,1.2639620022252274,1.07412029161,1.53474162474,0.01548243185582138,0.12371942099034834,973.9736004789611,973.95437863838,974.02112274977,0.00013366461798314954,0.06674411138999403,0.011495464404264173,-9.242341508181039e-05,7.680121941749563,0.48,0.52,1.976798631921855,Stairs up
-1.1925305025048147,-1.40161132812,-0.90649414062,0.024961981816630376,0.15701531518170528,0.14871931664617286,-0.10314941406,0.46215820312,0.031002325430615253,0.17498451552126718,0.08559088059197531,-0.18713378906,0.3076171875,0.020290206914875604,0.14156168455203716,1.225121172183827,0.93714961815,1.4592059885,0.026287990348404282,0.16113176985834682,973.9441777512176,973.9055662451,973.99437429128,0.0004652886864814196,0.08880804618002003,0.021436986301951216,-0.0005772801482150863,-0.5781897862312948,0.48,0.52,0.23294585130960246,Stairs up
-1.261547612205098,-1.45983886718,-1.06579589843,0.01226402635003943,0.11019886931174958,0.09607651654147058,-0.36145019531,0.41418457031,0.03942873065454627,0.19759092709853499,0.13191133386862744,-0.17626953125,0.41650390625,0.030291833512250677,0.17319022706933163,1.298377337123431,1.11421449595,1.51073951449,0.01366475353087811,0.11632190403791866,973.8903779134511,973.85852437151,973.94162895254,0.000623910279565091,0.08310458102994289,0.024855452361974312,-0.00048014422157267156,-0.5536153479373058,0.49,0.51,0.5156272531369868,Stairs up
-1.2056517242065592,-1.43444824218,-1.04296875,0.00954665884537141,0.09718027886213465,0.16367003738086022,-0.25378417968,0.53063964843,0.0511991015094353,0.2250523795391099,0.1568734774003226,-0.06665039062,0.39147949218,0.015954184940341308,0.12562895591637588,1.25283133004,1.07440819196,1.46687577768,0.01140475406460097,0.10621733521636417,973.8385751799768,973.79253312967,973.89415834442,0.0006078352303702357,0.1016252147500154,0.024521406315260195,-0.0007743952896705109,-0.3753012832227287,0.48,0.52,0.11753247997544901,Stairs up
-1.1676348950450601,-1.33447265625,-1.01208496093,0.008374341044841783,0.09095848157045457,0.12415727362397593,-0.29345703125,0.51965332031,0.038573676715736076,0.19521509578609794,0.06916386247867469,-0.09448242187,0.21655273437,0.005051189819205069,0.07064228273873904,1.1936672429913253,1.02178642081,1.38512220755,0.010224325346428267,0.10050443126400058,973.7761753088157,973.7314051248,973.81809736275,0.0006083680213451476,0.08669223795004655,0.024516082194107162,-0.0007989574906699637,-0.835921972760675,0.57,0.43,-0.07658234926357228,Stairs up
-1.1330328606902595,-1.39770507812,-0.78991699218,0.02744304625551877,0.16458020250745578,0.11504889153636363,-0.22644042968,0.47790527343,0.02721937338292203,0.1639081298389426,0.04943689123220781,-0.22387695312,0.22082519531,0.013442074974689607,0.11518464555842897,1.1568749184194802,0.80034578159,1.41616989347,0.028676584018742873,0.16823840480005833,973.7164541128085,973.68233569948,973.75478044105,0.0004519960080547854,0.07244474157005243,0.021121693351341408,-0.0005782938625814798,-0.8126562005153515,0.43,0.57,0.08503354201660579,Stairs up
-1.0521754844472548,-1.3466796875,-0.82678222656,0.019341800011376028,0.13839138167193946,0.11936561733901964,-0.13159179687,0.33203125,0.016034180794375758,0.12600390050887514,0.036671357994411756,-0.22387695312,0.23095703125,0.013969242086281168,0.11761075092224392,1.0729449856400979,0.84489142953,1.3858515916,0.020517848537756355,0.14253663795647495,973.6425596913372,973.59733832342,973.72848395331,0.0010087554208637324,0.13114562989005663,0.03160483605139657,-0.0005350489598955137,0.6696031406851031,0.54,0.46,0.8767455220169968,Stairs up
-1.1978300361182794,-1.51049804687,-0.92712402343,0.021754552460702965,0.1466991224982981,0.10342243153344084,-0.20544433593,0.52355957031,0.03359763984949188,0.1823084608702341,0.12364016296913978,-0.11889648437,0.40600585937,0.022840174510806728,0.150314940163967,1.230987390576989,0.95753130402,1.54125292537,0.023049360176122396,0.1510017138763115,973.5967049760447,973.56461345353,973.63786532936,0.0004716893813681054,0.07325187583001025,0.02160132987887992,-0.00043659750785296177,-0.7219149463413168,0.44,0.56,0.01984207981624364,Stairs up
-1.0590271681851686,-1.64489746093,0.14135742187,0.15511692688165007,0.39162997850363185,0.33195444171123595,-0.11071777343,0.6474609375,0.054009164727513895,0.23108942031173504,0.17672626623741575,-0.16442871093,0.45788574218,0.025041329090231282,0.15735299756288865,1.1924306802722473,0.53311115911,1.78795858749,0.07343497845204415,0.26946217978522596,973.5018271562354,973.41937535885,973.57917004168,0.002113255989937148,0.15979468283001097,0.045711175226764975,0.0001280161573589284,-0.8605594911635923,0.54,0.46,0.19635106652726492,Stairs down
-1.1905502319293748,-1.88989257812,-0.67712402343,0.13021339362637113,0.35858851934500285,0.1874176025355,-0.02795410156,0.53894042968,0.02671661474069964,0.16242739010536644,0.12739105224312502,-0.0234375,0.4560546875,0.005450576805477685,0.07336514564429907,1.2244320327581248,0.67943306249,1.91169749919,0.13152477741137852,0.36038967478791106,973.5281403511392,973.49537384657,973.55650194161,0.00044887069651061733,0.06112809503997596,0.021053736314588786,0.0006277323993416367,-1.5397439035490332,0.51,0.49,-0.022830719079634732,Stairs down
-1.067996754362157,-1.69189453125,0.08288574218,0.22815325633555053,0.47530670067316516,0.12839642692911765,-0.62036132812,0.61608886718,0.1007652980278311,0.31587561309655876,0.06870763441892154,-0.94567871093,0.63061523437,0.11227169142811497,0.33342313742596896,1.2234996496055879,0.48559409208,1.74838408728,0.10511215563834281,0.3226168692250223,973.5896663355636,973.54299609616,973.66128778446,0.0008228846956630716,0.1182916883000189,0.02854500304163177,0.0005187895987855735,0.8274831610057145,0.51,0.49,0.8792182460885405,Stairs down
-0.8313132665468815,-1.57189941406,0.22338867187,0.36774176742688686,0.6031480372793313,-0.0033772786461290323,-0.58325195312,0.51489257812,0.11154411873314318,0.3321817568846615,-0.0569779590895699,-0.93395996093,0.5234375,0.129980992167184,0.35858520199544974,1.0860248878192476,0.5841003864,1.61387166725,0.11888352302704411,0.34293615378834064,973.6086562977588,973.57332277503,973.64314672225,0.00044575128066600805,0.06982394722001573,0.020999006075115022,0.0006249238244370865,-1.409261227251047,0.48,0.52,0.005581547925519735,Stairs down
-1.1961829775810715,-1.74780273437,-0.63952636718,0.11065499350982466,0.3306624746754872,0.2684849330321429,-0.02014160156,0.54797363281,0.026803704731514492,0.1627409383299736,0.2146519252185715,0.03063964843,0.36682128906,0.010536717465857447,0.10203568176460952,1.258386251157381,0.64026159353,1.77667730643,0.11305684739411125,0.33423185447258213,973.7054673452405,973.64314672225,973.75218902432,0.0007880680504153461,0.10904230207006549,0.027904950956961053,0.0010223130726855379,-0.9683381443601782,0.6,0.4,-0.11354171311924083,Stairs down
-0.48989546926407906,-1.95825195312,1.26684570312,1.0148793171195303,1.0007625302209677,0.3171418842477632,-0.07873535156,0.66589355468,0.047214969385410456,0.2158557846994933,-0.09618016293171054,-0.53381347656,0.36608886718,0.08124836332545401,0.28315950613263363,1.1568180635167105,0.55409200698,2.0059705293,0.14176310887000043,0.37402914967408823,973.7653126654586,973.73354310396,973.85395476467,0.0008390404563566357,0.12041166071003317,0.028774996965281217,2.0888778310651165e-05,1.4286987823821091,0.54,0.46,1.3151511878903588,Stairs down
0.6928877396981817,0.36462402343,1.015625,0.03495140294300846,0.185887675518215,-0.36610412597386366,-0.84216308593,0.5361328125,0.09029974533518194,0.2987869004248077,-0.5032723166690909,-0.84777832031,-0.21081542968,0.032390164869123536,0.17894718442544044,0.979548897792159,0.59891828043,1.45417490838,0.06447524021162644,0.2524729035508631,973.8042193192196,973.77045082358,973.85006204126,0.000506178373148445,0.07961121768005341,0.022370211134024844,0.0004379766379512984,-0.3469339310098376,0.66,0.34,0.8355672998319265,Stairs down
-0.9864760890120202,-1.85339355468,0.623046875,0.32439286771793435,0.5666711322137558,0.3040808475342424,0.01354980468,0.57934570312,0.03082890153360592,0.17469258280708977,0.11744890309141416,-0.21081542968,0.44506835937,0.02421138785555261,0.15481223589324003,1.146155532569091,0.57006093577,1.87132294431,0.14276454105389325,0.3759288163770394,973.879519922875,973.80734784556,973.94853086635,0.0012909397457398933,0.14118302078998113,0.035747726505728716,0.0011127684788535357,-0.36409294763249855,0.53,0.47,-0.13660842633717585,Stairs down
-1.2600783444484271,-1.6826171875,-0.72314453125,0.08621559493684851,0.291970684122561,0.21022976650123598,-0.04223632812,0.55908203125,0.03595904436263524,0.1885603621027322,0.16114652826202247,-0.033203125,0.44506835937,0.020065295573531258,0.14085397692034862,1.30674509719,0.72746057279,1.74936327249,0.09205550832259002,0.30169716068999325,973.9515320451471,973.90579341394,974.06115252286,0.0012093671799359728,0.15535910891992444,0.03458003448025744,0.0005825135223322381,2.412455534898508,0.72,0.28,1.5900172231307426,Stairs down
-1.1350700472562962,-1.48718261718,-0.77600097656,0.030539627046403933,0.17367381671896395,0.2619960455211111,-0.00561523437,0.50817871093,0.01859541237795168,0.13552062346975566,0.22806954089197526,0.06408691406,0.45483398437,0.011979838520495447,0.10877471801619011,1.1972863864107408,0.79272557744,1.56432109566,0.03328597884125568,0.18131475624137658,973.9735212134785,973.93534801818,974.01627766522,0.00021466545784872378,0.08092964703996586,0.014560744040435749,0.00022350312915724534,0.8202948520737818,0.43,0.57,-0.6602391047491994,Stairs down
-0.4864697265588998,-1.17028808593,-0.17749023437,0.048001368154456645,0.2179939321928757,0.7328625488243997,0.23828125,0.99255371093,0.024687249219531304,0.1563341828498681,0.0742138671865,-0.45690917968,0.90368652343,0.20617584806165276,0.45178987326082937,1.0215877243096998,0.82541931542,1.25661691863,0.011800354275149489,0.10808492370538082,974.126841511887,973.77816703045,974.63044681727,0.06147009152680799,0.8522797868199632,0.24668885384536512,-0.005702906416520139,-0.8527768213991678,0.52,0.48,0.4159927604596027,Stairs down
-0.3067127574544318,-0.46203613281,-0.1201171875,0.010707144982586564,0.10288572729252447,0.48258972167579545,0.2978515625,0.70190429687,0.006656326888712034,0.08112143249740611,0.8417871648577272,0.68518066406,0.92578125,0.004235725711820531,0.06471160997143634,1.0273402810401135,0.94685573558,1.09668405588,0.0015140906570776064,0.03868959913761058,974.139643628334,973.84409019289,974.47562453261,0.025213418825678856,0.6315343397200195,0.15788255984325747,-0.004116705091802097,-0.6215479423973127,0.43,0.57,-0.35280147931575717,Lift down
-0.25925638217808084,-0.32177734375,-0.1630859375,0.0018427259582363233,0.04270963081927523,0.6246831103974747,0.4248046875,0.92272949218,0.025649219726640485,0.15934282757343884,0.7153936829195959,0.32775878906,0.95092773437,0.03427769924092067,0.18420493982151712,1.013984565708687,0.89513427698,1.12310905616,0.0022345626414468265,0.04703181159209405,973.8746102380546,973.49181849436,974.24394609736,0.04626013576777152,0.7521276029999626,0.21399266732555852,-0.005098245587171426,-1.2226675446800428,0.57,0.43,0.037840180280127096,Lift down
-0.3124561095469663,-0.45825195312,-0.16552734375,0.00829641359992826,0.09057149369195579,0.7657662723806742,0.66015625,0.92272949218,0.0045326778490203425,0.06694586532732703,0.5686775807542696,0.32275390625,0.71325683593,0.01297843680371031,0.11328111789298494,1.0151630640122473,0.90671387671,1.1077685007,0.002409578569475573,0.048810907110651114,973.9868086374993,973.79632790076,974.19038461275,0.013946645998175815,0.39405671198994696,0.11743058422130012,-0.0007555572598559673,-1.0739992538993177,0.4,0.6,0.026244111805723305,Lift down
-0.3052420910460493,-0.47253417968,-0.11999511718,0.013289644960257793,0.11456690302783964,0.7656219859145679,0.56494140625,1.01281738281,0.02042928039097867,0.1420460032975882,0.4931203583095062,0.09448242187,0.77575683593,0.0656989277557857,0.25473089699182055,1.0090650563803703,0.94468943499,1.14497466497,0.002526826832709643,0.04995629529612086,974.0507624160589,973.67547397201,974.37350293706,0.04293838937443792,0.6980289650500708,0.20593272154253192,0.006400792677544417,-0.6993324651357185,0.38,0.62,-0.3890200720411117,Lift down
-0.15580121208323533,-0.23107910156,-0.08813476562,0.001493946208108575,0.03846166502709588,0.5010830748288234,0.45263671875,0.56494140625,0.0012746284125376426,0.03552649793537184,0.8318708831164706,0.73889160156,0.89855957031,0.0016794363993020668,0.040779545565930615,0.985587748507059,0.94468943499,1.02163592321,0.00039247257302266685,0.01971356899952201,974.183438814568,974.067820683,974.3232889093,0.008262340102680737,0.2554682262999677,0.09045074222106046,0.0010157931434586996,-1.516814199788417,0.58,0.42,0.2505561081699332,Lift down
-0.14970545614677422,-0.17163085937,-0.13330078125,6.17996610485949e-05,0.007818896889216624,0.4662547778018279,0.4560546875,0.4775390625,3.891615192321171e-05,0.006204651374309886,0.8833178448373117,0.87316894531,0.89245605468,3.0232056136075624e-05,0.005468727481201152,1.0100230950444085,0.99989224389,1.0209336045,3.896269192637743e-05,0.006208360351151479,974.2701512746675,974.17445860185,974.34769635709,0.002307684141865392,0.17323775523993845,0.047779392355788125,0.0016311354836382212,-0.5353967318882358,0.52,0.48,-0.1334804075682169,Lift down
-0.1560852786115663,-0.16723632812,-0.14733886718,3.736063973670263e-05,0.006075402171634715,0.45391183875795177,0.43835449218,0.46923828125,8.031589702011776e-05,0.008907762660187845,0.893070818426747,0.87768554687,0.9052734375,4.32611405169111e-05,0.006537577682633407,1.0139457890890362,1.00178084649,1.03108529018,4.7566842366895765e-05,0.006855198602560514,974.4605529868535,974.32469780128,974.58789575425,0.005124828200692134,0.26319795297001747,0.07115534612811258,0.0028110415086850344,-0.9778438344424218,0.4,0.6,-0.42918542359033296,Lift down
-0.15429687499639536,-0.16357421875,-0.14343261718,4.2189219421638023e-05,0.006457448962460467,0.4498518123148837,0.43884277343,0.46801757812,6.785235392766508e-05,0.008189222983167637,0.8921693313929069,0.88427734375,0.9052734375,3.7969479647394816e-05,0.006126008004410337,1.0110603046339535,1.00315941962,1.02826902111,4.415841200640075e-05,0.006606431873511569,974.6757573387755,974.58789575425,974.76541062684,0.003914414154245952,0.17751487258999532,0.06220046390978068,0.0023924323878753827,-1.6845596126814404,0.45,0.55,-0.07137323238184264,Lift down
-0.16301757812079998,-0.17370605468,-0.14929199218,5.089794745926625e-05,0.007098518717639166,0.4404772949181,0.42248535156,0.46069335937,0.0001694267732046895,0.012951158460641373,0.8969555664024,0.88134765625,0.90966796875,4.7971810959706565e-05,0.006891450707224822,1.0126014020402998,1.00407774829,1.02300988065,2.8566027498331124e-05,0.005317928847149782,974.8534360551092,974.75929002985,975.00908813879,0.004959141048850552,0.24979810894001275,0.07006817850038666,0.0022938232451429,-0.5126607998142254,0.64,0.36,0.7554664771272838,Lift down
-0.15558403862477777,-0.17175292968,-0.14196777343,5.14857424367078e-05,0.007135382164387237,0.4367838541614445,0.42443847656,0.44946289062,4.953956337538176e-05,0.006999223084194557,0.895925564231889,0.87915039062,0.90966796875,6.998589125865968e-05,0.008319150812713673,1.0088603112681112,0.9968287206,1.01965431406,3.956804177608353e-05,0.006255269527962834,975.0884128394941,975.00908813879,975.17598652031,0.0019557517596660162,0.16689838151989989,0.04397750771199541,0.0016587519864987462,-1.2840637483307609,0.48,0.52,-0.06905240489764379,Lift down
-0.15060763888506173,-0.171875,-0.12805175781,0.00020587742325409278,0.014259583678028924,0.441986460741605,0.42443847656,0.45703125,3.927295314748722e-05,0.006228009463228316,0.9061369719297531,0.88623046875,0.94396972656,0.000179780191859566,0.013325189804205037,1.0194866106033336,1.0006030842,1.05740178839,0.00018796007424958295,0.013624961633184914,975.2974323124986,975.17598652031,975.44604738886,0.006843988188346355,0.2700608685501038,0.08221614505076692,0.0034030398676277384,-1.2593627505977596,0.43,0.57,0.05117880418385099,Lift down
-1.0646338369292156,-1.28479003906,-0.84643554687,0.02396408777739905,0.1540426750623532,0.12688131893166668,-0.11975097656,0.51245117187,0.024540780013012572,0.1558851632790371,0.1280290192235294,-0.13464355468,0.29187011718,0.012857484855258464,0.11283364339667355,1.0970102659178433,0.87270651547,1.32433611706,0.02349508700720616,0.15252784341535625,975.5887245109753,975.55257633359,975.62280047014,0.00040150747470823084,0.07022413654999582,0.019939185713488242,-0.00027970443242958403,-0.6663665745397034,0.53,0.47,-0.0029209666994101545,Stairs up
-0.8332782048009677,-1.24829101562,-0.06787109375,0.12079129298311271,0.34567681709331827,0.40302366851096755,-0.05346679687,1.0380859375,0.1027916489730654,0.31888299174613866,0.013712565103225806,-0.14416503906,0.16320800781,0.00828070754964824,0.09050783216674119,1.0199075771683872,0.64974394715,1.37143733401,0.04662909253075418,0.2147736120640188,975.5248951645063,975.49108141299,975.6185383522,0.0007266261124406669,0.12745693920999202,0.02681068683260331,-0.0007106883959705752,1.6231658863386667,0.58,0.42,1.317633171889678,Stairs up
-0.3976295107888094,-1.318359375,0.25317382812,0.38902153483819507,0.6199921984106908,0.7210373651378571,0.03771972656,1.18481445312,0.08938518996635743,0.2971886279149928,0.2714800153415477,-0.07385253906,0.54919433593,0.021798642085971064,0.14676216965584304,1.1029631144464287,0.73127125195,1.40364036547,0.029782977023726617,0.17154712988984733,975.4812905568326,975.45127702134,975.52614393778,0.0004956258362277091,0.07486691643998711,0.022129743076989613,-0.0005572219515765581,-0.5846301487379382,0.58,0.42,0.5908693744523235,Stairs up
-0.53485030162,-1.37561035156,0.21435546875,0.3027252069130145,0.5467112970010277,0.49026064329316443,-0.06091308593,1.10339355468,0.14217579887011927,0.37466799331346073,0.2524877620612658,-0.09191894531,0.54528808593,0.03540398077441504,0.18696478042412878,1.02228105436519,0.8197260077,1.37845458287,0.019584946701704967,0.13905767143153902,975.4727224798696,975.36235554404,975.62234885455,0.0023062069154058612,0.2599933105099126,0.04771807228719311,-0.0007490919384409931,2.436902854513427,0.49,0.51,0.4339322792877241,Stairs up
0.1299246993698039,-0.07043457031,0.33471679687,0.015168756687050765,0.12255628660414498,0.9486000210590194,0.74865722656,1.18371582031,0.01894610449219548,0.1369684575722563,0.351944268915098,0.19494628906,0.53173828125,0.008243257949769753,0.09034623232520682,1.0296077316169607,0.82849698439,1.30483232482,0.022660116331994398,0.1497930516704281,975.3656647144575,975.35189707474,975.37341466421,2.9401606479293386e-05,0.021517589470022358,0.0053956793302955604,0.00011880337454312734,-0.28274443315078157,0.49,0.51,-0.4139597112848259,Stairs up
0.1233162257955435,-0.04516601562,0.24182128906,0.005928776597439433,0.07657893557339526,0.9144592285128261,0.74877929687,1.10791015625,0.010861798834345415,0.1036519937267842,0.3773896590484781,0.22814941406,0.62573242187,0.010805743157698154,0.10338418364393644,1.0023189316413044,0.83119360976,1.29061606452,0.01670016835686363,0.12852488003405133,975.3432207686443,975.3002169836,975.37392820871,0.0006584139912149059,0.07371122511005979,0.02551974367812797,-0.0008914876257192148,-1.4167177092885557,0.52,0.48,-0.19143411765725796,Stairs up
0.16852762612614455,0.02001953125,0.291015625,0.006068193738175604,0.07742792112827114,0.9224559370265061,0.73449707031,1.15869140625,0.01980192726371248,0.13986904527736035,0.43672786850108436,0.23205566406,0.58386230468,0.013608652683482055,0.11595125274267945,1.0409866478272292,0.82228580368,1.30800253195,0.025717522169383084,0.15939784347566224,975.2965067665444,975.27665378189,975.30936104478,0.00012378651573433992,0.03270726288997139,0.011058712037588812,-0.00040363156058969836,-1.1234271982678043,0.37,0.63,-0.6099506930814566,Stairs up
0.19546026932263158,-0.07238769531,0.30590820312,0.012128740198454125,0.10954939182394721,0.8579397101114735,0.53771972656,1.20922851562,0.036128275164914715,0.1890713556612948,0.47901033099968393,0.26159667968,0.73986816406,0.020105582719628198,0.14104589680947832,1.0163023167449476,0.76589395703,1.39174311403,0.038898207860958434,0.1961855067056927,975.2424143248596,975.18788858114,975.28978295466,0.0008790120539205524,0.1018943735200537,0.02949168180111522,-0.0009963854078711872,-0.9575180091908044,0.55,0.45,-0.13221664324133575,Stairs up
0.21043904622052081,0.00744628906,0.39514160156,0.011612435286457824,0.10719828552216008,0.8685124715130209,0.6171875,1.19311523437,0.027818011289986174,0.16591636549493488,0.4484494527153125,0.26904296875,0.6875,0.016565536549054134,0.12803506893296132,1.007925843096771,0.73317898084,1.39174311403,0.039616272952728675,0.19799899859040807,975.1764891035218,975.1467793601,975.20955686919,0.00028112637206429385,0.06277750908998314,0.016679267740380296,-0.0003992716150373112,-0.8929964658284684,0.41,0.59,-0.20416075544222467,Stairs up
0.5711556368062791,0.11340332031,1.20263671875,0.06188454509753545,0.24731550166506583,0.7872215093534882,0.45397949218,1.18835449218,0.03376020235666152,0.182668119452033,0.19527133675348837,-0.17736816406,0.59399414062,0.07067653102233327,0.264300417884964,1.0574238464906975,0.77486334488,1.338613468,0.030666062318162806,0.1740961808833961,975.1271461739088,975.09298644463,975.15851442689,0.0003116179422717193,0.06552798225993683,0.017549771446565887,-0.0006623065435642328,-0.739007419414115,0.49,0.51,-0.2822134517108713,Stairs up
-0.227157399623038,-1.19018554687,1.0205078125,0.5705903024843543,0.7505782040717611,0.3922799025893671,-0.52062988281,0.9501953125,0.16642701730604215,0.40536446094952916,0.24416071251683544,-0.1591796875,0.44458007812,0.0365560067878781,0.18998229529285196,0.9962923082683546,0.5957777258,1.37387987591,0.03674650093627031,0.19047665304387973,975.0882238424472,975.05278164685,975.11749228429,0.0004056978908886605,0.06471063744004368,0.020014056923779788,0.000440731925527184,-1.077244980599264,0.46,0.54,-0.23287480923179593,Stairs up
-1.0373986816373,-1.3837890625,-0.77819824218,0.02975863418646088,0.17164220880831227,0.16806518554360003,0.0771484375,0.29309082031,0.0029877831523521738,0.05438662814358555,0.028658447264300006,-0.068359375,0.31079101562,0.005743210921717998,0.07540410341951437,1.0548974414528,0.79180719776,1.40106275488,0.03086803822948678,0.17481235038518278,975.0758469378364,975.02789222613,975.12941416313,0.0007132658282674722,0.10152193700002954,0.02657316635225839,-0.0005778599478861067,-0.6772492663058953,0.45,0.55,-0.11114128094737004,Stairs up
-1.0888251848080643,-1.32214355468,-0.85437011718,0.016440361574394043,0.12752875555320434,0.22156155493548396,0.01049804687,0.46801757812,0.0179561238743235,0.1332780824949261,0.14210690733967743,-0.07995605468,0.32421875,0.012416168914616492,0.11082717050428657,1.1324791310353763,0.88269759586,1.37302814866,0.018826929166410048,0.1364715687161487,975.0307757835623,975.01091299063,975.06402659083,0.00021250066407966549,0.053113600200049405,0.014498817562217436,-4.5145428605117024e-05,-0.3408494583629653,0.47,0.53,0.6646058547882608,Stairs up
-1.1059742647021173,-1.37451171875,-0.81079101562,0.025335805810808944,0.1582331744835841,0.1526955997207059,0.01159667968,0.40515136718,0.011514052539884087,0.10667048841286136,0.13065831801235298,-0.02648925781,0.30969238281,0.01064278813533445,0.10255524785769886,1.133354167082706,0.82596830019,1.41185752976,0.0263184871091272,0.16127261965076348,975.0321580619325,975.01209049385,975.05700760079,0.0002181299730943717,0.04491710694003359,0.014682089024276854,9.598959082219762e-05,-1.3496089520616477,0.46,0.54,0.10479703731746767,Stairs up
-1.0695022750642857,-1.25122070312,-0.85632324218,0.012156320782885813,0.10964823227128077,0.1788102034641758,0.05017089843,0.39562988281,0.006231092715250359,0.0785023513592359,0.12912892770857146,-0.05676269531,0.23413085937,0.007569275827079891,0.0865222339739171,1.0984243288969229,0.87911546548,1.2670685871,0.011747017979824217,0.10778650133553745,975.0276479172576,975.00545249404,975.0902366784,0.0005821079311343381,0.08478418435993262,0.023993981342876645,-5.938088519842377e-06,1.4534009998749449,0.59,0.41,1.5377428688749366,Stairs up
-1.0384916055049496,-1.25,-0.81701660156,0.012380122782231552,0.11070262434538979,0.1370824948661616,0.03894042968,0.27575683593,0.005484268975465001,0.0736808816393179,0.12663376933010104,0.00891113281,0.23010253906,0.004659503305156808,0.0679149292512753,1.0598403782808083,0.83034063339,1.28280552782,0.01245307885013848,0.11102833050570722,975.0325212231977,975.0066332496,975.06114329541,0.00029286287098845894,0.054510045810047814,0.017026586862034142,0.00011302710588814587,-1.3458024655192427,0.64,0.36,0.486740167798813,Stairs up
-1.0988573096228735,-1.37658691406,-0.86059570312,0.022994658237845588,0.15076588414266215,0.18315738370758622,0.04833984375,0.4404296875,0.012373652441643419,0.11059577998960714,0.18744247260804597,0.02880859375,0.32336425781,0.006370381851144796,0.07935464114496757,1.1378067994387362,0.88142048965,1.4280210382,0.02308870668162395,0.15107388671938587,975.0297222332676,975.01127020373,975.06193228818,0.00019501394584494925,0.0506620844499821,0.013884250294399625,-0.00011378654951039366,0.4680956881943734,0.62,0.38,1.1689413669621045,Stairs up
-1.126387023922125,-1.32604980468,-0.86059570312,0.013924514282932994,0.11726234627703955,0.1476684570285,-0.11791992187,0.47143554687,0.023453080351848576,0.15218382584049617,0.118722534177875,-0.17126464843,0.28601074218,0.013051903614938772,0.11352865197716407,1.1576195754536251,0.88411520319,1.3316904622,0.014546621801343917,0.11985319782478529,975.0333212344747,975.00869696812,975.06895856209,0.0003674432585409561,0.06026159396992625,0.019048627714593883,-5.192172825631924e-05,-0.9411872846408702,0.62,0.38,0.589155440104924,Stairs up
-1.0762134898745455,-1.26599121093,-0.92956542968,0.00836635111614857,0.09094657192205846,0.010102705521818182,-0.3564453125,0.47143554687,0.038998667875652086,0.1963555479105364,0.15458401766397728,-0.00341796875,0.46374511718,0.015046724656206538,0.1219661393533043,1.1120871991814774,0.9363069095,1.27781459751,0.0072810792055853155,0.08484302958498247,975.0239871003834,974.99793865223,975.06823544844,0.0003549980346979855,0.07029679620995921,0.01873403229744926,1.885957412798378e-05,-0.40254133306476314,0.6,0.4,0.6178965883302169,Stairs up
-1.1137904928152524,-1.66833496093,-0.84948730468,0.04375354946866873,0.20811437822392442,0.1534645774130303,-0.28186035156,0.49841308593,0.03721255409467951,0.19192881417308025,0.1298840455310101,-0.06506347656,0.31286621093,0.00945894952147593,0.09676468662076344,1.1522435963867679,0.87088658559,1.69871002562,0.04323356971092874,0.20687403652120273,975.0420664857952,974.95996194996,975.226386699,0.0034048692404789298,0.26642474904008395,0.05805580609971955,0.0004280068795261324,4.610429298598966,0.69,0.31,2.037961666851752,Stairs up
-1.191514604542921,-1.51696777343,-0.92846679687,0.0168168874757304,0.12894934541853348,0.1966031535264045,-0.11389160156,0.70764160156,0.0520514266343372,0.22686246746446126,0.16641886850078652,-0.15283203125,0.38500976562,0.02643493982964372,0.16167225499078383,1.2509730291713483,1.00646804615,1.55218957904,0.015528481073325112,0.12391127373203172,974.9913798115468,974.94388073612,975.04687124402,0.00047231494860501197,0.10299050790001729,0.021610368786074065,1.1944572661716747e-05,1.4010951273052523,0.4,0.6,0.8257568174721783,Stairs up
-1.123748779292875,-1.30114746093,-0.96472167968,0.01077052932009259,0.10313048871983219,0.14085540771112498,-0.14599609375,0.40539550781,0.021371538877910573,0.145273516657155,0.11287384033125,-0.2587890625,0.42260742187,0.02999135510117008,0.1720943437838834,1.159510713018875,0.99235801282,1.36504033009,0.012439220838193488,0.1108319925730656,974.9378891811135,974.90526107677,974.98773623316,0.0005697999758083614,0.08247515639004632,0.02372082368111944,-0.0004927862625767097,-0.39988717860812084,0.55,0.45,0.6815768834439724,Stairs up
-1.074657963767647,-1.431640625,-0.85375976562,0.024780817037842504,0.15664567613310298,0.032439587162647054,-0.47497558593,0.30676269531,0.034808388642367,0.18565325187075754,0.10659730200303921,-0.2587890625,0.25866699218,0.009211893257314762,0.095506966124579,1.1008371449822552,0.87946174021,1.44188010431,0.023822765814047905,0.153587790160739,974.8982171260702,974.87513238596,974.97262198,0.0003721012597488114,0.0974895940399847,0.01919513501339979,-0.0002717793675747851,3.4544991117223978,0.65,0.35,1.884353455079433,Stairs up
-1.078373078372473,-1.29357910156,-0.82397460937,0.022808452485588594,0.150210519965561,0.1259253717206452,-0.00341796875,0.30676269531,0.008170030791503016,0.08990095104083157,0.09226415490311828,-0.08654785156,0.22399902343,0.008808054555485063,0.09334529603278137,1.097054712861828,0.84538372254,1.32829002589,0.0233390093587951,0.15194753130247157,974.8542275300299,974.81061637381,974.89327525394,0.0007776141017298289,0.08265888012999767,0.027735404445865662,-0.0007948759987440756,-1.3135749704165511,0.38,0.62,-0.4585109713123701,Stairs up
-1.040269966579277,-1.39013671875,-0.78527832031,0.033377617238517156,0.1815915121138321,0.16465961502000004,-0.02209472656,0.36145019531,0.01453624011965871,0.11983782665139707,0.080095773716747,-0.16528320312,0.1982421875,0.008615059144313089,0.09225650790599063,1.0672435896962653,0.80824119142,1.39565591847,0.03292538197580964,0.18035711970061924,974.7958254265777,974.75829513133,974.88429904825,0.0010681708784327877,0.12600391692001267,0.0324854021027441,-0.0009430610843068247,2.041821158351368,0.7,0.3,1.6987597857683534,Stairs up
-1.0552978515579219,-1.34020996093,-0.79992675781,0.021162053472101955,0.14452412120067676,0.12222408938389612,-0.02160644531,0.24609375,0.004964687872344453,0.07000151002992615,0.05650428672740258,-0.12048339843,0.24645996093,0.011918363591705932,0.10846003710563862,1.0719102889216883,0.80717501361,1.34827307807,0.02061205210678297,0.14263366754866535,974.742871918114,974.69262112362,974.78673599408,0.000508773175016085,0.09411487045997546,0.022409054669590756,-0.0005751331115135711,-0.257550602969423,0.58,0.42,-0.35696554687436366,Stairs up
-1.0126991271933334,-1.31518554687,-0.79577636718,0.021147627094397138,0.1446628470346268,0.08237711588208334,-0.02465820312,0.20849609375,0.003162726812252095,0.05594445228341355,0.06125640869020834,-0.18981933593,0.21997070312,0.012647187807120496,0.11187245535636996,1.0262330832465625,0.81431524449,1.32029977487,0.019721517691562558,0.1396999828761936,974.6812536836755,974.64167003444,974.73519470618,0.000798764362800199,0.09352467173994228,0.028114834174999093,-0.0006967913331444623,-0.6549379625988063,0.5,0.5,0.5794835905210111,Stairs up
-1.0386436060818949,-1.36596679687,-0.77001953125,0.026108615465750173,0.16072892687544377,0.07707391035852632,-0.13818359375,0.18957519531,0.006549380337185848,0.08050117695742877,0.08300395764694737,-0.08752441406,0.32690429687,0.01456236853592041,0.12003782922924179,1.0552557147361048,0.77232080821,1.37145752713,0.025032772351045746,0.15738255775082777,974.6329949443774,974.58993536396,974.66560963443,0.0005174955819551059,0.07567427047001729,0.022628483379135002,-0.0005628606131167299,-1.073737865314371,0.53,0.47,-0.16038270059082635,Stairs up
-1.0475151594268604,-1.30920410156,-0.77001953125,0.026704527677966924,0.16246233383239833,0.10934093386372092,-0.04345703125,0.26452636718,0.007829754019533371,0.08796994013947859,0.014661212301744187,-0.21704101562,0.25439453125,0.013267512541315292,0.114513052267731,1.0625287741980232,0.77232080821,1.33776305766,0.02806328083074334,0.16654417915910844,974.5900777328557,974.56453395741,974.61416699291,0.00027598582278906157,0.04963303549993725,0.016515952449518922,-0.00031374110344768404,-1.3445745122242427,0.53,0.47,0.004296862382444679,Stairs up
-1.0413818359339284,-1.29931640625,-0.86962890625,0.01398306510522812,0.11754403449112845,0.10036214192511908,-0.16552734375,0.27368164062,0.010888895296291503,0.10372687978717604,-0.008892240977380953,-0.20715332031,0.265625,0.02190315417932485,0.14711356954359003,1.0620155748844047,0.88513092684,1.32329656622,0.013125198742373771,0.11388128194041869,974.5453692444395,974.51033099665,974.59918575856,0.0006148903710721722,0.08885476190994268,0.02464894009094564,-0.0009032180362938606,-0.29732748211904925,0.54,0.46,0.5536106450325411,Stairs up
-1.0555190284626732,-1.37585449218,-0.80908203125,0.03302178970334928,0.18081714877313165,0.10771315168267326,-0.03442382812,0.224609375,0.0037911769658542952,0.0612669614086726,-0.011115650138910891,-0.13500976562,0.16137695312,0.007123386508338317,0.0839812951141374,1.0662871843350497,0.82147284593,1.37692959271,0.032702871274729525,0.17994188081163662,974.4993816083388,974.47352259882,974.52104221339,0.00015903747735595967,0.04751961457009202,0.012548420174160841,-0.00024345478209340573,-0.6798581512123096,0.44,0.56,-0.43352536792150165,Stairs up
-1.0756460336499998,-1.28015136718,-0.81103515625,0.01708417292835302,0.12998628683174693,0.16391762533967033,-0.02026367187,0.38427734375,0.010472678778022687,0.10177226732193115,0.09443547175219781,-0.05737304687,0.23779296875,0.006165879888215043,0.07809047935802756,1.101685199038022,0.82288267673,1.31551941903,0.01724398367120518,0.13059283803160102,974.4637225567302,974.438919022,974.55957218064,0.0005564879132157411,0.1206531586399251,0.023460022621944798,-0.0002159036543839773,9.59439212928552,0.69,0.31,3.0168612600224862,Stairs up
-1.0452895745967072,-1.28991699218,-0.84899902343,0.013850599709193235,0.11696875632681618,0.12398473227463414,0.05749511718,0.24206542968,0.0033544463426460145,0.05756334302677898,0.10228450123524388,-0.01184082031,0.23779296875,0.005046003100758149,0.07060075408646972,1.0616893788558537,0.8570556119,1.30020263335,0.01342368903261934,0.11515201043764411,974.4584623270431,974.44176950196,974.49491189372,0.00020280809331503006,0.05314239175993407,0.014153968485352756,-1.5750923800382447e-05,1.1945235551568967,0.6,0.4,1.35080864818825,Stairs up
-1.0787176834872367,-1.29113769531,-0.90686035156,0.012117509326980106,0.10935295338847964,0.16874614514381578,0.03588867187,0.38842773437,0.010210004982173457,0.10037760114365846,0.1345038162993421,-0.01245117187,0.25732421875,0.006031019569826351,0.07714702877733362,1.1066573953961847,0.92690943933,1.327623396,0.013841935238404067,0.1168751663595948,974.4579329641875,974.44162081841,974.48052583663,0.00013501239962439952,0.03890501822002079,0.011542786521545534,-7.288052766625155e-05,-0.8523242434468439,0.63,0.37,0.6760424611908227,Stairs up
-1.1299185704665657,-1.42199707031,-0.84130859375,0.022288231597696186,0.1485365205772446,0.16272959082737376,-0.13427734375,0.34558105468,0.01848879294604674,0.13528502305038514,0.22058968591868688,-0.02478027343,0.55456542968,0.03246924684081287,0.17927987798551634,1.1829843659894952,0.86040941751,1.52669459155,0.02516529998262668,0.15783252210272514,974.4553076249513,974.43965764236,974.51352552556,0.0002622283721104371,0.07386788320002324,0.016111474193101577,0.00010052807957680121,4.389071027240642,0.63,0.37,1.9902241659589042,Stairs up
-1.138744597735638,-1.37353515625,-0.87194824218,0.019526194923515393,0.13899089698827638,0.15480463555159574,-0.05688476562,0.42541503906,0.017287140989036127,0.13077933794691582,0.1542475274239362,-0.18530273437,0.31469726562,0.02187039496967661,0.14709769268551923,1.1749365578301063,0.8916294223,1.41715274797,0.022316969288094055,0.14859190664770217,974.4485117569742,974.43689204324,974.46472517016,5.5354122071718604e-05,0.02783312691997253,0.0074003546153314686,0.00013706728682616858,-0.5363533975403709,0.57,0.43,0.5004161828149527,Stairs up
-1.1251838235255294,-1.39794921875,-0.80090332031,0.02616868083829304,0.1608129783472135,0.19720530790258825,-0.04174804687,0.44775390625,0.024322454284253895,0.15503647236461063,0.12574534696564707,-0.11096191406,0.34826660156,0.018045062472991723,0.1335393860266262,1.1680638795625882,0.8322697508,1.39881338363,0.02438399565892496,0.15523248732710926,974.4515598363159,974.42907630612,974.49091293163,0.0002793606312157423,0.0618366255099545,0.01661547578477308,-0.0002452790521149779,0.2831915929683544,0.49,0.51,0.6595561674803948,Stairs up
-1.0224595013749411,-1.37280273437,-0.84204101562,0.025681148148090346,0.15930793135750312,0.10295122931682354,-0.03442382812,0.24633789062,0.003450695949081957,0.05839605745383485,0.09292853860129412,-0.14196777343,0.30786132812,0.014447429842097065,0.11948832612121096,1.040635742001529,0.87241575398,1.37504273044,0.022937795960222582,0.15055875775643587,974.407310853633,974.38108693446,974.45452811285,0.0004926705724156004,0.07344117838999864,0.022065231656029367,-0.0006721261429386187,-0.6313753105092959,0.51,0.49,0.6756919500606376,Stairs up
-1.0951765471769606,-1.35559082031,-0.9033203125,0.014146479928923074,0.11835450540316474,0.07578890931137255,-0.09313964843,0.20617675781,0.006747271766096426,0.08173813089922843,0.04495538449617649,-0.17236328125,0.26452636718,0.018551408109774615,0.13553424497033503,1.1104873980934316,0.9064447917,1.36415260799,0.013182031689767481,0.11424883406392312,974.3829956236845,974.33352944344,974.46479730542,0.0009194458432834068,0.13126786197994988,0.03017336024292382,-0.0005434278268850446,1.7880506576586415,0.59,0.41,1.4033874534120772,Stairs up
-1.0838528103260001,-1.35852050781,-0.80871582031,0.027687702362095376,0.16546921533849962,0.13610704209644445,-0.10595703125,0.31433105468,0.00990115440737054,0.0989501974764173,0.09416097005011115,-0.13989257812,0.38732910156,0.01849484291258871,0.13523810357293684,1.1102875272855557,0.89698642809,1.3763021134,0.02512970277795217,0.15764036240188345,974.3332645754168,974.29158419776,974.39365001908,0.000698509117902995,0.10206582132002495,0.026282083355051035,-0.0004956355648929802,0.16172798900735819,0.43,0.57,0.45285757610460387,Stairs up
-1.0629626615514816,-1.34887695312,-0.87414550781,0.019564103229355808,0.13900565129059245,0.10562849633098766,-0.0478515625,0.29943847656,0.00932239168941821,0.09595467906253083,0.08045488522209877,-0.17858886718,0.20092773437,0.01158584959647211,0.10697109149797786,1.0806333837820987,0.89370074303,1.38041324234,0.019970715484360385,0.14044274079262192,974.2793964517441,974.24744109722,974.33826160048,0.0005515142413675949,0.09082050326003355,0.023338925073210486,-0.0006468316950248508,-0.1362020904216963,0.54,0.46,0.6347299956888157,Stairs up
-1.0432578638940788,-1.32104492187,-0.86999511718,0.018955287870829833,0.1367694270965515,0.11094424598855267,-0.03601074218,0.21801757812,0.005664948107195342,0.0747690398247242,0.08186581260144736,-0.11145019531,0.21411132812,0.010067832351782722,0.09967628039543706,1.0608742289592104,0.88443295117,1.3214664326,0.016390792597823913,0.1271814619910006,974.2284179585113,974.17890274752,974.28444325509,0.0008074255831767888,0.10554050756991273,0.028227673697021425,-0.0008666629621035889,-0.7165251247161257,0.59,0.41,0.40524540625759997,Stairs up
-1.072121478138085,-1.33081054687,-0.87145996093,0.017538159432898073,0.13172540859195808,0.08301690284042552,-0.23352050781,0.24206542968,0.017308705672451716,0.13086088225945716,0.09389025099478723,-0.16052246093,0.24438476562,0.01417258508601188,0.11841373612991778,1.094318862946702,0.88443295117,1.3370519585,0.016289130776038933,0.1269481868746534,974.1751518093159,974.13081925037,974.22174532328,0.00048018539473074006,0.09092607290995147,0.021796262052646714,-0.00048673993176771987,-0.12675024384172584,0.48,0.52,0.13334080089515657,Stairs up
-1.0326258341439583,-1.43725585937,-0.83117675781,0.026154468397981398,0.16087891726026676,0.10293706257802082,-0.01110839843,0.22619628906,0.004081243353344783,0.06355100630003778,0.0982831319140625,-0.12072753906,0.24450683593,0.011950150796526476,0.1087458967458665,1.0513499767220835,0.87142672824,1.44243870693,0.023223288392922658,0.15159610528911918,974.1238741014458,974.08593118617,974.19523999437,0.000879713430547528,0.10930880820001221,0.029505080053769124,-0.0005822909246817643,0.35846983053895887,0.58,0.42,1.001384792439504,Stairs up
-1.0479147023126436,-1.23754882812,-0.84826660156,0.01240807385701485,0.11074950256515138,0.08390159168206895,-0.06372070312,0.18017578125,0.003536631372724451,0.05912681656749143,0.008633317618390805,-0.16748046875,0.18676757812,0.010376932900971714,0.10128009582418426,1.0581010316447133,0.86110279483,1.23843113927,0.011816352122064205,0.10807650985635192,974.0900499920035,974.05796294497,974.12368386526,0.00037386221611330133,0.06572092029000487,0.019224072130051537,-0.0003469433758036632,-0.955636593675742,0.54,0.46,0.11569834788587276,Stairs up
-1.034172058102375,-1.42077636718,-0.77966308593,0.02502326623686554,0.15719565963761442,0.08279266357175,-0.02221679687,0.23254394531,0.004442861654794314,0.0662368921682576,0.0188644409165,-0.17944335937,0.20739746093,0.013196969312128272,0.11415781705922144,1.046224863451,0.79072145243,1.42579425649,0.02457284214262321,0.15577445752061028,974.0541727617507,973.99626281744,974.1284779574,0.00135310755604479,0.13221513996006706,0.0365539835256601,-0.000752282163447755,-0.8108794252878591,0.54,0.46,0.3029581800968114,Stairs up
-1.1014309484941747,-1.28234863281,-0.84631347656,0.014598195076359349,0.12023504076214349,0.18489741352796116,-0.07641601562,0.3837890625,0.019107764612510254,0.13755817800014253,0.026727472693689316,-0.24938964843,0.3623046875,0.03396971271776749,0.18341185807267932,1.1400517657377667,0.85289077233,1.33584122004,0.015502655328099144,0.12390376956058069,974.0310816049667,974.00878771701,974.07835406953,0.0003755362646658016,0.06956635251992793,0.01928445699296992,-7.691651954212234e-05,0.3403237431504893,0.63,0.37,1.1387458436240276,Stairs up
-1.0434066109001083,-1.28723144531,-0.85217285156,0.014941486405983648,0.12156923519151151,0.1801943571630435,-0.02941894531,0.35974121093,0.010733493715304987,0.10303797991690258,0.04267286217543479,-0.1474609375,0.13317871093,0.004421923917847337,0.06613516105246854,1.0669020940066303,0.85458240141,1.30449051997,0.014637119899487041,0.12032464739256372,974.0347678356047,974.02364563527,974.06078501783,0.00011106843176129063,0.03713938255998528,0.010481467750208837,0.0001516820782478788,0.4508333500520316,0.71,0.29,1.0938870307090196,Stairs up
-1.069834513833012,-1.30541992187,-0.87585449218,0.01808891434684797,0.13368236839530304,0.13949106974445782,0.00048828125,0.33947753906,0.007453195761680452,0.08581024543947592,0.09864751976277107,-0.05590820312,0.20690917968,0.005276333048871982,0.07219946517235934,1.089443706832048,0.88792937563,1.31185030183,0.017505433778576638,0.13150864966940728,974.0374954435783,974.01584654478,974.09579900319,0.000384290141217051,0.07995245841004817,0.01948486950214552,-1.664668748680323e-05,3.941406057523537,0.77,0.23,2.123304868604626,Stairs up
-1.0586666751196103,-1.21887207031,-0.91650390625,0.010571866544959715,0.1021497409533835,0.10356952617389611,-0.11608886718,0.29479980468,0.011812464772106268,0.10797710932740462,0.06988604656987012,-0.126953125,0.28271484375,0.014752532158373154,0.12066872350216122,1.0777807691996104,0.93157486113,1.2509907968,0.011579397133595787,0.10690657300952078,974.0330256417317,974.0110859542,974.06124564588,0.0002560745637806369,0.050159691680050855,0.015898079132246577,-0.00034846255057124746,-0.9975521707455792,0.6,0.4,0.4632953482118884,Stairs up
-1.071546766489506,-1.19604492187,-0.87829589843,0.008499066531591446,0.09161953822350256,0.1531017915671605,-0.11535644531,0.36596679687,0.014426375819548856,0.11936612758387213,0.11887990692296295,-0.11547851562,0.24291992187,0.008218527120326868,0.09009474913969767,1.0987635776661726,0.90081414711,1.23775483623,0.00937892929072499,0.0962452078818588,974.0122741687095,973.9989464558,974.04658581605,0.00017835974312318758,0.04763936024994564,0.013272444047192826,-0.00024367937136316237,0.7079689908885696,0.69,0.31,1.25502484243561,Stairs up
-0.9283773592158415,-1.5927734375,-0.33557128906,0.103078052071372,0.31946435998149797,0.2871154180812871,0.013671875,0.73376464843,0.05286454986821238,0.22878185785454797,0.0009415126069306907,-0.51501464843,0.57531738281,0.08591181139058948,0.291652531956476,1.0593741049259409,0.53684523589,1.70473223277,0.06212206176130177,0.2480060318679226,974.1745508758127,973.8655391854,974.66009341909,0.055038810328219084,0.7945542336899507,0.23343922466478959,0.004971413470117088,-0.38867983097977676,0.64,0.36,0.891605414147172,Stairs up
-0.4357191297703333,-0.87268066406,-0.27453613281,0.02047633451503247,0.14229834745030479,0.8521253797711111,0.41052246093,1.17883300781,0.030940590512403575,0.17491942766135746,-0.10565999348733332,-0.48400878906,0.18908691406,0.02539597034718633,0.15847331920195354,0.9922777688319999,0.6411403932,1.2359608531,0.018684713289467334,0.13593051667682576,973.8881061266924,973.71143663913,974.08483037729,0.014390983018043133,0.3733937381599617,0.11929410382215687,0.0018280408787065634,-1.440360179868141,0.52,0.48,0.2365472789652479,Stairs up
-1.1219173569231327,-1.33605957031,-0.82409667968,0.02431186591840971,0.15498048867905906,0.19624052851783133,-0.1240234375,0.61328125,0.02981004589167303,0.1716126123344531,0.08477709666626507,-0.17065429687,0.23425292968,0.012065343875591198,0.10917865307251529,1.1593622101666266,0.84393790589,1.36963588556,0.025978130955814808,0.1602034376230007,973.9191491197644,973.77986163436,974.0523173298,0.004181949259834766,0.2724556954399304,0.06427724581057735,0.00222544608028208,0.15592973192516624,0.42,0.58,-0.35826949094808336,Stairs up
-1.0900248865898925,-1.453125,-0.81591796875,0.033643345992345135,0.1824324247052187,0.20056021084913983,0.03149414062,0.33837890625,0.008110612467254181,0.08957344238394276,0.07254126763935484,-0.30004882812,0.24487304687,0.018835412063244777,0.1365023104227059,1.1230833535160216,0.84529475688,1.48694501549,0.032613219822625834,0.1796177609246559,973.9641480467715,973.91715864276,974.07022546541,0.0020707161809153073,0.15306682264997562,0.0452598101578997,-0.0006136642013511855,0.036310780251949115,0.73,0.27,1.2114399630516304,Stairs up
-0.9899411545546392,-1.15051269531,-0.80444335937,0.006796624095470552,0.08201558270125578,0.10490621979381443,-0.19372558593,0.29345703125,0.008368129393433427,0.09100472525228231,0.16793728857484536,0.08361816406,0.23559570312,0.0019215740507100402,0.04360921931140413,1.0148224330715465,0.83158708635,1.16524953931,0.0063023188541593235,0.0789768731644783,973.9338969321318,973.92024069068,973.98043247149,0.0002313462154814336,0.060191780809986994,0.015131464005531559,5.975650167058535e-06,4.482123109317468,0.71,0.29,2.28155123774807,Stairs up
-1.0255779887319765,-1.32348632812,-0.81909179687,0.024993585031552447,0.1571717593901341,0.14279387717709302,0.04016113281,0.27551269531,0.0029602842030775783,0.05409124045295566,0.07059212617883721,-0.26550292968,0.23413085937,0.01939632993016006,0.13845862634751913,1.0485541549265116,0.84136262212,1.33543176726,0.024805789662484572,0.15658017194972204,973.9232002702105,973.89821880604,973.99432105396,0.0006277524725815216,0.09610224792004374,0.024908894500276856,-0.0005885881923889972,1.0658351318028352,0.63,0.37,1.2748743746964837,Stairs up
-1.0436192765983543,-1.37438964843,-0.76086425781,0.030666717245241077,0.1740072726957052,0.11111952383037976,-0.18054199218,0.4306640625,0.01588581202518349,0.12523867532442448,0.05694039260177213,-0.154296875,0.21899414062,0.009827505623681218,0.09850434923554474,1.0625148254578478,0.78004482773,1.39485693582,0.03186288832083129,0.17736843186025975,973.8850969887767,973.82241844193,974.01622767541,0.0024329531535889804,0.19380923348001033,0.049011797337244166,-0.0007955337708047451,1.4305779672232184,0.66,0.34,1.2593067820336379,Stairs up
-1.0859921103997368,-1.50146484375,-0.76965332031,0.038185461916696625,0.19412115193435012,0.16700021843776314,-0.01892089843,0.41137695312,0.01903651369994226,0.1370621510721394,0.12041433233657897,-0.08813476562,0.36633300781,0.012098086013351973,0.10926527660272968,1.117241707385658,0.77050202999,1.50425282733,0.04250575735359226,0.20480837647084638,973.8156482075846,973.76548756017,973.87982688499,0.0009948557554423057,0.11433932482009368,0.031333138178833195,-0.0009576754945194786,-0.5627157841126307,0.51,0.49,0.23662273964472202,Stairs up
-1.1167191485919388,-1.44421386718,-0.82214355468,0.04029410115636184,0.1997071277116767,0.15635463169428573,-0.11083984375,0.36682128906,0.011184067148375604,0.1052138014435773,0.036866479988571434,-0.20129394531,0.18908691406,0.011914776923978165,0.10859648966523293,1.1382672416474489,0.85246070248,1.452905264,0.0403733025410516,0.19990330178899726,973.7665399044433,973.72545224537,973.8569489411,0.0015919909296569176,0.131496695729993,0.03969566883492776,-0.000136153846217689,-0.2310313417968879,0.69,0.31,1.0152380538495795,Stairs up
-1.0231175472825262,-1.44018554687,-0.7001953125,0.04604074206074135,0.2134387562525332,0.11022692228357894,-0.05932617187,0.32434082031,0.006438044784534388,0.07981400811928696,0.054690069899368414,-0.12670898437,0.17980957031,0.007659129315806091,0.08705462022176365,1.0377518853922105,0.70112482194,1.44389803982,0.044959663139285504,0.21091800190427804,973.7115702490705,973.66030640527,973.8569489411,0.002260164315064599,0.19664253582993751,0.04729030674195431,-0.00040297110596525097,0.5373915260904814,0.66,0.34,1.2451568138471767,Stairs up
-1.0694953469632942,-1.42041015625,-0.83251953125,0.02528770942888604,0.15808291167933614,0.17266199448164707,0.0439453125,0.37292480468,0.008741755750101015,0.09294574527543317,0.045157398895294125,-0.34814453125,0.21569824218,0.02040556739700032,0.14200528827551487,1.0979082679518821,0.87577747817,1.43994137003,0.02435018048979381,0.15512481354750818,973.6701631824794,973.62410974479,973.75818825483,0.000789642425949291,0.1340785100400126,0.02793479040651227,-0.0003591933799256563,1.3510295127029117,0.55,0.45,0.8403803132893158,Stairs up
-1.129535054047209,-1.92016601562,-0.74499511718,0.06587407361630129,0.2551628813446653,0.13760730831802323,-0.00830078125,0.37353515625,0.010961736178023556,0.10408781931350991,0.08411070357709301,-0.11279296875,0.31030273437,0.013766515761996941,0.11664664588972354,1.1513188331440698,0.76619453072,1.93045119953,0.06664855790418754,0.25665847866911295,973.6467389669044,973.59348276775,973.79408635137,0.002387348579293824,0.20060358362002262,0.048575597907722486,-0.0002650188877095538,4.075902039448023,0.78,0.22,2.1661655197118335,Stairs up
-0.4444012028145544,-1.11901855468,0.15405273437,0.2533756612393347,0.5008662409526858,0.7318381130069305,0.10388183593,1.43017578125,0.10650907057653469,0.3247376253582293,0.08205783957326733,-0.298828125,0.4912109375,0.04703676867478096,0.21580328564190707,1.0500260510264356,0.77140889824,1.43720831192,0.04055231674449475,0.2003766669498113,973.6153450996242,973.47626093955,973.81401556042,0.005281526703738658,0.33775462086998687,0.07231344522381218,-0.0005849336718899863,1.0473733571362542,0.51,0.49,0.11003567103882748,Stairs up
0.08403649490651686,-0.07775878906,0.212890625,0.01056777952947741,0.10222054800107748,0.9535529318780899,0.73083496093,1.24206542968,0.02419652963315282,0.1546759791101359,-0.2097812609705618,-0.61560058593,0.0869140625,0.041579958081272225,0.2027628356998225,1.0073011397711233,0.75718930762,1.25563183706,0.02140488849121626,0.1454798409613731,973.5433111683747,973.46923801563,973.60681778146,0.001762910772867275,0.1375797658299689,0.041750482472125795,0.00011090558204121577,-1.2304774116274568,0.49,0.51,-0.13551566857098668,Stairs up
0.13662079233901234,-0.03515625,0.33630371093,0.012755937285326813,0.11224284644511007,0.935543860915185,0.62768554687,1.2412109375,0.023143192744101884,0.15118688539407893,-0.17095419801246917,-0.70593261718,0.220703125,0.06868875847968811,0.2604625675903187,1.006477737671852,0.81347709371,1.24817068235,0.013600039715964388,0.11589710087433568,973.5081865388697,973.42048263289,973.73297706383,0.007181293807640657,0.31249443094009166,0.08421778825995242,-0.0014226783434446064,1.705923021184499,0.64,0.36,1.4999238276572664,Stairs up
0.1752496016619737,0.01953125,0.34045410156,0.007416950346470974,0.08555325180578306,0.9269569798493421,0.73046875,1.08984375,0.009787056383420109,0.09827654514554085,-0.2815037777531579,-0.77526855468,0.12622070312,0.06675145497330602,0.25665764425638327,1.0212133751985524,0.88439716473,1.22530140404,0.009302470075472354,0.09581267741497816,973.5291187314364,973.50832847054,973.58777090432,0.0003701022102183148,0.07944243377994553,0.019111055551548944,0.00014895596792287291,2.4149913651170394,0.63,0.37,1.6793212473485846,Stairs up
-0.02220672922072165,-0.37780761718,0.28039550781,0.0419543809773315,0.2037691379620884,0.8779108106438145,0.39709472656,1.2470703125,0.059367440125663785,0.24239514157765366,-0.38738069828824745,-0.89453125,-0.06591796875,0.05093938510715634,0.22453114885708522,1.0246044630574227,0.75366189188,1.26990559854,0.022392382315624442,0.14886750153543085,973.5610075556876,973.50594645194,973.7164668581,0.0027392454496255295,0.21052040616007162,0.05206731994077434,0.0013241771649343066,1.128980567267834,0.67,0.33,1.300873071663774,Stairs up
-0.47210500616315765,-0.701171875,-0.20544433593,0.015918192668074132,0.12550152487221938,0.3391974198154736,0.0732421875,0.71801757812,0.039830192249213164,0.19852185539038894,-0.891091437083684,-1.41430664062,-0.49951171875,0.04383841504993126,0.20827135676661268,1.0975695529005267,0.85890970638,1.49191136826,0.026136693197646305,0.16081532921756958,973.5240593856737,973.38589292118,974.02269378655,0.027227768640279915,0.6368008653699917,0.16413762685420305,-0.0021101944314496626,4.279730692771876,0.75,0.25,2.2624783461467137,Stairs up
-0.43334960937232564,-0.72924804687,0.07165527343,0.04488066504924121,0.21061528161791637,0.10527854741941858,-0.20422363281,0.70727539062,0.04992651925442665,0.22213954698086413,-0.8185779660211627,-1.01721191406,-0.38403320312,0.024706625278111304,0.15626688368834948,0.9862442504362791,0.75226004145,1.19072786622,0.01456105008333831,0.11996555983900353,973.5303967086882,973.45964065811,973.62754527724,0.0017987948165079652,0.1679046191300131,0.04216489769596697,-0.0004678597653552993,0.18870155819032552,0.57,0.43,0.7284358135871939,Stairs up
0.11019606817047618,-0.00866699218,0.2431640625,0.005796113413061205,0.07567768536963664,0.7585449218713095,0.39184570312,1.05053710937,0.021062077168994484,0.14426135364357942,-0.6354762486000001,-0.98425292968,-0.29418945312,0.035865874951056205,0.18825222508448053,1.0177367982765477,0.78234874709,1.23899752,0.015871526715627925,0.12523010807714455,973.526299345077,973.49353721286,973.582386435,0.0005635282862913504,0.08884922213997015,0.02359702557985759,0.00024404718615013969,-0.5542150811285826,0.56,0.44,0.6325304136352444,Stairs up
0.2647475440877228,-0.02319335937,0.43518066406,0.02063042900326328,0.1429201431917966,0.9633994527343563,0.63562011718,1.40734863281,0.043942495903207396,0.2085843275184978,-0.2148884688253465,-0.59521484375,0.04248046875,0.0437430160404947,0.2081103478248425,1.05102619321,0.71168024438,1.4730962708,0.04746421142492265,0.21678161531261633,973.5090498120649,973.47117485099,973.54560653984,0.0003613950163773256,0.0744316888500407,0.018916047364561712,-0.0005808106849386608,-0.9339393466378865,0.46,0.54,-0.06903471284880171,Stairs up
-0.26594962654516485,-1.537109375,0.61450195312,0.6257192900451026,0.786665909958453,0.5429003369638461,0.09729003906,0.83679199218,0.05465450194422125,0.232494952680176,-0.05471432863857143,-0.35266113281,0.39733886718,0.054784056145804075,0.2327703450845817,1.022784522317912,0.60955340879,1.61254267839,0.05000414496463324,0.22238401216391612,973.4849695816318,973.46502245174,973.59650012477,0.0004939892081413361,0.1314776730300764,0.022103410490343298,0.0003337271048975293,18.43729330626745,0.78,0.22,4.2254826208980525,Stairs up
-1.2049334490707406,-1.7587890625,-0.76013183593,0.08816998083620495,0.29509568372695066,0.21000916280506177,-0.04455566406,0.76831054687,0.037479775651743416,0.19239818702912007,0.1230966073480247,-0.10583496093,0.42895507812,0.020342074251130954,0.1417425043237955,1.2492205892501234,0.76337653495,1.78900365024,0.09594310451455897,0.3078288838669534,973.4927672415242,973.46302194532,973.58086990891,0.0004815806917289546,0.11784796359006577,0.021809063507870426,-0.00020451009247410404,7.244295054574204,0.56,0.44,2.199478766739518,Stairs up
0.6027072482608888,-1.24780273437,1.18420410156,0.3270456970307969,0.5686931122782102,0.08460150824677778,-0.39086914062,0.83361816406,0.17405325320106826,0.4148726650015651,-0.2767483181388889,-0.52770996093,0.50244140625,0.06819892158170822,0.25969435070165836,0.9826729195473334,0.7440635461,1.58252275626,0.044827429539899405,0.2105453561336751,973.4132943108991,973.3585387224,973.47842590441,0.002054316738643134,0.11988718200996118,0.045072064486804404,-0.0014321324340851272,-1.6711356579317471,0.59,0.41,0.2418059500672439,Stairs up
-0.3741140463903092,-1.32067871093,0.77978515625,0.5628006182796297,0.7463233548871044,0.27994372180762883,-0.01733398437,0.78002929687,0.06622577308491241,0.25601373626468166,-0.0061878322332989694,-0.58056640625,0.45910644531,0.10464371565593988,0.32181503144447837,0.9529728076177318,0.71347361725,1.34691925905,0.03669572844530936,0.19057130415278095,973.3494321017629,973.29618501641,973.45054095738,0.0008472777243239766,0.15435594096993555,0.028957605260513677,0.0002585562217818903,3.1253797537374677,0.47,0.53,0.6338465967700179,Stairs up
-1.090249736654382,-1.41162109375,-0.8447265625,0.02793916408826738,0.16620842606878983,0.14429808198382024,-0.03002929687,0.32104492187,0.007399508438370753,0.08553576967631375,0.07718409848730337,-0.232421875,0.23156738281,0.014061923122091861,0.11791490145816423,1.1128045983053934,0.87796860588,1.42720978123,0.02622998752203861,0.1610443062052081,973.3457785969049,973.28848429346,973.45054095738,0.0016114522640049242,0.16205666391999785,0.03991673908013261,-0.0007478211124635065,0.5299996685961497,0.67,0.33,0.924489339005601,Stairs up
-1.0634825171463416,-1.3896484375,-0.82788085937,0.029741222072207713,0.17140164597243177,0.11730361566036585,-0.00622558593,0.27026367187,0.003928612007783158,0.062295281564892356,0.06775646674878048,-0.21667480468,0.19494628906,0.013530811169104718,0.11561055867349904,1.0807974983424389,0.84932077702,1.39570652032,0.02819173819232051,0.16687701012137146,973.2790514737264,973.24309518676,973.32827292283,0.0007745590018632525,0.08517773607002255,0.027660678957269202,-0.0007257204151979756,-1.5372345263314489,0.48,0.52,0.12869043875650252,Stairs up
-1.030666906853495,-1.27746582031,-0.82800292968,0.019091730296501578,0.1375004497871959,0.11144545471504856,-0.03381347656,0.22570800781,0.005351388256250115,0.07279720482588105,0.030985711848058258,-0.14916992187,0.22497558593,0.012254567442671668,0.11016165875536328,1.045859450020874,0.85341322435,1.28186468173,0.01835206052646758,0.13481055293095723,973.2218137727702,973.18907848254,973.27771804298,0.0006642859746103171,0.08863956044001498,0.025648325407637087,-0.0004386395881029482,-0.5860046846125146,0.47,0.53,0.7004489326024106,Stairs up
-1.0283203124964835,-1.31164550781,-0.76525878906,0.021117426620561167,0.1445177047540134,0.0762832138531868,-0.11865234375,0.23840332031,0.007775660570271204,0.08769386381507929,0.057978032706703285,-0.0146484375,0.17370605468,0.002279567358162883,0.04748175615343056,1.0376287561814288,0.77787289269,1.31372486589,0.02101079620599854,0.14415237887597607,973.1776883909306,973.16071841625,973.19775535943,0.00010631193786696088,0.03703694317994177,0.010253958982435897,-0.00017995344067165106,-1.0147604398967005,0.56,0.44,0.12487705959648349,Stairs up
-1.0650128620389026,-1.32421875,-0.80346679687,0.026448219628551754,0.1616344034071612,0.11920612613963412,-0.09790039062,0.34631347656,0.010714661263464395,0.10287854325703896,0.08812732231134147,-0.19104003906,0.30456542968,0.017931927996488115,0.1330911189664827,1.0879704326690243,0.82426368446,1.33691157138,0.02730517024688554,0.16423209298375868,973.1394940188744,973.08995861465,973.19000329213,0.0008592416574508718,0.10004467748001389,0.029133539102771062,-0.0006686224817209132,-1.056626078165622,0.59,0.41,0.06570398491020699,Stairs up
-1.0511881510371999,-1.24523925781,-0.822265625,0.013959410356851446,0.11735963908186987,0.12079752603853335,-0.03491210937,0.2646484375,0.006946055540051645,0.08278551483311733,0.07027669270706666,-0.09313964843,0.27233886718,0.012124178688171944,0.10937331928916508,1.0696054001412,0.83270496082,1.25194104407,0.013237420976314597,0.11428439101628768,973.1015930069162,973.08518509947,973.1589013469,0.00042144219151872255,0.07371624743007033,0.020391737598803906,-0.0002726906182362639,2.220584616215696,0.72,0.28,1.7697782457050237,Stairs up
-1.095091599679904,-1.36364746093,-0.83508300781,0.02280018644832131,0.15026960400000466,0.1963489239001923,0.07800292968,0.37744140625,0.008763311555979767,0.09316141339022599,0.10210829514586539,-0.03979492187,0.26525878906,0.008923030581187806,0.09400655408116418,1.12571825295,0.84385345849,1.36611941987,0.0212647341606203,0.14512155443944924,973.1056484561266,973.09088671158,973.1336945298,0.0002025011602499822,0.04280781822001245,0.014161710126574297,1.6469980485640714e-05,-1.164860054459153,0.64,0.36,0.6673124741770433,Stairs up
-1.1727520486532608,-1.53686523437,-0.79028320312,0.037185033903367457,0.191783338046463,0.12476780103423914,-0.12536621093,0.37390136718,0.01915820124946334,0.13765885344406437,0.08304363748315216,-0.15222167968,0.33557128906,0.026324060767256883,0.1613627270219508,1.2009286590196742,0.79585033809,1.55710569491,0.037760148217448136,0.19326073533902385,973.1005980766433,973.0628209936,973.16722747502,0.000690780721904277,0.10440648142002829,0.026139476578474593,-0.00015564157892789681,0.9735423978954794,0.54,0.46,1.0471552785538085,Stairs up
-1.156761812872771,-1.47814941406,-0.85131835937,0.03711682138573339,0.19149316114845502,0.20307646601771084,-0.15710449218,0.45861816406,0.02453447330963996,0.15568839791605665,0.197645072473494,-0.04455566406,0.34765625,0.010958633412496976,0.10405095715386556,1.2072365272922894,0.85418298849,1.5035022837,0.033115577169196456,0.1808772907573979,973.0908427326866,973.06422750375,973.15395555925,0.000488570861226238,0.08972805550001794,0.021970081140219977,-7.58001540829827e-05,0.5212453805420232,0.61,0.39,1.0823306283306937,Stairs up
-1.102215706030106,-1.3125,-0.8212890625,0.021897418431085443,0.14718854293449704,0.1565824468048936,0.03198242187,0.38647460937,0.012600499905544975,0.11165326701090923,0.1500659699106383,-0.08422851562,0.3212890625,0.014263126334766656,0.11879137573168595,1.1356513154612768,0.82775137228,1.35705682799,0.022657553211370023,0.14972145942131698,973.1056083374144,973.07972152645,973.15198889173,0.0002912067896236072,0.07226736527991307,0.016973769323669487,0.0002335950608829106,2.2236272991524766,0.65,0.35,1.4827633198857755,Stairs up
-1.0923682143960824,-1.29333496093,-0.87036132812,0.013910929531718436,0.11733506674077253,0.18593070432948453,0.02294921875,0.35681152343,0.009593739791815076,0.0974414452780686,0.1258607844684536,-0.0546875,0.26623535156,0.006318012988542867,0.07907514675308422,1.1219498015384537,0.88291927974,1.30668136578,0.01457359778446811,0.12009727102786129,973.0986046762031,973.07918660556,973.16396677892,0.00044923955139063854,0.08478017335994537,0.02108573488900237,0.00021966220282399967,4.732146191636151,0.69,0.31,2.312243320141815,Stairs up
-1.0787886696262068,-1.49560546875,-0.80078125,0.04001237476330131,0.19887800886397705,0.09583642016505747,-0.0498046875,0.21801757812,0.004176926000065073,0.06425663667191246,0.08951963227149423,-0.24645996093,0.24743652343,0.014614471109046097,0.12019354675898926,1.1000787093086204,0.82244125447,1.49644597541,0.03941968828648871,0.19739956540257825,973.0832836539847,973.04505061711,973.16146318943,0.001240174694292495,0.11641257232008684,0.03501313771641872,-0.0005209130343740553,-0.18497055883362856,0.57,0.43,0.8984777500938267,Stairs up
-1.0673225499372152,-1.552734375,-0.818359375,0.03141697510424424,0.17612294533954564,0.11431498466784809,-0.06506347656,0.25854492187,0.00796116079837329,0.08865882139444506,0.06262052511860759,-0.17431640625,0.30236816406,0.018753866160433987,0.13607525656614586,1.087162386691392,0.82758113708,1.55634109697,0.032046421290894724,0.17787852705843485,973.0441701511563,973.01837442173,973.10838525347,0.0007153402224218335,0.09001083174007363,0.026576028350705574,-0.00022840613058921342,-0.4450764268484,0.56,0.44,0.8607441918338287,Stairs up
-1.0165917968716,-1.45520019531,-0.7666015625,0.0394894733461235,0.19739034179726692,0.042646484373600003,-0.16796875,0.22204589843,0.010009874620550363,0.09938012691483993,0.0669384765608,-0.17346191406,0.24353027343,0.012399257694712607,0.11060711667330952,1.0309868434828002,0.78280972234,1.45680089771,0.03840991542963411,0.19467352984909286,973.0029792092694,972.95804317063,973.08958490917,0.0010573797405904577,0.1315417385399087,0.032299866006676434,-0.00031250129650004177,1.697696481783228,0.61,0.39,1.2075640047523424,Stairs up
-1.0743513840860577,-1.36328125,-0.83959960937,0.02484260372470498,0.15685576984938857,0.12019113393663462,-0.09631347656,0.24914550781,0.006287966659144018,0.07891454518190948,0.07489483172961539,-0.11413574218,0.27880859375,0.01261903068412221,0.11179308498570488,1.0937344908393267,0.86093076852,1.38160817456,0.02395719184566252,0.15403517206067555,972.9653960299812,972.91856852906,973.05258377074,0.0008988864300786337,0.1340152416798901,0.02983694507364783,-0.0003847582135824016,0.84508040885237,0.67,0.33,0.799413642154697,Stairs up
-1.0140142026120653,-1.27038574218,-0.83325195312,0.016988562436810496,0.12962987367676426,0.1310066554830435,0.01538085937,0.28393554687,0.005005357533307768,0.07036299789778089,0.06133635147543476,-0.1748046875,0.20397949218,0.010765608670064694,0.10319201124370293,1.031679682940652,0.83708328975,1.29337245136,0.01737907650945859,0.13111130196867468,972.9119912792521,972.87803661705,972.96526065912,0.0004351022044821366,0.08722404206991996,0.020745429200050004,-0.000684682136272327,0.36882497860126584,0.46,0.54,0.45217320664684146,Stairs up
-1.070011683867619,-1.39978027343,-0.83618164062,0.02417676831118451,0.15456050478959127,0.11560785202404762,-0.02587890625,0.30383300781,0.007460693763957359,0.08585962951849434,0.055712018692380946,-0.1845703125,0.18798828125,0.012422112462319135,0.11078912478714258,1.0869141650661904,0.84207946919,1.42234154267,0.023830356383532345,0.1534492152625121,972.8665863603952,972.83736258351,972.93476431738,0.000760977546323403,0.09740173387001505,0.02742112852928473,-0.0007863961106776553,-0.3732868852028677,0.61,0.39,0.8679617110286557,Stairs up
-1.0340589735210002,-1.42260742187,-0.75720214843,0.030354578674230005,0.173255030454673,0.09902479383455555,-0.04040527343,0.35241699218,0.007985995891918753,0.0888665437846593,0.050272623697777775,-0.24450683593,0.22875976562,0.014574987582610758,0.12005433468283144,1.0502663679246669,0.76400728981,1.43829233164,0.031226334338694078,0.17572528295115686,972.8206671165937,972.77193338679,972.93697038138,0.0016696843392770867,0.16503699458996834,0.04063412717240149,-0.0008890592750349092,2.0669450472831254,0.64,0.36,1.5419304245931882,Stairs up
-1.0428997001227274,-1.34436035156,-0.81652832031,0.02033235806660199,0.1418695905132382,0.11565853850575758,0.01684570312,0.23999023437,0.004871298568510609,0.06944129558458027,0.02915754221666667,-0.18920898437,0.17236328125,0.007674590364097233,0.08716116824198934,1.0551620371750505,0.81716378215,1.36088910679,0.02126081885723722,0.14507261323628426,972.7721235849162,972.72955124274,972.8188510771,0.0006812700734473236,0.0892998343600766,0.02596899223215865,-0.0004516635845674409,-0.7011472429701557,0.44,0.56,0.024110048573052774,Stairs up
-1.0696203058379545,-1.26733398437,-0.87463378906,0.014243786267001403,0.11866728723376903,0.13347556373875,-0.09130859375,0.38317871093,0.009974490224381167,0.09930329171059062,0.12804620916045453,-0.12683105468,0.36779785156,0.021273033683026726,0.14502170411321688,1.0994054897745456,0.91008929386,1.32256534622,0.01474868769911029,0.12075218000208843,972.7339706577604,972.71205638577,972.79920958415,0.0005204458396565005,0.08715319838006508,0.02268329081918399,-0.0002659235335893101,2.872877087820247,0.8,0.2,1.9075262062105907,Stairs up
-0.7376629717923374,-2.0,0.388671875,0.5022263139988832,0.7040624221875217,0.2997317623753247,-0.1748046875,0.90380859375,0.0867609888543457,0.2926332564240234,-0.19810901988545457,-0.94580078125,0.21423339843,0.10135466965405064,0.3162884367835142,1.078165318426104,0.24928043044,2.05718920529,0.194697551202733,0.4383708607751243,972.6595550001672,972.52907071053,972.80091495498,0.004511768226517047,0.2718442444499942,0.06673210497178159,0.0006167598213646796,0.2624117879963954,0.64,0.36,0.3121403094058104,Stairs down
0.34980378327333334,-0.87243652343,1.06677246093,0.28801255888114774,0.5333449618002187,0.6409324363402469,-0.16931152343,1.47265625,0.19872516472185778,0.4430256963501397,-0.3703070746496296,-0.82861328125,0.04772949218,0.045867267995821755,0.21284032848116943,1.0590375453875307,0.56389717257,1.67628044749,0.07568792186133277,0.2734108686078907,972.6205334398732,972.55729335261,972.69131561567,0.0013010421418061268,0.1340222630599328,0.035846616202116675,0.0008547772738324973,-0.48426454478930836,0.49,0.51,0.14011233763253064,Stairs down
-0.7271429323666665,-1.34191894531,0.62182617187,0.38293361469853643,0.6157754165067334,0.23095583448098048,-0.57373046875,1.16772460937,0.1949690490331623,0.43938319012922117,-0.28264303768215676,-0.85595703125,0.10290527343,0.074093113839966,0.27086290030770843,1.0914373614825488,0.43188888866,1.81166545794,0.11748448506268439,0.34107576340983137,972.7026093949942,972.61572234454,972.82966675879,0.0032223173271794885,0.21394441425002242,0.05648651149464438,-0.0001432737786079506,0.09927706454132013,0.54,0.46,0.635519271186939,Stairs down
0.11493733723833331,-1.60620117187,1.06970214843,0.6778694150259932,0.8187414320997903,0.13711344400977776,-0.82653808593,0.88562011718,0.21323420761602865,0.4592003251768418,-0.20898166232355556,-0.56701660156,0.10314941406,0.03255509324853589,0.1794251096982215,0.9518813929126668,0.26563313415,1.63627378109,0.0891537396265235,0.2969227888181743,972.8431702957386,972.7543159867,972.97742281518,0.003508393212208278,0.22310682848001306,0.058901706812332394,0.0018946362990224053,-0.13563418954189688,0.62,0.38,0.6836895235593421,Stairs down
-1.0520754894536144,-2.02392578125,-0.39624023437,0.20240694463999362,0.4471781599684457,0.17763877776759035,-0.44519042968,0.642578125,0.11417693155649863,0.3358590565625632,-0.29372470349915664,-0.87194824218,0.49951171875,0.1676957249097727,0.4070323015304474,1.2539639376234943,0.67429613087,2.13130057546,0.13230597041493403,0.3615410385815275,972.9574211592895,972.82780036299,973.11297741093,0.008345950203211903,0.2851770479398965,0.09080416612857438,0.0032705099055191427,-1.1745940210231234,0.52,0.48,-0.06723725969462162,Stairs down
-1.2491104450596808,-1.97863769531,-0.39624023437,0.13710440378814084,0.36830129826140034,0.32774450423617024,-0.41174316406,0.97412109375,0.13909284845838835,0.37096244729699485,-0.07326296542648936,-1.01794433593,0.24450683593,0.11502217850081671,0.3373403893754786,1.4089170149467025,0.67429613087,2.03241985818,0.07587841014794314,0.2739912279959154,973.0002091926187,972.91084030025,973.13083956299,0.002026008626922208,0.21999926273997517,0.044771144095913804,0.0009062919980456632,1.0387488806939729,0.48,0.52,0.2016925431458481,Stairs down
-1.005006141265567,-1.22509765625,-0.798828125,0.011618976014136388,0.10723428908823283,0.18071565922783503,-0.06921386718,0.91882324218,0.0707680517289088,0.2646478493872788,0.01709739449,-0.12731933593,0.138671875,0.005649880447928023,0.07477723087774245,1.0602196223094846,0.9088223715,1.29365434362,0.006114514269209577,0.0777912465488894,973.0645126548047,973.01770261521,973.13083956299,0.0008619837841647222,0.11313694777993533,0.02920783034393581,0.0002519943921472264,-0.3865796665166461,0.47,0.53,0.3237189008197247,Stairs down
-1.2129804238472413,-1.91625976562,-0.19250488281,0.20485222078374027,0.4499973306102392,0.37124247934413807,-0.89013671875,1.29248046875,0.39267844149578984,0.6230288084761735,-0.07182084006689657,-0.45422363281,0.27563476562,0.023183576927247606,0.15138394575228944,1.4480624919897698,0.6164380243,1.92380924893,0.1325185337807766,0.36193277309890926,973.0700462456585,973.03941975234,973.13368299063,0.0006728041344176833,0.09426323828995464,0.025788965732698697,-0.00038056866215240373,0.9768542224527601,0.64,0.36,1.2945236479573585,Stairs down
-1.285037270072025,-1.56079101562,-0.97839355468,0.02164300702123142,0.14618154776523137,0.24463045144126577,-0.21374511718,0.86511230468,0.0675384167258125,0.25823148541259866,0.20391922962481007,-0.01611328125,0.64184570312,0.028550923204219397,0.1678973469505303,1.354602972519494,0.98080224372,1.79585787139,0.034477166201015846,0.18450134518665853,973.0646806868901,973.04363968155,973.10960065654,0.00033061436715193935,0.06596097499004827,0.01806735661801898,0.00019332275162863393,-0.18224905586861162,0.58,0.42,0.8917637359805392,Stairs down
-0.7583131115813131,-1.68920898437,0.01281738281,0.1893258987319578,0.43291282715632656,-0.0484027284560606,-0.52075195312,0.51196289062,0.08311809640631479,0.2868423254593678,-0.5286643288334343,-1.17053222656,0.32141113281,0.2574541466443516,0.5048302682174971,1.15218353374697,0.73944313215,1.70801847355,0.05443617208756778,0.2321342537486679,973.1574633708262,973.04868222781,973.30227521714,0.005108945750255578,0.253592989330059,0.07111497899617726,0.0002656596952748479,-0.5162169814391313,0.52,0.48,0.2686085370698767,Stairs down
-0.628515365272553,-0.98608398437,0.01281738281,0.08533463124907155,0.29056292954025914,0.33607515375372354,-0.29272460937,1.31628417968,0.1338742840769377,0.3639369307524051,-0.6829872942949998,-0.95263671875,-0.36254882812,0.03353093146416238,0.18213791320675,1.0719119092345744,0.75386398078,1.85750454499,0.07631759064332967,0.274783007810102,973.1432402281536,973.02844477956,973.25512925918,0.004517260471607662,0.22668447961996208,0.06685210923481585,0.00106721099059954,-0.9361214542126244,0.49,0.51,0.1492399948727394,Stairs down
-0.4994097541319999,-0.8701171875,-0.09875488281,0.04120225631306459,0.20178583668298442,0.3748779296844706,-0.02282714843,0.74963378906,0.033157111632668955,0.18101665107498333,-0.8069235408963529,-0.93884277343,-0.60668945312,0.009388901013785039,0.09632467676976307,1.0563337601242353,0.87270461164,1.21854757192,0.008086280684940782,0.08939322105730559,973.2342323627986,973.13270369219,973.3959515138,0.0046235978732582375,0.26324782160997984,0.0675958771239865,0.0011945782412406932,0.3361446064879958,0.47,0.53,0.7506674702090089,Stairs down
-0.9272633428126086,-1.67309570312,-0.24182128906,0.2055108598244404,0.4508625579161531,0.28329998513608706,-0.41748046875,0.96655273437,0.1339921298044181,0.3640545201077605,-0.22517594047097833,-0.93701171875,0.28527832031,0.14353443913923997,0.3767947480951324,1.1894191163195653,0.79018529946,1.75715852228,0.05444133396713393,0.23205512348805485,973.3194708746588,973.20642230368,973.41602856435,0.004373445337315245,0.20960626066994337,0.06577163437224744,0.002360650165723639,-1.2200641464894175,0.55,0.45,-0.06763131008010205,Stairs down
-1.1368806800022448,-1.76037597656,-0.57946777343,0.06570904702748925,0.2550265604748198,0.36898243183683666,-0.16418457031,1.18835449218,0.14511571815495056,0.3789920124761422,0.02447509765642857,-0.35107421875,0.44067382812,0.0370292009909592,0.19144542825895722,1.2725915509239798,0.91640026744,1.90917040732,0.0556481730597749,0.23469199935056362,973.4437352587114,973.39923538728,973.50241450768,0.0007596867620528569,0.1031791204000001,0.027421430603045197,0.0008689962974821796,-0.5233183373085963,0.55,0.45,0.42386398441801537,Stairs down
-1.367241599340341,-1.74719238281,-1.04113769531,0.03432073533465826,0.18420295051541002,0.1928919011880682,-0.19763183593,0.63061523437,0.06875914753768529,0.2607255138807735,0.2272824374081818,-0.20031738281,0.71594238281,0.05109178781492895,0.2247469673144268,1.4393474630648861,1.05530407861,1.75176125691,0.039360056686744055,0.19726323356191794,973.5009257407604,973.47193443147,973.52956417401,0.0002773604241912544,0.05762974254002984,0.01655924518778199,0.0003048835032269956,-0.9659242518980129,0.49,0.51,-0.07106454031883651,Stairs down
-1.2514802956840503,-1.70361328125,-0.79870605468,0.05342158651084255,0.22966358853066207,0.1667403209050633,-0.24560546875,0.56481933593,0.05261305751646845,0.227918997555359,0.07150075405367089,-0.14819335937,0.24035644531,0.01607746944483923,0.12599189328439178,1.291799915161013,0.81129368767,1.71230927,0.051590031006414724,0.22569225205851645,973.5236638548428,973.48678522621,973.59896881554,0.0008354909775783973,0.11218358933001582,0.02872133601382737,0.00011919121860388309,1.5495939481142198,0.67,0.33,1.3998700831473658,Stairs down
-1.181729524029674,-1.52416992187,-0.86083984375,0.028198027054850985,0.1670075649806814,0.14304915718304348,-0.0947265625,0.583984375,0.037427064998576155,0.1924064683805578,0.18105017620336955,-0.12817382812,0.63488769531,0.0403322309828146,0.19973441658308166,1.232471149626413,0.87445491604,1.58657672289,0.03593800445803461,0.18854011237610713,973.5356639602466,973.49016314272,973.56776898843,0.0005290381529391307,0.07760584570996798,0.02287548334425462,0.0002001940489620323,-1.1958077771652698,0.57,0.43,-0.03855411029706272,Stairs down
-1.1698247169920408,-1.48559570312,-0.9208984375,0.020823382212291713,0.14356496341492778,0.2078683035694898,-0.06909179687,0.51550292968,0.035558474431713644,0.1876049915537426,0.13066381337489796,-0.04418945312,0.3017578125,0.012519436932830905,0.11131795711552313,1.213956124284694,0.92279037191,1.52359708781,0.023520888773312168,0.15258073175927797,973.5275951133912,973.49018373287,973.56271906941,0.0002544803144146042,0.07253533653999966,0.015870840447575998,9.926317936126202e-05,0.5201799451892279,0.4,0.6,-0.6070731188762162,Stairs down
-1.0873041262529883,-1.46838378906,-0.67578125,0.0603360498500242,0.2442182057825667,0.35735171964597706,-0.06970214843,0.95642089843,0.11893306798400181,0.3428790183513203,-0.04619729929908046,-0.505859375,0.19641113281,0.029877794952183918,0.17185567206728744,1.2065698669288505,0.69853514814,1.6497649999,0.06372930724025733,0.25099160636838197,973.5551242212231,973.500818755,973.65195596867,0.001873564825553009,0.15113721367004018,0.043035213461456064,0.0006649373576999856,0.488292562819598,0.57,0.43,1.2517439137159057,Stairs down
-0.4617889404274999,-1.64636230468,0.31616210937,0.26878199923117524,0.5151914442620195,0.6716583251922499,0.00402832031,1.33190917968,0.12594718871795865,0.352665349671589,-0.29769439696962496,-0.93090820312,0.1396484375,0.08828094759736958,0.29525825264063743,1.087284301509625,0.72701251542,1.66570005301,0.04838606768070566,0.21858920795569217,973.6153865484278,973.51258052516,973.80364905433,0.0080604537775815,0.29106852916993375,0.08921714019941308,-0.002979282067911775,-0.2457769400049714,0.6,0.4,0.9468148834693575,Stairs down
-1.0440450815013462,-1.76489257812,-0.72705078125,0.06258638413307305,0.24896704998442534,0.3390526404717307,-0.05041503906,0.70715332031,0.07017078850397887,0.26362107158523634,-0.049479557918365384,-0.2109375,0.18591308593,0.009366379955678489,0.09631364705975375,1.131987564722596,0.73574645241,1.77812317745,0.06744469180688822,0.2584495795216137,973.6173481422684,973.54712718461,973.68635246817,0.0021387308053000976,0.13922528355999475,0.046023538390896956,0.001261247175923454,-1.3764704372132952,0.5,0.5,-0.06108414167642481,Stairs down
-0.877008852747826,-1.76489257812,-0.10302734375,0.1715459055338528,0.41192387176015444,0.41530575959304344,-0.01794433593,1.24011230468,0.14052367207932656,0.3728219962141089,-0.062157672384021735,-0.58959960937,0.19909667968,0.041146977338993106,0.20174173486244337,1.1131188498598912,0.78178323667,1.77812317745,0.05644417225501432,0.23628510034182598,973.7209412359188,973.6456301444,973.81069912034,0.0013865457423044576,0.16506897594001657,0.03703342534699677,0.0007885211801849182,-0.1556359945780943,0.38,0.62,-0.34952967402531243,Stairs down
-0.6605209902081927,-1.62805175781,0.14599609375,0.30359223502793936,0.5476627586905269,0.5106539438968672,0.00207519531,1.10314941406,0.1095208999279594,0.3289397680627332,-0.08870099538807229,-0.47924804687,0.17272949218,0.026555821145356522,0.16197491007252585,1.034808716425783,0.63154673258,1.64323830236,0.06930090635679835,0.2616600001486677,973.7994726841986,973.70625205222,973.94075903937,0.002640307100496233,0.2345069871500982,0.0510734390028182,-0.00037637725705147,0.864761949619651,0.47,0.53,0.647368014406465,Stairs down
-1.1167891652928947,-1.4619140625,-0.74182128906,0.032604688949606435,0.17937580629639002,0.18033800626789473,-0.09216308593,0.4736328125,0.025935434256918608,0.15998180691257297,-0.05392456054460526,-0.26196289062,0.09448242187,0.010643021314765848,0.10248405515310269,1.1479232946625,0.74363496075,1.49771590972,0.03363521259545859,0.18218848484104652,973.8919265945373,973.83453853576,973.92899870375,0.0008309994630331228,0.09446016799006429,0.02863678158543939,0.0007054549350864003,-0.6895528758433462,0.3,0.7,-0.8262589749607698,Stairs down
-1.2786198252216496,-1.74328613281,-0.72741699218,0.1037334995417143,0.32041236246541066,0.34722334084824746,-0.19934082031,1.09387207031,0.1170330808238171,0.34033300488989604,0.05685204574690723,-0.10388183593,0.24389648437,0.007546362005762801,0.08642085662218142,1.3650455051643295,0.73028228542,1.87807056217,0.12253810999541466,0.3482453596401908,973.9409151269888,973.89455205931,973.97998998108,0.0005875005498706218,0.085437921770108,0.024113146687459203,0.0007764950223814214,-0.8610610068687943,0.59,0.41,-0.006735295041075614,Stairs down
-1.3037546258183157,-1.70617675781,-0.82446289062,0.04665287977732505,0.21485296561206824,0.2501516241757895,-0.19934082031,0.64807128906,0.04863061192010757,0.21935977466710066,0.09975971422421051,-0.10791015625,0.32263183593,0.011770164856034398,0.10791787796220613,1.3539007384641055,0.83175809612,1.73391774739,0.04566420215687958,0.21256416994569405,973.9901754790321,973.94988750439,974.03979369272,0.0005875601063500632,0.08990618833001918,0.024111724598736724,0.00015461940516054917,-0.6386130703766466,0.46,0.54,0.12925213355103943,Stairs down
-1.1838307935098837,-1.40710449218,-0.78454589843,0.028263024146305268,0.16713582599386212,0.2347596634245349,-0.10583496093,0.57177734375,0.04859802390333148,0.21916416359005855,0.034073230830348834,-0.18530273437,0.18041992187,0.009143819105922157,0.09506574371426502,1.2291446102347676,0.78895984586,1.456818941,0.03231249668896648,0.17870861754062342,974.004392983535,973.97649317115,974.03370005728,0.0002718860320344016,0.05720688613007496,0.01639282057931549,0.0001848812687346554,-0.8782007784845121,0.56,0.44,-0.14721085306423393,Stairs down
-1.2333165610676828,-1.42980957031,-0.91931152343,0.022486135567977666,0.14903662101146323,0.16545291063060977,-0.16967773437,0.60278320312,0.04476829471153688,0.2102910837339081,0.0376021222352439,-0.12475585937,0.23364257812,0.009753646101525648,0.0981565035942525,1.265824079760366,0.92864426013,1.46179464256,0.023908241556068757,0.15367718644826006,974.0151975393029,973.99637809736,974.04166957173,0.0001492325958591248,0.045291474370060314,0.012141362615189685,3.334400914613913e-05,-0.10918208827078324,0.54,0.46,0.7711561086167049,Stairs down
-1.2131513577033008,-1.5859375,-0.83117675781,0.03389869894724308,0.18322004629742622,0.21388614987592236,-0.07067871093,0.58801269531,0.04660037649443604,0.21482072910844577,0.08083187954902911,-0.01501464843,0.25598144531,0.005239611871919658,0.07203292201310231,1.2540557689186405,0.83221059308,1.60035757468,0.036623261517822685,0.190440793613182,974.0215232926951,973.98715756059,974.08539307403,0.0006917891196668021,0.09823551343993131,0.026173893872458796,-0.0002047021449286377,0.6189278077454983,0.76,0.24,1.148189794410962,Stairs down
