avg_accX,min_accX,max_accX,var_accX,std_accX,avg_accY,min_accY,max_accY,var_accY,std_accY,avg_accZ,min_accZ,max_accZ,var_accZ,std_accZ,avg_magnitude,min_magnitude,max_magnitude,var_magnitude,std_magnitude,avg_pressure,min_pressure,max_pressure,var_pressure,range_pressure,std_pressure,slope_pressure,kurtosis_pressure,Pressure_below_avg,Pressure_above_avg,skew_pressure,Label
-0.8963409109171135,-0.92785644531,-0.84252929687,0.0005536942463933793,0.023409102039297257,0.44640358206773195,0.39379882812,0.47961425781,0.0004011426165895636,0.019925037658606513,0.16133290713226803,0.08911132812,0.21508789062,0.0007595665708358738,0.027417804208787037,1.0148326725516497,0.95809097006,1.04797573722,0.0005485243753679548,0.023299559757648726,976.0118345466622,975.84746394436,976.3858935626,0.01938746880474512,0.5384296182400021,0.1385193054860046,-0.0017850308335013022,0.8888857082636901,0.6,0.4,1.3006660109502424,Lift up
-0.9097359254149485,-0.95068359375,-0.87158203125,0.0003775910688381406,0.019331279766399832,0.44860588152010306,0.41333007812,0.47143554687,0.0002511500627298898,0.01576581386498832,0.16664737032494845,0.13671875,0.19128417968,0.0002775210918649395,0.01657287089434914,1.0280933450761855,0.9794534008,1.07053761307,0.0005648533194090235,0.02364381714766089,975.9996499731159,975.94839638859,976.12257449835,0.0011821348413193777,0.17417810975996417,0.034204500934707026,-0.0002628934328120173,4.514675396062663,0.6,0.4,1.8218981824380336,Lift up
-0.9375940958621874,-0.9775390625,-0.87414550781,0.0004941320667547502,0.0221130020061966,0.46031188964572917,0.42626953125,0.47998046875,0.00022045475870843982,0.014770184662755356,0.19369125365874998,0.16516113281,0.2177734375,0.00016128662482028106,0.012633548820966201,1.0624016357365627,0.98757598047,1.10931750941,0.0006624406643166694,0.02560352008474689,975.9629845049071,975.88325977905,976.01842089867,0.0015640704722383039,0.13516111961996558,0.03934181072962735,-0.0013761702286018524,-1.0279092778891326,0.48,0.52,-0.47897581036644404,Lift up
-0.907538805505579,-0.93493652343,-0.88903808593,0.00010008593689064724,0.009951502434951768,0.4290681537801052,0.4140625,0.44421386718,6.0006101731997495e-05,0.00770548237009671,0.17911569695378948,0.16479492187,0.18957519531,5.657567089715155e-05,0.00748198753803338,1.0197667802727368,1.00375588474,1.0488166098,9.974781026892035e-05,0.009934678319841121,975.7781361186409,975.6824049823,975.88668917284,0.003935980424071487,0.2042841905399655,0.06240632220525837,-0.0022597455820688042,-1.1459630593503283,0.56,0.44,0.09919607036247065,Lift up
-0.900103629900851,-0.92443847656,-0.87316894531,0.00021771740766358765,0.014676554944157318,0.4448073366814893,0.42602539062,0.48608398437,0.00021114708308994708,0.014453402281994383,0.17868496508957443,0.15661621093,0.19494628906,9.435507312962856e-05,0.00966184742975737,1.0199177903078722,0.99635971856,1.05556783316,0.0002565113298179821,0.015930551964189698,975.5640580135698,975.45388137755,975.65784473707,0.0036668738114832944,0.203963359520003,0.06023175670372276,-0.0022055747741241754,-1.2577748143817675,0.55,0.45,0.01985795589894435,Lift up
-0.893962454284468,-0.93225097656,-0.85754394531,0.0004709079551610712,0.02158467734444073,0.44242826420872317,0.40954589843,0.46740722656,0.0002563316924848468,0.015924972828424918,0.1878168633601063,0.1708984375,0.21020507812,7.498082266341321e-05,0.00861296431765549,1.0152234088321281,0.9882398001,1.0474454763,0.00030517572505351596,0.01737610931097607,975.3464638105122,975.2390137552,975.46548047908,0.004804867899026723,0.22646672388009392,0.06894746030913415,-0.0025009229709650957,-1.153137388255873,0.48,0.52,0.10506703473111396,Lift up
-0.89601053217043,-0.93371582031,-0.8583984375,0.00029706820502996376,0.01714275133271926,0.44065938969645163,0.40283203125,0.46643066406,0.0002740339252599687,0.016464729694504167,0.17965206022731184,0.15502929687,0.19970703125,0.00010704656679711023,0.010290555303017089,1.0147392091743008,0.98682918851,1.05167981551,0.0002685156381067985,0.016298109497144723,975.1314291617614,975.02750099372,975.24737287418,0.00414674775069383,0.21987188046000483,0.06404809962210041,-0.002362677602629219,-0.9442475155512899,0.52,0.48,0.11622558928091596,Lift up
-0.8975697392967392,-0.92785644531,-0.87548828125,0.00020250922262026212,0.014153022130197774,0.438001549758913,0.42150878906,0.45373535156,6.974118638090234e-05,0.008305608346605134,0.18184363323336958,0.1640625,0.19213867187,6.0909160268100693e-05,0.007761900809610364,1.0152126677018476,0.99004372712,1.04738498478,0.00021906013742719276,0.014720022044035708,974.9116734541038,974.80809169622,975.0219088599,0.0039663579727108175,0.21381716368000525,0.06263581552156017,-0.002339831824658327,-1.1660255181884391,0.51,0.49,-0.009058618979586158,Lift up
-0.9065458878184781,-0.94226074218,-0.88403320312,0.00017718503555300014,0.013238546417696733,0.4293106742489129,0.41271972656,0.44873046875,9.638452664536143e-05,0.009764060054456972,0.18615457285695652,0.16516113281,0.20068359375,8.528899957004787e-05,0.009184875896107425,1.0202811010744564,0.99947191242,1.05259391541,0.00016990626540490551,0.012963774842700853,974.6988850408541,974.58161684836,974.80830055755,0.00950728229554991,0.22668370918995606,0.09697392572541487,-0.003252872276276466,-1.859838247664371,0.43,0.57,-0.18193639031462183,Lift up
-0.9015858409128571,-0.94104003906,-0.86242675781,0.0004012742031270143,0.019921460701947658,0.44001250214197796,0.41186523437,0.46740722656,0.00022283364202147258,0.014845366976958747,0.1788652021768132,0.15576171875,0.20336914062,0.00015455048453330913,0.012363338042794738,1.019194303776703,0.97681128575,1.06312098307,0.0004791290753973442,0.021768415668639005,974.474361020085,974.38584554931,974.57564359278,0.004081809204010399,0.18979804346997753,0.06353702981578918,-0.0023811621462839776,-1.2360250797819254,0.52,0.48,0.22654959409123437,Lift up
-0.9033352322012221,-0.94519042968,-0.87707519531,0.0003115567691661556,0.0175526359070805,0.4362589518191112,0.40161132812,0.46240234375,0.00020873019199786183,0.01436700969730062,0.18744303385055558,0.16088867187,0.20812988281,0.00012736883057714113,0.011222906100850449,1.020637929716778,0.98282147996,1.06913381956,0.00041458829484842266,0.020248006278125157,974.262936780043,974.15821698037,974.35921815305,0.003962058517879993,0.201001172680094,0.0625942141532195,-0.002397269276199032,-1.1809893456389973,0.51,0.49,-0.10429021868042455,Lift up
-0.906260850691889,-0.95080566406,-0.86840820312,0.0004290947232756819,0.0205991991137562,0.4308661566796667,0.41687011718,0.44860839843,7.115795407802895e-05,0.008388522524487171,0.18332383897266671,0.16357421875,0.2021484375,9.763592228616525e-05,0.009826040845895556,1.0201532346054443,0.98812805466,1.06347310859,0.0004455785926610378,0.020991134304969048,974.0472582769503,973.92782771891,974.15121128779,0.0041365624814398184,0.22338356888008093,0.06395780387169721,-0.0024421658547595206,-1.0311825369513046,0.51,0.49,-0.03878639521440122,Lift up
-0.9083916558114443,-1.07067871093,-0.73107910156,0.003188185531375899,0.0561494545627466,0.4943603515578889,0.42163085937,0.93627929687,0.020720684193437745,0.1431448719621706,0.16218532985755557,0.01013183593,0.20031738281,0.0024483641138599126,0.049205284961580685,1.056359983243111,1.00160048973,1.28847837796,0.006107460928647916,0.07771486506237361,973.8725242694973,973.77666244935,974.0409757073,0.004140288887837621,0.2643132579499934,0.0639866054574921,-0.0003448736906639501,1.3255129619112127,0.56,0.44,1.078824662323995,Lift up
-0.7047479802873864,-1.05493164062,-0.26293945312,0.04774197770199461,0.21725435606244656,0.6753609397156818,0.44348144531,1.08557128906,0.03477355490417025,0.18541413341805504,0.17131736061465908,-0.30090332031,0.330078125,0.025018614185939595,0.15727145879659304,1.0259143651147726,0.5708052453,1.48866922723,0.03635678120818393,0.18958806915832505,973.572480636714,973.41020862044,973.91758353442,0.0179891256218739,0.5073749139800157,0.1333593031618235,-0.0037785340418763505,1.0421172850879517,0.59,0.41,1.3624993570220627,Lift up
-0.8799596207830338,-1.24548339843,-0.58422851562,0.03373573089948873,0.18263810594537686,0.6183574547882021,0.34155273437,0.98486328125,0.01953658319647823,0.13898586628046494,0.07514867889617978,-0.33764648437,0.36767578125,0.049004271796498085,0.22012192530738917,1.1093413403880898,0.71631897422,1.37880112568,0.033204485423398544,0.18119437440913463,973.4333381497061,973.25873443669,973.68480096516,0.01987851934116077,0.42606652846995985,0.1401968801053008,-2.4116317679057425e-05,-1.104905981189211,0.65,0.35,0.6182231389749533,Lift up
-0.8805366603770115,-0.99475097656,-0.77954101562,0.0019865150288353476,0.04431344629744769,0.4601924501581609,0.38916015625,0.7646484375,0.010498737885057141,0.10187277721233007,0.24012072332655168,0.17895507812,0.45397949218,0.005203729726744625,0.07172110387730897,1.0271772020512642,0.95675600726,1.25999307279,0.007255921203880965,0.08469073037076082,973.1058702953093,973.01366142788,973.32210520405,0.003430843094007632,0.3084437761699519,0.05823579754683188,-1.1906712871392516e-05,6.415368243534086,0.51,0.49,1.909741029982971,Lift up
-0.8826210715518182,-0.92224121093,-0.84252929687,0.0002964724053485766,0.017120262870129733,0.4297069202728409,0.40063476562,0.45349121093,0.00023650742341904676,0.01529116866240158,0.20059065384931818,0.18981933593,0.21252441406,2.5936582430849667e-05,0.005063778089489113,1.0020254700222728,0.95305634079,1.03895067746,0.00040674834824992875,0.020053084748459696,973.0606926613301,973.04416068921,973.08591140462,8.283340898855988e-05,0.041750715409989425,0.009049426514981683,-0.0002702513268610985,1.6024363339704655,0.67,0.33,1.3295941651886676,Lift up
-0.8955262649859301,-0.92126464843,-0.85522460937,0.00021826993628085018,0.014687815146098366,0.43971429868790685,0.41625976562,0.45617675781,8.62854939410078e-05,0.009234834824945129,0.21393815860790705,0.19702148437,0.23583984375,9.161460579169096e-05,0.009515740626868415,1.020423350690349,0.97736402043,1.04512156779,0.00021712808678259231,0.014649346114671669,973.0450414262071,973.03997690318,973.05403988486,1.5516954315430084e-05,0.014062981680012854,0.00391618751007761,-5.197840624035042e-05,-0.4688095058472195,0.63,0.37,0.7430756165258082,Lift up
-0.8937974086987208,-0.90954589843,-0.87268066406,7.960883804934104e-05,0.008870352523207666,0.4337087231973254,0.42224121093,0.44409179687,3.022038048508834e-05,0.005465252117881289,0.2179934479427907,0.20324707031,0.22729492187,4.7261511501499705e-05,0.006834614769113175,1.0171423444712793,0.9952267782,1.03464577521,7.580434365760276e-05,0.008655801395660544,973.0435192054305,973.03627181001,973.05629605599,2.229272312678126e-05,0.02002424597992558,0.004693986090307974,-1.7966969599474285e-05,2.0788928245140994,0.57,0.43,1.3840629158662427,Lift up
-0.7259655463940243,-1.02111816406,-0.47302246093,0.020761467794867962,0.1432071198063254,0.5610277129343902,0.34899902343,0.74108886718,0.01234860749439395,0.11044462286626756,0.19834490519939027,-0.03991699218,0.51513671875,0.02223555852928009,0.14820389057430997,0.9534269207974391,0.64518480399,1.19537386393,0.027097015827048817,0.16360490339388925,973.0082822368447,972.94635420598,973.16392853762,0.0028444456877661354,0.2175743316399803,0.053007144100773874,0.0004053260206603257,1.2618643387940942,0.52,0.48,1.118727938340095,Stairs down 
-0.7845112364932099,-1.44677734375,-0.46374511718,0.04987568342528901,0.2219457912356056,0.5713011188240741,0.35681152343,0.83276367187,0.017978495584832162,0.1332536635489507,0.1256103515602469,-0.08947753906,0.43566894531,0.015334228425723587,0.12306468609506797,0.9896164295792594,0.67250816318,1.67225496484,0.061197040354208546,0.24584857399930127,973.0607401251717,972.97970621151,973.20387501032,0.003117907844835001,0.22416879880995566,0.0554924783677265,0.0009437794464311792,1.3955681288430277,0.58,0.42,1.2180865504134364,Stairs down 
-0.8154658564776543,-1.17614746093,-0.59143066406,0.020276007594285682,0.14151214263403247,0.5652382933030864,0.33203125,0.86181640625,0.019283829606302236,0.13800636809891803,0.1028721185348148,-0.29821777343,0.30163574218,0.027209754664573527,0.16393239999304599,1.0188536340387655,0.77563945323,1.46961118429,0.02323091379734441,0.15147314082846147,973.1061717572063,973.03300127668,973.21440481223,0.0017891052359762106,0.18140353554997546,0.04203590747222595,-2.390829413700472e-05,0.6750426169384065,0.47,0.53,0.6306199158196621,Stairs down 
0.4527889298787654,-0.46728515625,0.96716308593,0.156226774873516,0.3928079037618688,0.2882697964862963,-0.13171386718,0.75927734375,0.03637780998714958,0.18954867771070347,-0.7262204017144444,-1.19165039062,-0.24084472656,0.09220035762322257,0.3017649442913852,1.0118796277067903,0.64538980579,1.53804344966,0.07381308623711463,0.2700033584374843,973.0604311133277,972.83135847801,973.62987092345,0.024236620589299946,0.7985124454399966,0.15471717115808586,-0.0005422747872675079,4.582263496836144,0.64,0.36,1.7445561349744239,Stairs down 
-0.024816894531625004,-1.21020507812,0.82360839843,0.2907131315746914,0.5357977392916171,0.291682434079625,-0.10913085937,0.703125,0.04416097717282371,0.20882759625625014,-0.666381835934,-1.09094238281,-0.05871582031,0.07461074183285987,0.27143711529551207,0.8992146264875001,0.19621381693,1.67102758375,0.1271277137483822,0.354314291733381,973.1516927567209,973.01709090402,973.39090077585,0.013061086668381496,0.3738098718299625,0.11356858317786098,0.0018979525798042678,-0.24837222862699182,0.69,0.31,0.9696881282604346,Stairs down 
-0.7459167480425,-1.6484375,-0.14001464843,0.2096668858706049,0.4550231310573368,0.55075836181225,0.10766601562,1.19030761718,0.0931418987370198,0.3032781314285734,-0.07798614501675001,-0.82373046875,0.90185546875,0.15320529354574539,0.3889604444881556,1.0521096131858751,0.2230977817,1.81496164856,0.2118356161524632,0.4573703870503177,973.2276119460166,973.01358095948,973.43152454552,0.008775887997769075,0.41794358603999626,0.09309237024481094,0.0011611769066421365,0.5757489134145755,0.47,0.53,0.02160865166814762,Stairs down 
-1.0632030631887341,-1.89892578125,-0.60668945312,0.12120806797036128,0.3459389955309524,0.37545892256468355,-0.02172851562,1.27416992187,0.06752194778077932,0.25819999918865727,0.017652294303544303,-0.59143066406,0.54895019531,0.11217290560896288,0.3327957262516769,1.187065121414684,0.63037173199,2.35175985794,0.16079128806963047,0.3984419095793707,973.322884376815,973.2243014401,973.54908018326,0.006894004583942584,0.3247787431599818,0.08250296178400618,0.0005279575176658247,1.7520024445323275,0.65,0.35,1.4884987738546247,Stairs down 
-1.119446573373924,-1.63024902343,-0.74987792968,0.05225768183774452,0.22714795221227235,0.2485938736117722,0.00085449218,0.46154785156,0.014989721798248427,0.12165516217714128,-0.05586648289012657,-0.224609375,0.05261230468,0.00652513171052276,0.08026540417011611,1.1582405327473413,0.74998587356,1.66899586037,0.05003149266815647,0.22225701931408676,973.3830936593797,973.34746802206,973.45046475594,0.0006845314345843447,0.10299673387999064,0.025997432175432027,-8.350067988528229e-05,1.0151021997928655,0.52,0.48,0.9267254212802424,Stairs down 
-0.7053778925992403,-1.02502441406,-0.23754882812,0.043308093302480706,0.20678464544010777,0.6537282436665822,0.23693847656,1.0078125,0.030845760109270693,0.1745144906581103,0.05405242533645569,-0.21142578125,0.4033203125,0.04221863065628923,0.20416713156139282,0.9975769792941772,0.62592788007,1.49299308741,0.04818983557287792,0.21812803041845377,973.4477226379896,973.22809564379,973.73882098386,0.01862446049039226,0.5107253400700529,0.1356049697686516,-0.0013462755939454769,-0.15151145781414854,0.61,0.39,0.5183715128978937,Stairs down 
-0.90045013427375,-1.25158691406,-0.61022949218,0.025912909943190048,0.15996561683343133,0.5365905761686249,0.30456542968,0.880859375,0.03362253553572415,0.18221485625910858,0.18929595946924999,-0.06323242187,0.39221191406,0.016062869374175975,0.12594476371409324,1.079514525737625,0.71353486097,1.53162163486,0.044429950032847255,0.2094625877273473,973.411236178125,973.28855005783,973.48220216156,0.0020507792405765044,0.19365210373007358,0.04500160552768421,0.0012640934325230297,0.843966401377541,0.46,0.54,-0.969126665012645,Stairs down 
-0.8207046508751251,-1.02465820312,-0.50073242187,0.019469480233061845,0.13865825518211516,0.6121078491175,0.40966796875,0.93005371093,0.01710941651703837,0.12998287891324528,0.18342437743824996,-0.03454589843,0.40478515625,0.01606283553522972,0.12594463105285333,1.05683424610775,0.67920667807,1.24841485844,0.017176437513719466,0.13023721451565973,973.5471942314376,973.38641939013,973.73382914089,0.009748327551742481,0.3474097507599936,0.0981145934983461,0.0019271138324791527,-0.7800519186638284,0.64,0.36,0.5926716014078542,Stairs down 
-0.8064132690398751,-1.02502441406,-0.62475585937,0.011413540924767478,0.10616436154947612,0.57700195312075,0.36596679687,0.83251953125,0.011462518837004216,0.10639190453949804,0.19491424560212503,-0.06958007812,0.44580078125,0.020114426651913042,0.14093614269861413,1.024316519005125,0.7333759858,1.19957300476,0.014636913171378099,0.12022458881915908,973.4043442947004,973.29051063071,973.55714625822,0.004040533687767959,0.266635627510027,0.06316666064207335,0.0014956718308072588,0.9443921928724746,0.54,0.46,0.7927092710578798,Stairs down 
-0.8654043463173416,-1.10217285156,-0.61560058593,0.020976998262768276,0.14391478950819797,0.5699092044067087,0.33227539062,0.91918945312,0.023583999564394467,0.15259576640372052,0.1767160922632911,-0.09680175781,0.35131835937,0.020304907928727908,0.14159054974726015,1.0666612721739241,0.72871774523,1.37911349244,0.03162867289478661,0.1767153359127366,973.4564231717169,973.38510735069,973.54452435152,0.002057192288418146,0.15941700082998977,0.045068302383204896,-0.00012393748050664607,-0.6958805375227541,0.57,0.43,0.39741284851929226,Stairs down 
-0.8447960962184807,-1.08520507812,-0.60107421875,0.01502413118633397,0.12179471380383301,0.5463666312267087,0.3798828125,0.77624511718,0.010507011807197453,0.10185289224042318,0.2263631699927848,-0.07751464843,0.43054199218,0.01571398903783247,0.12455953509944159,1.043291119767848,0.71988953565,1.33650105284,0.015905237927732033,0.12531522573919157,973.4552562587761,973.38548183358,973.5566935621,0.002134166502349975,0.17121172852000655,0.045903722468852604,-0.0003654121998673816,-0.9524284170431221,0.48,0.52,0.251024191122411,Stairs down 
-0.847249864019367,-1.04284667968,-0.66137695312,0.01118289802385419,0.10507779190992815,0.5783011520925316,0.36511230468,0.88891601562,0.014364338741540493,0.11909035086379906,0.10616099683405064,-0.14514160156,0.32055664062,0.019866537864108483,0.1400537850301507,1.0448782271183539,0.79723968762,1.34559459276,0.016815979558274918,0.1288530909894569,973.4609320475626,973.38514483308,973.52809714906,0.0015422540635833602,0.1429523159800965,0.039022197019733036,0.0007466736313817152,-0.43490905242550015,0.61,0.39,-0.10137816501871061,Stairs down 
-0.7225999098521794,-1.36633300781,-0.17712402343,0.12011943610167206,0.3443536602551769,0.553806402741154,-0.52551269531,1.0126953125,0.12959472956821752,0.3576775904027499,-0.05566093248923078,-0.29467773437,0.27783203125,0.03806679975317499,0.193852428044901,1.025759589023205,0.68496648015,1.52043374627,0.06468837031555442,0.2527034472154778,973.4218943490515,973.32588293748,973.48304243865,0.0019137923789399984,0.15715950117009925,0.04346557924622653,0.0011209829889511924,-0.6081879537531156,0.45,0.55,-0.4787955226353644,Stairs down 
-1.010122445910128,-1.54968261718,-0.56750488281,0.08613062940982014,0.2915928506860768,0.34586588541358976,-0.06713867187,0.92639160156,0.053681728772590864,0.23020317434960486,0.10132148938153844,-0.21301269531,0.48669433593,0.03593933310282502,0.18835756534320455,1.110995629000513,0.60671703498,1.58697627018,0.09058513533762669,0.2990381036735666,973.5170420605056,973.39387896346,973.70501099123,0.0052527763385412955,0.31113202776998605,0.07200995106337554,0.002104275776008092,0.0853521059349891,0.64,0.36,0.5732228214680183,Stairs down 
-0.7087386693669229,-1.03625488281,-0.35522460937,0.03078572838866888,0.17433026003299923,0.5965732672256409,0.17822265625,1.03479003906,0.04272965113768249,0.20538216840187415,0.007732684795,-0.87414550781,0.30358886718,0.0661630742051557,0.25556766161637895,0.9699638326826926,0.40374816294,1.41011232217,0.06477446086650597,0.2528715465617378,973.545416917559,973.43294545054,973.88207057346,0.007927235988267866,0.44912512292000883,0.0884624482910633,-0.00013208059188898641,5.536050246444871,0.64,0.36,2.1406874898374526,Stairs down 
-0.8061038286225639,-1.30187988281,-0.4912109375,0.04745784066753857,0.21644723794224432,0.5415039062474358,0.31958007812,0.78515625,0.019264600880569308,0.13790438288175583,0.02297738882294871,-0.16613769531,0.2646484375,0.01259141731619576,0.11148986002800902,0.9814344604476918,0.63705974645,1.52439585154,0.05940281227768701,0.24215952956946876,973.5916349773289,973.50737218794,973.64470714258,0.001203385120629694,0.13733495464009593,0.03446675363684034,0.0013475490047448776,-0.4956461877361855,0.4,0.6,-0.4278377591431822,Stairs down 
-0.8119372082950648,-1.21228027343,-0.52172851562,0.040287940970950696,0.19941093490162706,0.6262952135716882,0.31408691406,1.04736328125,0.03260421327679361,0.17939002741383522,0.08666833654402598,-0.03723144531,0.25183105468,0.00668078523397407,0.08120358236787958,1.0372222267806492,0.70195509751,1.53745736008,0.06252065888172365,0.24841236336557423,973.6766300800028,973.64079612677,973.71277202152,0.00048501507659127975,0.07197589474992583,0.021879583622470784,0.0008452203282475365,-1.3385520729588625,0.48,0.52,0.06930966925912883,Stairs down 
-0.8519254985582895,-1.20031738281,-0.54516601562,0.034662072250568006,0.18494862084518018,0.5772223221588156,0.35083007812,0.84313964843,0.018368187776703872,0.1346346949914154,0.07449822676776315,-0.12084960937,0.36352539062,0.019823982641874384,0.13986829792704142,1.0451219675257897,0.76303750346,1.44604930139,0.04471673538854238,0.21006750650999007,973.7391108595494,973.69687804639,973.76829999232,0.00036625025875159105,0.07142194592995565,0.01901134336125663,0.0007370681231800621,-0.2029110791661597,0.43,0.57,-0.6843404027046329,Stairs down 
-0.8153911389772366,-1.49169921875,-0.47729492187,0.05486163107995786,0.23267953823470663,0.6374463533055262,0.30041503906,1.35034179687,0.056608102894057405,0.236354097563222,0.09279753032460528,-0.13317871093,0.50695800781,0.02221889615770391,0.14807613670302186,1.0573529362078946,0.7102993417,1.71821833103,0.0949962324293072,0.30618014632337903,973.802043392004,973.76829999232,973.8605521364,0.0004804426347531803,0.09225214408002103,0.02177432022217931,0.000656120755384663,0.278800122867239,0.5,0.5,0.45829450026478147,Stairs down 
-0.8570458984339999,-1.0068359375,-0.7021484375,0.009134619123246517,0.09493589522200352,0.5313281249972,0.28405761718,0.90209960937,0.020019945115730006,0.1405454108613545,0.14855468749760004,-0.138671875,0.37609863281,0.017580746170196452,0.13170549047500069,1.0333060240248002,0.79880054491,1.33586801381,0.017530314794514303,0.13151645244577112,973.8407074971751,973.79616552256,973.87032472506,0.00040657399449279744,0.07415920249991359,0.020028804455073202,6.936720920683362e-05,-0.6772496500982883,0.41,0.59,-0.6014847777871097,Stairs down 
-0.9056408335828154,-1.46484375,-0.54260253906,0.07421973858856494,0.27110728245893395,0.5209972788942717,0.29162597656,0.80676269531,0.014880360486261257,0.12139147814808571,0.09020403519203883,-0.04919433593,0.296875,0.00713581500608491,0.08406268642355108,1.0603318779464077,0.63800174658,1.57218692179,0.07145185277093226,0.2660040327936338,973.884666125885,973.84394107398,973.92527832439,0.0005579847824256574,0.08133725041000162,0.02350675337942146,0.0004706005587046738,-0.46340369676576687,0.4,0.6,-0.24115848314988542,Stairs down 
-0.9066004599259141,-1.15637207031,-0.63623046875,0.0174528205607991,0.13139693993235232,0.41544727612172033,0.10974121093,0.75341796875,0.0171227939412074,0.1301486760490611,0.2188090662766666,-0.03527832031,0.384765625,0.012098385462391163,0.10939970427806875,1.0329011041858063,0.71522563885,1.34613493592,0.018871200632773234,0.13663193073706073,973.9224266597369,973.88306002753,973.97081408563,0.0005597569615358175,0.08775405810001757,0.02353163975324058,0.00020426774500257306,-0.31493205923983236,0.61,0.39,0.3831225307110459,Stairs down 
-0.8937145414767856,-1.21032714843,-0.56689453125,0.03226762506460399,0.17855947656447066,0.4700549897653571,0.24841308593,0.99377441406,0.027549383143464043,0.16498913387407682,0.1474522181895238,-0.17846679687,0.34387207031,0.020249609409817487,0.141451555774863,1.03645168008,0.6590316154,1.57532344611,0.046858732208680504,0.21517641636242843,973.9206621759681,973.87006230815,973.96554033637,0.0008875071051959394,0.09547802822009999,0.029613198821130372,0.0004005749681767137,-1.1073667854369669,0.4,0.6,-0.3027049468103892,Stairs down 
-0.9177343195104545,-1.14147949218,-0.67822265625,0.018143969781851767,0.13393202868267917,0.50254821777,0.11767578125,0.84228515625,0.027557219860165797,0.16505777665557625,0.16984835537749998,-0.15600585937,0.37780761718,0.02096940920847659,0.14398305618186877,1.0788572856990908,0.75482891132,1.39698595229,0.02591386748529526,0.16006058764860545,973.9134321702172,973.85957007029,973.95746172583,0.0009553418079430999,0.09789165553991097,0.030732485272666372,-0.0002734716765507835,-1.1330087030836633,0.55,0.45,-0.13042516791035708,Stairs down 
-0.9186242675742998,-1.2392578125,-0.64538574218,0.02085804959012224,0.14369923136266602,0.4941076660119999,0.20446777343,0.84399414062,0.02188490552580971,0.1471939416910615,0.19041748046469997,-0.17346191406,0.40283203125,0.019402561614768544,0.1385948628146832,1.0753734804329003,0.69950670035,1.50331931117,0.0296643298994656,0.171370028302708,973.9244181709043,973.8757030735,973.95583288482,0.0008105907851493174,0.0801298113200346,0.028328164029774755,-0.00023631679496390255,-1.1222402815421153,0.4,0.6,-0.5943077562578667,Stairs down 
-0.8671751558083146,-1.04748535156,-0.64270019531,0.01424298741764291,0.11867162192854928,0.4184611459753932,0.10400390625,0.71936035156,0.02280845440563036,0.15017383139890841,0.1616800715397753,-0.19323730468,0.38720703125,0.021990938996111317,0.14745795941185347,0.994174018297528,0.71073765094,1.27075275637,0.023504021835007795,0.15244648799506724,973.9143291164052,973.85911094944,973.9604937012,0.000729260335403359,0.10138275175995659,0.02685267955066146,0.00027996143781197457,-0.8868384311219275,0.45,0.55,-0.4499944532233152,Stairs down 
-0.8069194275617284,-1.00756835937,-0.59704589843,0.01074457885137584,0.10301422100736343,0.49258686583358025,0.3466796875,0.73132324218,0.005913156275463899,0.0764209025472559,0.15099494839641975,-0.06665039062,0.35083007812,0.01246687617154899,0.11096379643851587,0.9655119029955558,0.7656831038,1.22091118832,0.013275971664842876,0.11450795072872333,973.9135915616021,973.86493665,973.94908846369,0.000453640050008668,0.08415181369002767,0.021166944880263577,0.00022209600335417034,0.34363719495430267,0.49,0.51,-0.6490560532646238,Stairs down 
-0.8577913411421332,-1.14624023437,-0.482421875,0.02935634471790606,0.17019085400906236,0.6018050130178667,0.240234375,1.01867675781,0.030647147947588774,0.1738922635090118,0.15770996093573336,-0.23767089843,0.51049804687,0.042366511691432,0.20445445671072954,1.0867976049646664,0.67088466669,1.56212165543,0.04330107488494373,0.20669718725665126,973.9737623448253,973.93240947247,974.03312513067,0.0005930832991327121,0.10071565819998796,0.024190401439640116,0.0009062679514998085,-0.34992972159197766,0.4,0.6,0.12476786599854298,Stairs down 
-0.8604597897820618,-1.35571289062,-0.52136230468,0.03968492643171795,0.1981812389678035,0.5034620147350515,0.33959960937,0.806640625,0.014271355912805666,0.11884539760655975,0.08067463353639176,-0.05676269531,0.24926757812,0.009177367784868863,0.09530349283132071,1.0094284062654642,0.71018478873,1.57754568287,0.044367928316349496,0.20954838819113006,974.0145097044851,973.96854168681,974.06517533862,0.0006462808146001196,0.09663365180995243,0.025290672703386304,0.0007031708479432794,-0.3672158616651888,0.56,0.44,0.461348318813104,Stairs down 
-0.8219777960496841,-1.29724121093,-0.51879882812,0.057456116382915444,0.238435138261608,0.6417647512297893,0.43041992187,1.14501953125,0.029245206526850226,0.1701098534701039,0.05049984580589473,-0.17614746093,0.36511230468,0.019735371835223486,0.13974130054877562,1.058039475770421,0.68793511709,1.70923533749,0.07673625378115331,0.2755512724364591,974.0770032455787,974.03822065541,974.20045855084,0.0017508451502701182,0.16223789543005296,0.04162229211996747,0.001219451326400115,2.9289452205397586,0.61,0.39,1.8060534751713615,Stairs down 
0.3993340853978162,-0.42102050781,1.13684082031,0.1673352409313024,0.406708553336882,0.6502853919688504,0.14770507812,1.06945800781,0.07556435506486082,0.27330532241344585,0.20687269890137922,-0.18481445312,0.62145996093,0.05321888906764158,0.22936254641734338,0.9339536170214944,0.6018355852,1.504759336,0.04611058865312574,0.21349609337643127,974.0908819986591,974.00734121492,974.24580347371,0.0034268435054261334,0.23846225879003669,0.058201842751038714,0.0006907399625187146,0.386179289402941,0.56,0.44,0.7333596238661864,Stairs down 
-0.8058729056818073,-1.20983886718,-0.42102050781,0.04996504635711586,0.22217798686366108,0.6767401637772288,0.38110351562,1.13757324218,0.041197258209369134,0.2017446547019834,0.10665268495614456,-0.18298339843,0.38818359375,0.018056337693046123,0.1335619386493791,1.0715289723773493,0.70182300395,1.6493952125,0.07946905949776242,0.28019921653994073,974.2089092958277,974.06600146862,974.4116701037,0.007112380263325229,0.34566863507996004,0.08382534780632546,-0.001229184714267049,0.7392642415165138,0.55,0.45,0.7076251517578582,Stairs down 
-0.8085518631247056,-1.51428222656,-0.47912597656,0.08568587117086089,0.2912830472416173,0.6518255495520588,0.38732910156,1.14904785156,0.041340276285044844,0.2023239468246922,0.06726792279245099,-0.09057617187,0.25732421875,0.006377766870726817,0.07946848271197343,1.0496979181631374,0.61789502259,1.90620580997,0.11451060222777307,0.3367312715872342,974.2391828075712,974.1352830365,974.40330081405,0.00493368246700985,0.26801777754997147,0.06989501435051554,0.0008640708304814392,0.8563837824974501,0.8,0.2,1.3614349943707529,Stairs down 
-0.7732268951714285,-1.20288085937,-0.53369140625,0.031989700286328755,0.17787120373558818,0.5807770110706594,0.38366699218,1.00769042968,0.022043173533715297,0.14765141671355755,0.1981751158953846,0.0166015625,0.49267578125,0.014708840603242467,0.12061179458169845,1.0007441931994505,0.71120785194,1.49226913428,0.04140754326132983,0.20236727826751816,974.3075336938944,974.20744559103,974.46123076951,0.0065226690837344265,0.25378517848002957,0.08031806398000133,-0.0005473013625329923,-0.9383628551843741,0.51,0.49,0.49794795290922145,Stairs down 
-0.8016714700814634,-1.35803222656,-0.45910644531,0.055598213896252316,0.23435056410753,0.5794156702524389,0.32873535156,1.05725097656,0.028033255070473717,0.16640728982289102,0.16597840843939027,-0.080078125,0.47033691406,0.028989534940274463,0.1692217599080233,1.025819988522561,0.63351436827,1.52344367197,0.06569052913421387,0.25473402819486446,974.3557089985653,974.25027734916,974.59617307842,0.006999678336488383,0.3458957292599507,0.08315236861061504,0.0018918660068377989,0.6709886710299124,0.68,0.32,1.1470688651687897,Stairs down 
-0.8415687962556578,-1.10961914062,-0.57971191406,0.02275674038803378,0.1498576310818184,0.5480169998924999,0.37475585937,0.79382324218,0.012701964260865038,0.11195906909299239,0.21794369345921047,-0.01879882812,0.39477539062,0.014181867868938366,0.11830158217178277,1.0401985580899995,0.7247006238,1.29750436425,0.02334161791028571,0.1517711809232391,974.3738550752448,974.26483799931,974.4333212178,0.0017626582999048016,0.16848321848999603,0.04170689904005851,0.0008907962259554659,0.003632229156929956,0.61,0.39,-0.358888131337124,Stairs down 
-0.8467109147863954,-1.056640625,-0.57568359375,0.013954829884363994,0.11744174905284882,0.5479622774310463,0.3447265625,0.78430175781,0.01114946801092035,0.10497534488654554,0.24342239734558146,-0.10754394531,0.4208984375,0.018955471732253464,0.13687607267251103,1.0507804419697675,0.69370291352,1.23404336651,0.016030808484917124,0.12587455555072483,974.3992722716569,974.33208258174,974.51611330146,0.0032381445462634634,0.18403071971999907,0.056572888406923864,-0.0003935991373775962,-0.786212429772271,0.59,0.41,0.7580291134957824,Stairs down 
-0.8464294433543,-1.20031738281,-0.56188964843,0.02272306499324324,0.14998611383495075,0.5236596679658999,0.35119628906,0.75988769531,0.011212863819698033,0.10536002648775794,0.19911499023179996,-0.0625,0.38208007812,0.0207880751572306,0.14345798829503464,1.0279353930218,0.67973357077,1.42063205489,0.028115779262205494,0.166837110588692,974.3870260727533,974.36363732239,974.41709123972,0.00025942192680226896,0.053453917329989054,0.016025844986591077,0.00032965686296636363,-1.1782745308720428,0.49,0.51,0.10999432333312589,Stairs down 
-0.8490525149185394,-1.07763671875,-0.58068847656,0.01861156691056946,0.1356556234781191,0.48838274666033704,0.23986816406,0.85864257812,0.017151353791409283,0.13022535064670154,0.21293588702325844,-0.13232421875,0.40515136718,0.020181835165080424,0.1412624259037567,1.0181535970477529,0.6849404503,1.27669803969,0.023695226737532993,0.15306530709100638,974.3930513675039,974.34551765105,974.4640765895,0.0013002885416425513,0.1185589384499508,0.03585636007779638,-0.0001382677013498859,-0.503396007967063,0.52,0.48,0.5991344061003514,Stairs down 
-0.830825433494878,-1.07861328125,-0.63549804687,0.012090605861719539,0.10928476311349052,0.5632234898973171,0.36865234375,0.85864257812,0.013772282254829467,0.11663759082382148,0.18081888338085364,-0.11242675781,0.37158203125,0.019218805044998566,0.13778399534676766,1.033637136194756,0.74880139617,1.27669803969,0.016514654424161064,0.12772335808095625,974.372333587209,974.3213780367,974.47445850544,0.0023602877275115592,0.15308046873997228,0.0482856472550031,-0.0005788547442226338,-0.6695765234979114,0.67,0.33,0.8207712950186217,Stairs down 
-0.8290990193643749,-1.52197265625,-0.45812988281,0.073043254482076,0.26885383993517314,0.5962333679160418,0.39538574218,0.94409179687,0.03654650883548401,0.19017312122146593,0.14415868123145834,-0.13549804687,0.44116210937,0.02334859821937903,0.15200455142723138,1.0485253768064584,0.64334123744,1.80867233682,0.0968379884799948,0.30956301367141426,974.368248170378,974.29807795731,974.47442849321,0.002180572745120159,0.17635053589992822,0.046452754984950294,0.0007633748484564578,0.31897448039163345,0.67,0.33,1.0978040336434418,Stairs down 
-0.8116570723650526,-1.3916015625,-0.46301269531,0.03553304649224987,0.1875073716521844,0.5501143606042106,0.30712890625,0.83703613281,0.016581876737909982,0.12809110299698653,0.14758814761210529,-0.04296875,0.41235351562,0.017144495475301832,0.13024602528245383,1.0076732058075788,0.69075197847,1.61913282072,0.03670674344106036,0.19057900374384523,974.4309897826361,974.37228620786,974.62423216328,0.003235105987931627,0.2519459554199557,0.05657784231207692,9.150692714181538e-05,4.815616550879302,0.72,0.28,2.277763490741382,Stairs down 
-0.7464312385070587,-1.08117675781,-0.51806640625,0.02116993411905203,0.14464050632721318,0.6137609145185882,0.375,0.85559082031,0.017308198195016642,0.1307844498933218,0.12880572150341177,-0.08984375,0.38940429687,0.012797877609747961,0.11246027895995513,0.9890099705476468,0.74218209917,1.34026365123,0.02325863986851324,0.151608076339081,974.4642426777654,974.41602252437,974.56512500864,0.0014881589357586577,0.1491024842700881,0.03834907017873135,0.00012791489148746918,0.33745915752716993,0.65,0.35,0.9762623209187596,Stairs down 
-0.7857712965710254,-1.23974609375,-0.45922851562,0.039105086141882635,0.19647834202184566,0.5556061573476919,0.33935546875,0.93115234375,0.029613870972544348,0.1709801332321268,0.1063936673648718,-0.005859375,0.48010253906,0.0133509421191377,0.11480320637740643,0.9826231428484615,0.70839552162,1.55343945886,0.05361114763563401,0.23005178814790586,974.5176447047744,974.47585228915,974.55825703897,0.0006140216754635852,0.08240474982005708,0.02462010565983078,0.0006206949516242969,-0.933814488231933,0.56,0.44,0.015657609476163046,Stairs down 
-0.8001805355640788,-1.26831054687,-0.51391601562,0.0405450033201361,0.2000287890138438,0.6167988024218419,0.35546875,0.86303710937,0.023174737179536678,0.15122766422574394,0.16977249948144738,0.01208496093,0.44799804687,0.012468524614512023,0.11092549337330238,1.036978338809342,0.74839903905,1.53853563788,0.05007292074607889,0.22229274960226603,974.5931277715482,974.53089896214,974.69558679619,0.0019534382893417316,0.16468783405002796,0.04390598084493337,0.00025026005236657465,0.0811517085795983,0.61,0.39,0.7838187105366594,Stairs down 
-0.8230140763048484,-1.24621582031,-0.52941894531,0.028914772930777502,0.1691824592483964,0.5413682725647473,0.35864257812,0.87048339843,0.012702176427639964,0.11213327612818401,0.09909643307808082,-0.07873535156,0.38696289062,0.015205152478281837,0.12268482008590677,1.0003525925677776,0.73572345463,1.54228870519,0.03615996329923009,0.18919490253358417,974.6572627411049,974.52639997561,974.9346965456,0.008862004866846154,0.40829656998994324,0.09366156984682107,-0.00017808507825778632,1.072355741483955,0.68,0.32,1.047997607438813,Stairs down 
-0.8156356811484374,-1.27465820312,-0.51196289062,0.04532554504512421,0.21178622228772145,0.5669631957969791,0.29467773437,0.87048339843,0.025596967437332408,0.15915505760063106,0.14366022745520832,-0.06982421875,0.44860839843,0.015328241529703093,0.12316075814601832,1.017526922989896,0.69944889394,1.54228870519,0.05794192204160413,0.23945429700398102,974.7266734066416,974.63938307791,974.85651892824,0.004153736082934446,0.21713585033000982,0.06411293160304879,0.0009292922721316774,-0.3223779247427534,0.6,0.4,0.7613283709858626,Stairs down 
-0.8506289395384091,-1.0361328125,-0.5361328125,0.00865715058361658,0.0925136415478232,0.4901289506354546,0.33947753906,0.69592285156,0.008416584573305944,0.09121919516631959,0.14469909667579547,-0.041015625,0.29528808593,0.0076863516721374335,0.0871722821014354,1.0002851181232955,0.77275305624,1.17006010025,0.008741550074288213,0.09296351046507165,974.7631906939711,974.72011897574,974.83952393742,0.0011686993609035731,0.1194049616800612,0.033991450194833565,-0.00010256056903447501,-0.5564802207950175,0.57,0.43,0.8517708946565539,Stairs down 
-0.8087962757418183,-1.19140625,-0.49780273437,0.038225104029810726,0.19439837408696037,0.6341608220842044,0.29760742187,0.91711425781,0.027016202577571844,0.16342949634491927,0.1011990633859091,-0.15307617187,0.3671875,0.01815375787622683,0.1339681498457297,1.0459350803830683,0.67979995849,1.43744325007,0.055652226941846704,0.2345630304887217,974.8101761629213,974.71448437295,974.98567608904,0.0055728120646911265,0.2711917160900157,0.07422590285651695,0.001877449599309686,0.6241513887666819,0.59,0.41,1.0768206313986513,Stairs down 
-0.8205718994101924,-1.05676269531,-0.66711425781,0.011418409627422256,0.10634198243007593,0.5413301908012499,0.28735351562,0.73266601562,0.015538032972821645,0.12405091216763155,0.19245910644250003,-0.0556640625,0.40942382812,0.017621651490321112,0.13210682243428387,1.0181741931021153,0.8013022147,1.24088436125,0.010993604034260545,0.10434508279340185,974.8260527550117,974.72993337052,974.94411399301,0.003358498410227414,0.2141806224899483,0.05767326205689184,-5.682103765815634e-05,-0.32668365257491283,0.44,0.56,0.3816049955774214,Stairs down 
-0.8823550716825275,-1.11975097656,-0.68774414062,0.01446640014432007,0.11961366441240193,0.5059613238283514,0.21350097656,0.853515625,0.02615659278755747,0.1608389184929441,0.13342955872153847,-0.14880371093,0.30688476562,0.017761109060537905,0.13253653095616555,1.0457505011220878,0.76063665164,1.40180471149,0.01668251305429968,0.12844916790318908,974.8210398938406,974.76211753274,974.89554019697,0.0016359007376322118,0.13342266423001092,0.040223423604281126,-0.0007237989677142617,-0.75700204851612,0.52,0.48,0.29076487725897865,Stairs down 
-0.7822397990365061,-1.2373046875,0.25891113281,0.08731857269715151,0.29371166422326556,0.5586731692349397,0.3330078125,0.93395996093,0.025640203252501218,0.1591580508206396,0.03661815229650602,-0.50842285156,0.38146972656,0.08366165472603555,0.28749553558681284,1.0444497097977106,0.65865232494,1.40740324522,0.029082406265713654,0.16950520885441056,974.8174293767494,974.67801045132,975.06998847204,0.005311657776033148,0.3919780207199892,0.0724407475058994,-0.0010125410831490706,3.4624224243602937,0.4,0.6,0.9248651449984232,Stairs down 
-0.30902020342974024,-1.19396972656,0.86474609375,0.5396641479554689,0.7298325305557063,0.6125837053538961,0.32214355468,0.96484375,0.035131882624340784,0.18621392109195342,-0.19492250912999998,-1.0322265625,0.39282226562,0.1276240509724309,0.35491773098141594,1.059067837084805,0.43851117377,1.59238854861,0.08147828559457934,0.28358442489213503,974.8409686109117,974.74350473577,975.09679279752,0.01105624110422535,0.35328806175004956,0.10446364706163205,0.002220568882264348,1.5733366875530947,0.68,0.32,1.6954209438569516,Stairs down 
-0.8208866328941757,-1.00024414062,-0.56213378906,0.014464385474375868,0.11960533509609286,0.5286194518334065,0.34582519531,0.87426757812,0.015347072238008077,0.12320074306811409,0.19650369161813186,-0.01391601562,0.40209960937,0.017180645247366694,0.13035277882709323,1.008080269994945,0.67719534289,1.32647693142,0.02240315371414639,0.14885215890874118,974.8283710199648,974.77043784211,974.88185644444,0.0007988639449794422,0.11141860232999079,0.02810845460549794,0.0006072696262600949,-0.2756787649814476,0.47,0.53,-0.05694314385504795,Stairs down 
-0.7954300860924489,-1.04125976562,-0.47473144531,0.022457154968845223,0.14909057759062436,0.592362384402551,0.41394042968,0.89831542968,0.014270979838214428,0.1188501476438601,0.16460558832581632,-0.05578613281,0.49780273437,0.016565947225901503,0.12805040784037425,1.0167734567266327,0.67150507213,1.37053680519,0.029924571361873636,0.1721023491788387,974.8460925417544,974.81340436074,974.88943536723,0.00028722011413926995,0.07603100648998407,0.01686088066051275,0.00026162046002827687,1.1546580220786122,0.61,0.39,1.024464849850139,Stairs down 
-0.8053796941547727,-1.26037597656,-0.53295898437,0.04742359625961764,0.21652873194259334,0.6452622847088637,0.34338378906,0.98400878906,0.032935286559530194,0.1804467288136184,0.07707353071545454,-0.07495117187,0.30090332031,0.008396740422331562,0.09111159595535763,1.0449132742174998,0.70976219911,1.54528373213,0.0676117988367429,0.2585410662561575,974.9044926920039,974.86634409371,974.95018763679,0.0006179748418567804,0.0838435430799791,0.024717451334473062,0.0007799135451779802,-1.159299654581081,0.52,0.48,0.1557181983236434,Stairs down 
-0.8383834273693826,-1.24401855468,-0.49499511718,0.020831985937241636,0.143439188946643,0.5745231722576543,0.29431152343,1.01293945312,0.02682976764604475,0.16278370909495476,0.17785945939024692,-0.10949707031,0.32775878906,0.018235926320372808,0.1342042898998713,1.0485043759348147,0.67733504433,1.62734849116,0.030699340187983953,0.17412735565709456,974.9662759196264,974.9333183232,975.00002774587,0.00046121815095934263,0.06670942267010105,0.021343010558797254,-1.6163331379715803e-05,-1.2481475127792587,0.6,0.4,0.16449065819753406,Stairs down 
-0.7845764160123,-1.18237304687,-0.46325683593,0.03935112055371778,0.19737682069630316,0.6076635742146999,0.27978515625,0.86352539062,0.02736409655106791,0.16459178468428257,0.05077758788979999,-0.09118652343,0.28942871093,0.009577220272779399,0.09737272754756131,1.0057058441096998,0.67733504433,1.40134042322,0.05199879146380638,0.22688940819079306,975.0041748323805,974.95314877845,975.07916589954,0.0016332043785343409,0.12601712109005803,0.04021035108960126,0.0003439588756760088,-0.9475034897655483,0.46,0.54,0.4237164900050967,Stairs down 
-0.8543428461563828,-1.53552246093,-0.47766113281,0.07491441412439181,0.27224520615064035,0.632198252572553,0.34838867187,1.05810546875,0.03564932380071692,0.18780328984119893,0.0939564806343617,-0.07849121093,0.42236328125,0.016345623688329262,0.12716813309404063,1.0762733097561703,0.65924091196,1.87936299456,0.10159744851114597,0.3170435689157164,975.0674505209379,975.02270761211,975.13366669836,0.0011062512359064935,0.11095908624997719,0.03308296549188533,0.0005481342331302261,-1.2321480479088145,0.56,0.44,0.19932281131153085,Stairs down 
-0.8090180896534525,-1.32653808593,-0.47497558593,0.04983360525947749,0.22190166302668288,0.6394362676672619,0.30126953125,1.15673828125,0.05017372359656302,0.22265762363608976,0.08035423642011905,-0.05932617187,0.33447265625,0.007545953097772943,0.08634882930763714,1.0432564763944048,0.67600869336,1.66947901246,0.08879166696191024,0.29620030943198183,975.1318476832804,975.07049511205,975.18739425074,0.0010122660241988074,0.11689913868997337,0.03162617963327915,0.0009400297600995077,-0.8326393346622623,0.46,0.54,-0.1243678676471445,Stairs down 
-0.7819205940512987,-1.21435546875,-0.416015625,0.039416469094051804,0.19724240643944993,0.6385339513966234,0.3564453125,1.04736328125,0.035040120682774484,0.18597057342601486,0.07858950131688312,-0.0595703125,0.3330078125,0.010461523359766545,0.10161525190653871,1.0229961681970128,0.67953649575,1.53398915934,0.06341948219661353,0.250191631669999,975.1949177609857,975.14323367432,975.28547085206,0.0010981880546651207,0.14223717774007127,0.032923029510313936,0.0007879805758594105,0.03861463235766038,0.52,0.48,0.4076302199258977,Stairs down 
-0.833873548002763,-1.18310546875,-0.47497558593,0.042707560927922945,0.2052939827095915,0.570041054168421,0.24731445312,0.82849121093,0.022840881188209292,0.15013441736603275,0.17055150082013162,-0.13513183593,0.44152832031,0.027071263810633534,0.1634474318275449,1.0463941604011844,0.71834879541,1.48209041161,0.04645119857601082,0.2141027757754381,975.2696235011365,975.22062326424,975.32026428129,0.0011958190904750718,0.09964101704997574,0.03435235987175109,0.0011276813356860577,-1.530417927054066,0.5,0.5,-0.10332751388741272,Stairs down 
-0.7964376801387376,-1.49792480468,-0.44958496093,0.07032437170357204,0.2638969700721213,0.5698372553800969,0.28088378906,1.10119628906,0.03804062859465997,0.1940909634770503,0.13857232250961166,-0.03308105468,0.46472167968,0.013920782169422767,0.1174122180374637,1.0026381925711652,0.64541598776,1.87147337739,0.09496697061622228,0.30666750918994307,975.3038810182659,975.24435619508,975.39835360814,0.0016709865006740625,0.15399741306009673,0.04067878231664027,0.001086397896582399,0.23008013879377565,0.62,0.38,0.8306619420709128,Stairs down 
-0.9024905086869665,-0.93383789062,-0.86401367187,0.0002865097671212835,0.016831237514061532,0.4622308966792134,0.43371582031,0.47912597656,0.00015110682328926172,0.012223297174416626,0.2233324372335955,0.208984375,0.24340820312,5.740471054025737e-05,0.007533904286133056,1.0383398018703371,0.99559539595,1.0754862642,0.00036794698895762837,0.01907387619564109,975.4192333128647,975.4074987667,975.42944222952,3.101299123251431e-05,0.0219434628199906,0.005537556379565637,-9.618477965010034e-05,-0.6979492485440337,0.52,0.48,-0.24551785247509714,Lift up
-0.9171052155639506,-0.93566894531,-0.8984375,7.322385078180637e-05,0.008504107985203756,0.4664457344681482,0.43627929687,0.48754882812,0.00011823750388904803,0.010806376896018982,0.21881630979679012,0.19165039062,0.23706054687,0.00012279117456063892,0.011012503536161265,1.0520383917654321,1.03411727443,1.07062257326,6.0519322526429664e-05,0.007731246367596478,975.356590687836,975.26387148946,975.434082205,0.002581499106202727,0.1702107155399517,0.05049384860422991,-0.0019890082975445185,-1.2208923115467685,0.6,0.4,-0.054801099716083206,Lift up
-0.8819025213028571,-0.90661621093,-0.85510253906,0.00017414459487164366,0.013110414820150714,0.4560848087418181,0.4326171875,0.47644042968,0.00012678659112768276,0.011186599663084777,0.21630383776064938,0.19348144531,0.2490234375,0.0001703800502544363,0.012967934389449001,1.0163025283605196,0.99612760299,1.04035213576,0.0001490570434659496,0.012129354381278979,975.1522268061361,975.02829296081,975.26387148946,0.004616722198913643,0.23557852865008044,0.0675038129868152,-0.003022139435196794,-1.1501390204556061,0.49,0.51,0.00862264104847754,Lift up
-0.8317171855999027,-0.87805175781,-0.78784179687,0.0006103193064563575,0.024584423448529093,0.43862944667339776,0.36608886718,0.46716308593,0.00035653182058998354,0.018790166220756886,0.2187808138606796,0.19018554687,0.30676269531,0.0006640269237640409,0.02564332389583156,0.9660115515533011,0.92017982089,1.00458732835,0.00045546132869313114,0.021237687587061474,974.9369611739168,974.86962029924,975.02829296081,0.0020553455121215675,0.1586726615699945,0.045115304513261026,-0.001403296555970344,-0.8806912545206305,0.58,0.42,0.28615003650865145,Lift up
-0.9267272949183334,-1.07165527343,-0.857421875,0.00357732427742963,0.059498407397787306,0.3635902404754166,0.16772460937,0.48840332031,0.009378344433372654,0.09633614765769401,0.1612599690721875,-0.05419921875,0.26831054687,0.011043725175391832,0.10454035762078442,1.0190503738510417,0.89723474186,1.10091311339,0.0023361908162892586,0.048081758446278204,974.8654748296082,974.73936561221,974.9940409237,0.006809220076200154,0.25467531149001843,0.08208709216683463,-0.00197588356687958,-1.2230189613248261,0.59,0.41,0.3508954534782131,Lift up
-0.9248046874971428,-0.9326171875,-0.91284179687,2.6043918394463436e-05,0.00507520654644023,0.41081489311109887,0.38122558593,0.4326171875,0.0001634110607121853,0.012712802003110611,0.06823059752450548,0.05261230468,0.07556152343,2.1193876076494266e-05,0.004578315884622853,1.0143160181764836,0.99323454,1.02699632172,6.000960498526346e-05,0.007703905423655861,974.856740712781,974.85075157114,974.86382368505,1.0521758934342252e-05,0.01307211390997054,0.003225854182970619,-5.637506041223689e-05,-0.09676060597342051,0.56,0.44,0.2556589507239589,Lift up
-0.9059587961179517,-0.91760253906,-0.89611816406,3.211375829392641e-05,0.0056326588342804134,0.38461414015000006,0.37634277343,0.39660644531,3.7427933608908524e-05,0.00608087120812183,0.0627617893413253,0.05078125,0.07690429687,5.781582671561151e-05,0.007557727865577207,0.9862717074015661,0.97784098288,0.99466757308,2.2634240942523908e-05,0.004728798921969638,974.8786716217903,974.85771226782,974.92387019271,0.00037059581219991544,0.06615792488992156,0.019134544740191085,0.0007439573734991795,-0.7082794313802467,0.64,0.36,0.7833938247727932,Lift up
-0.917784926467294,-0.95324707031,-0.89086914062,0.00024290546900535516,0.015493474678240906,0.39249913832329403,0.38439941406,0.40600585937,3.236805607946272e-05,0.005655727664916721,0.06356847426141177,0.04357910156,0.07739257812,7.495138827395552e-05,0.008606370154451782,1.0002853562172942,0.97304445202,1.03282858219,0.00020339944771795632,0.014177676574069587,975.0139408249914,974.92387019271,975.11804799255,0.0036718362444894026,0.19417779984007666,0.06023817868283222,0.002442116606308139,-1.3406650403613516,0.49,0.51,0.06832868362804159,Lift up
-0.9525817871064,-0.98107910156,-0.92248535156,0.0003906935077368676,0.019666890264083414,0.4097680664030999,0.39294433593,0.43200683593,0.00013253977202193332,0.011454884298923058,0.0662719726528,0.04357910156,0.0810546875,5.404259822587263e-05,0.007314517909173092,1.0391412939743998,1.01069362357,1.07292414943,0.00047553333599909605,0.021697419262186577,975.2344187496151,975.11804799255,975.35074464838,0.005095481481565719,0.23269665582995458,0.07102483133911733,0.002447612389792268,-1.2573380125832536,0.48,0.52,0.08206033516926854,Lift up
-0.9562823692024719,-0.97644042968,-0.92150878906,0.00027024515343535243,0.016346519233072294,0.4014028484864044,0.34680175781,0.44165039062,0.0005807159306590567,0.02396228354230381,0.06626772076483146,0.04772949218,0.09167480468,0.00015299604392623683,0.012299471015165991,1.0394526263817976,1.00384797398,1.07205220306,0.0005284794262146626,0.022859165670111387,975.3968814724906,975.35074464838,975.41928980451,0.00034936232809114104,0.06854515612997147,0.018585933085922445,0.0006733171707229343,-0.33696241957962325,0.4,0.6,-0.8096653049032585,Lift up
-0.9360485542078048,-0.95007324218,-0.9267578125,3.91863768780927e-05,0.006221615082375147,0.40108880763731697,0.38818359375,0.41723632812,6.294554927175406e-05,0.007885297751010961,0.06381746617317074,0.05480957031,0.07263183593,2.981363173489606e-05,0.005426790106506815,1.0204014561087804,1.00949856825,1.0370968676,4.3532152991856064e-05,0.006557535594819233,975.4255895780352,975.41928980451,975.43464860788,1.6494946530241066e-05,0.015358803370077112,0.004036556533200783,0.00013687291843433264,0.07632334749622505,0.59,0.41,0.7596226961135844,Lift up
-0.7799157714800999,-1.28552246093,-0.43310546875,0.046697056731435864,0.21501182796330415,0.5078283691364,0.19909667968,0.88098144531,0.029345092946499108,0.17044542239976443,0.11263061523360002,-0.22253417968,0.37976074218,0.030371254758243833,0.17339994870432168,0.9662210982741999,0.61405563059,1.40419786446,0.05112119013730294,0.22496661582539287,975.4307303433958,975.35729393587,975.50856157946,0.002151283639105882,0.15126764359001754,0.04614943989600332,0.0006439820505377509,-1.0308771052664867,0.49,0.51,0.0007947408550482594,Stairs down 
-0.8832955867649999,-1.32421875,-0.50476074218,0.030049498977145286,0.17242338430767395,0.47854809050499997,0.22509765625,0.67846679687,0.012219769395610102,0.10995349857484432,0.09556417262180851,-0.19946289062,0.43627929687,0.0349049573295717,0.18583225768493042,1.028867609415213,0.6343955854,1.50094450083,0.03652511021534959,0.19009614728620525,975.53835117132,975.48992470257,975.56482858977,0.0004366026168244727,0.07490388719998009,0.020783597093257236,0.0005921693830909756,-0.1326233439723281,0.45,0.55,-0.847210775128528,Stairs down 
-0.8547392345566666,-1.19445800781,-0.55847167968,0.031792511414404305,0.17724003254248571,0.48662894112380944,0.30639648437,0.73327636718,0.009190000484606605,0.0952921597873231,0.07640729631523809,-0.13659667968,0.22534179687,0.013101240160667106,0.11377729569600985,0.9982955988894049,0.70318130691,1.32128420742,0.03043305372605131,0.17340921390574332,975.5762342414286,975.54982264991,975.6149449111,0.00034133431462761985,0.06512226119002662,0.01836493427382883,0.0006484841287424304,-0.8272640068206836,0.56,0.44,0.47469678955466615,Stairs down 
-0.9341868524921739,-1.39440917968,-0.63171386718,0.0530366395141225,0.22904181780192995,0.5246409540551086,0.29772949218,0.95581054687,0.026879291148712434,0.1630555884984451,0.04671843155706521,-0.16003417968,0.36218261718,0.018736676306209996,0.1361360230840555,1.0837469418338044,0.73343685775,1.72723940702,0.07401317096845562,0.2705710257578739,975.6349742938397,975.59611505842,975.66546471209,0.0004535568535692759,0.06934965367008772,0.02118081414321956,0.0007076138406439478,-0.8169705660185858,0.37,0.63,-0.5650537530836901,Stairs down 
-0.8633410395374489,-1.30090332031,-0.49731445312,0.048350662375713276,0.2187630870824387,0.4908397440969388,0.2578125,0.90783691406,0.019871461304817546,0.14024511147096388,0.04748908840806122,-0.08862304687,0.25927734375,0.008433535066011343,0.09136453680584125,1.0040561058615307,0.63928930086,1.51928231816,0.056861633631329886,0.23723703943522348,975.6991100169608,975.65767388814,975.7395804903,0.0005816477428527567,0.08190660215996104,0.02399401095697088,0.0007472811370889064,-1.1171344474503129,0.43,0.57,0.024559373752306327,Stairs down 
-0.8558868758943678,-1.32629394531,-0.58752441406,0.041117738718722735,0.20160635166655996,0.5234529341733333,0.2578125,0.86291503906,0.02841433460069051,0.16759395291464468,0.11071216100816095,-0.07189941406,0.31201171875,0.013850366967632349,0.11700926180142637,1.019130574910345,0.6694068152,1.55742773261,0.06332729386420924,0.250198708899018,975.7689238199662,975.72003877324,975.81001672685,0.00041862489152748403,0.08997795360994587,0.020342396888397864,0.0007461506729040442,-0.5238757613826373,0.6,0.4,0.14647804649270751,Stairs down 
-0.8842819793283545,-1.35498046875,-0.56091308593,0.05147084763529296,0.2254314040199158,0.5138480270918985,0.26599121093,0.86633300781,0.028174729204967965,0.16678755068389525,0.033059421972911396,-0.15686035156,0.18615722656,0.007074440426574429,0.08357565762682954,1.0308685342478483,0.71705945893,1.50925452697,0.07091738837981983,0.2646123578356003,975.8335936856803,975.79010839469,975.87953684293,0.0006154470923964637,0.08942844823991436,0.024650692137797223,0.0008940024719744297,-0.9846209199054554,0.43,0.57,-0.16597218237102324,Stairs down 
-0.8588801558260214,-1.43542480468,-0.58447265625,0.03786046717625661,0.19352871977735617,0.48580046622537637,0.15307617187,0.84460449218,0.016117353530365766,0.12626974559923357,0.17407489079096775,-0.03942871093,0.49304199218,0.022698577323944903,0.14984827860216318,1.013335549535914,0.77180776457,1.67330502912,0.04382671479473772,0.208219739210635,975.8885017417867,975.85650420854,975.91592773827,0.0003237162128921109,0.05942352973011111,0.0178951220559863,0.00032174823868916333,-1.0021264143872872,0.47,0.53,-0.2669749469520781,Stairs down 
-0.8797861734978124,-1.27185058593,-0.61193847656,0.03904357455791077,0.19656263799681226,0.49896113077447923,0.30810546875,0.77185058593,0.016387581823446268,0.12734550579474213,0.08491897582770831,-0.10546875,0.32214355468,0.01199626070165758,0.10895549390775107,1.0220557415158333,0.71537954543,1.48207292734,0.05287504466311184,0.22874497360132548,975.9399521024216,975.89605802122,975.99010075003,0.0005322517768227164,0.09404272880999542,0.022950108659455473,0.0007473705263868452,-0.5186000870395038,0.43,0.57,0.043242826788312615,Stairs down 
-0.9174453910702298,-1.45959472656,-0.59814453125,0.04678155513323321,0.2150438004424059,0.4354809289649424,0.15405273437,0.61499023437,0.02104962904950439,0.14424867171074637,0.16449044764390805,-0.09655761718,0.32214355468,0.012142769428452384,0.10955910444165003,1.048109779294597,0.67809144433,1.54167091255,0.03938003990468946,0.19730026803796782,975.9987303943728,975.97176333711,976.03298577178,0.00036071301393401884,0.06122243466995769,0.018882978772881042,0.00038417148848173037,-0.9766114407419715,0.45,0.55,0.29134643164244345,Stairs down 
-0.9394428299087952,-1.14221191406,-0.78796386718,0.009581575017601127,0.09729406125112912,0.34994764212686746,0.18078613281,0.58068847656,0.01109514124702352,0.10469701450593981,0.14747858621746987,-0.087890625,0.35192871093,0.017706442581078546,0.13226152859985996,1.02723132896747,0.83128218445,1.28217639229,0.013283760192186245,0.11455878355091734,976.0073864444156,975.98278674453,976.03977972484,0.0003325572211704649,0.0569929803099285,0.018125962254798695,8.408813195063148e-05,-1.2216765668039196,0.6,0.4,0.20701111249218407,Stairs down 
-0.9184557982132323,-0.93176269531,-0.90197753906,4.82832579407142e-05,0.006913432451723628,0.3859727647532323,0.37744140625,0.39660644531,3.24927084635735e-05,0.005671375431689721,0.21153058908919195,0.19567871093,0.22351074218,5.484722407310076e-05,0.007368392749353552,1.0185083752275759,1.0008178064,1.03305638935,5.673445048955434e-05,0.007494089353089146,976.0183945451671,976.0132307552,976.02546462663,1.234068194314466e-05,0.012233871429998544,0.0034951435721846395,6.814968692404815e-05,-0.7691896163055558,0.64,0.36,0.42569503214538545,Lift up
-0.9385314255584271,-0.97705078125,-0.90087890625,0.0004985864227394073,0.022203250394973388,0.3941156623032584,0.37878417968,0.41271972656,7.305928222295152e-05,0.008499317114419116,0.22002968091134834,0.20349121093,0.24084472656,0.00011661720287290143,0.010738104917658614,1.041463910911573,1.00023187243,1.08465913271,0.0006218919528249546,0.024797266034650142,976.018086399608,975.99996984954,976.02710803584,2.3349548021444582e-05,0.027138186300021516,0.004804913479896753,-0.0001185037657828045,2.709766345777669,0.4,0.6,-1.148734573771628,Lift up
-0.9420761108364999,-0.96520996093,-0.912109375,0.00035131505533982197,0.018625885674192093,0.392384338375,0.37231445312,0.41076660156,8.178537923196357e-05,0.008986827137069235,0.22240295409674998,0.20532226562,0.23510742187,8.806992745982747e-05,0.009325719991860127,1.044507128660125,1.01050982176,1.07339636794,0.0004612207739209903,0.02134140375530574,975.9328353202184,975.82099858656,976.00150866737,0.002741090710191249,0.1805100808099951,0.05202717632462729,-0.002222087301806138,-1.1002942761046512,0.49,0.51,-0.3324849334845565,Lift up
-0.9173844401008,-0.93090820312,-0.90100097656,8.438539396602496e-05,0.009124705769492586,0.38782063801626665,0.37866210937,0.40319824218,5.083187743217939e-05,0.007081957290637737,0.21618977864226666,0.20471191406,0.22875976562,3.2280737216232053e-05,0.0056436094289631965,1.0192120092447998,1.00246776875,1.03901984908,0.00011069950557498622,0.010451005318500213,975.7211715660262,975.6044561207,975.82099858656,0.0038993905498983013,0.2165424658600159,0.06202740262093567,-0.0028548928854343065,-1.235433787744555,0.51,0.49,-0.030373222253892104,Lift up
-0.9157601582604125,-0.939453125,-0.89453125,0.00011624491539624931,0.010725973811575211,0.3891966514930928,0.36828613281,0.40808105468,8.648080284346525e-05,0.009251445734315038,0.20865843467618553,0.19775390625,0.21850585937,2.644047191446678e-05,0.005115455964992911,1.0167130304496907,0.9964594824,1.04224649345,0.00015202801941499743,0.012266243118647643,975.4978832433154,975.3856557171,975.6044561207,0.0038989550516992278,0.2188004035999711,0.062118915306008944,-0.0022049716326021343,-1.0285537057646301,0.49,0.51,-0.010529139332450314,Lift up
-0.9173211348639998,-0.93041992187,-0.90856933593,3.617433590808986e-05,0.005982771383301121,0.38879137540747355,0.37780761718,0.40026855468,3.984094267354441e-05,0.006278659437301275,0.20970137746357884,0.1943359375,0.23388671875,0.00011884539752960288,0.010844094860571847,1.0182190804145261,1.00832419749,1.02884017541,3.454317578894798e-05,0.0058463290543915,975.2916547351131,975.17867720923,975.3856557171,0.0037948630356000003,0.2069785078699624,0.06127737844351269,-0.0022230267382471313,-1.1938238295204084,0.48,0.52,-0.13666874115546696,Lift up
-0.9161204618524705,-0.94750976562,-0.8974609375,0.00013051116498742946,0.011356748633169138,0.3856545840963529,0.3740234375,0.39904785156,8.04001418474941e-05,0.008913711787227522,0.21169146369176467,0.19873046875,0.22998046875,5.264657468515647e-05,0.007212988508120076,1.0163112357677648,0.992520802,1.0509483318,0.00019364205543245694,0.013833434627880373,975.0746950973082,974.95800748542,975.17867720923,0.004041307755233535,0.22066972381003325,0.0631962258217462,-0.0025600832520635253,-1.1566493579911643,0.52,0.48,-0.03052957811802865,Lift up
-0.9162808641934568,-0.93444824218,-0.9013671875,7.459550728532203e-05,0.00858338948764498,0.3834334008462963,0.37377929687,0.39599609375,2.527728585049165e-05,0.00499652084885855,0.2142409336385185,0.2041015625,0.22717285156,5.487067463382674e-05,0.007361607086608647,1.0161462503548149,1.00003481595,1.0344635355,9.173610641174446e-05,0.009518590330933602,974.8541889235125,974.75459344866,974.95800748542,0.003974048552204709,0.203414036760023,0.06264971048935272,-0.0026676746197869658,-1.3162050751615988,0.48,0.52,-0.013594351809290464,Lift up
-0.9076642893740403,-0.92565917968,-0.87194824218,0.00024749734269899256,0.015652391815323845,0.38670888572999995,0.37377929687,0.40112304687,5.873571755715683e-05,0.00762511819454767,0.20874146740464647,0.19372558593,0.22705078125,6.221493135121456e-05,0.007847706524915562,1.0084961634541414,0.96911388146,1.02949129762,0.00027420910448185923,0.016475415489379898,974.6429734780356,974.53082773014,974.75459344866,0.004162078841923758,0.22376571851998506,0.06418751935929823,-0.00223499266948184,-1.2204566049330603,0.53,0.47,-0.07782872235663632,Lift up
-0.8796304424116855,-0.9111328125,-0.86083984375,0.0002712718457685032,0.01637754094793969,0.37682282522382016,0.36279296875,0.39184570312,6.498728209723936e-05,0.008016051890823281,0.19860154055179774,0.18933105468,0.21472167968,4.0480819464449936e-05,0.006326608791154234,0.9773594630026966,0.95565801696,1.01264128729,0.00033245113829079634,0.01813051935942777,974.4679185722499,974.43541496364,974.53082773014,0.0008092044735168151,0.09541276649997599,0.028286256175413537,-0.0010676073647246423,-0.9003383813363248,0.57,0.43,0.5798505712102382,Lift up
-0.9208587646456252,-0.94470214843,-0.9072265625,9.095999821549909e-05,0.009477499577304415,0.37890930175475,0.36572265625,0.39343261718,4.55609510844968e-05,0.006707565817488531,0.21411437987825002,0.201171875,0.23046875,3.4909450172370424e-05,0.005871378206623705,1.0185577787543751,1.00052080897,1.04329152059,0.00010878977998434887,0.010364839976311477,974.4300916431002,974.42368828157,974.43931886495,1.4625773022516456e-05,0.015630583380016105,0.0038003882511836867,-0.00012923277559846012,-1.1745544092360318,0.46,0.54,-0.11695865539437174,Lift up
-0.926144622088372,-0.95678710937,-0.90417480468,0.00010288988026916855,0.010084318832353046,0.35184070675523266,0.33447265625,0.36572265625,6.92801093879583e-05,0.008274933638444266,0.22156755314000004,0.20849609375,0.23693847656,5.138138291683018e-05,0.00712628409312573,1.015258596685465,0.99128235808,1.04717003522,0.00010002139097849696,0.009942753720600467,974.4356633181822,974.42330279663,974.44907292159,4.905657980137131e-05,0.025770124959990426,0.006963200015427084,0.00010119463363343854,-0.8798664861083636,0.6,0.4,-0.03356127984583675,Lift down 
-0.901798396911948,-0.93798828125,-0.873046875,0.0005604893692238484,0.023520422753570046,0.34019252231844155,0.3193359375,0.35986328125,0.00016762854012150816,0.01286279697787212,0.22099165482532473,0.19995117187,0.23950195312,0.00013736043677651507,0.011643733722487675,0.9888822169784415,0.95369829071,1.03266296256,0.0007850066205773099,0.02783544016898208,974.4374626244594,974.4279442079,974.46078701267,8.976430942375512e-05,0.03284280476998447,0.009412679701949842,0.0002935926290386843,1.0500326454455253,0.78,0.22,1.564979807325993,Lift down 
-0.9142157660544447,-0.94250488281,-0.86804199218,0.0006623132714486634,0.025592073677200015,0.34388699001333334,0.32177734375,0.36145019531,0.0001379177234769982,0.011678411892344514,0.21546495225322224,0.205078125,0.224609375,2.5079372370994996e-05,0.004980031393272932,1.0002831129342222,0.95232887319,1.03195112409,0.0007318402430611091,0.02690183422751829,974.5137764774522,974.45183072267,974.58466068551,0.0020618865800955057,0.13282996283999182,0.045155029943579436,0.0017202742822312901,-1.3227692032255947,0.49,0.51,0.1512236267562897,Lift down 
-0.9282774633245918,-0.94262695312,-0.91247558593,5.040590372038286e-05,0.007063395625621746,0.35212676378816327,0.33520507812,0.36547851562,3.977734873398649e-05,0.006274667913154797,0.21693140146306122,0.20361328125,0.23608398437,5.845080016860445e-05,0.00760620558703156,1.0162873454768369,1.00322553362,1.03819832682,5.929347177169761e-05,0.007660837835736754,974.707981630559,974.58401506239,974.81434209004,0.004896790075374841,0.23032702764999158,0.06961912689561504,0.0024520597015681438,-1.241462198020813,0.51,0.49,-0.04694622323818889,Lift down 
-0.7285322709489772,-1.21215820312,0.31457519531,0.2046000714869761,0.4497500090879645,0.5730951482564772,-0.00854492187,1.51647949218,0.15816378256232136,0.3954320002875158,-0.016372680665,-0.48071289062,0.25512695312,0.05916715826362817,0.2418569912002764,1.051876559770227,0.31712384736,1.83622379911,0.17211326067848606,0.4125014280833171,974.923504660257,974.81364852534,975.05739725233,0.009388722592228905,0.24374872699002026,0.09634330574965631,0.000980749934283718,-1.6200892285771629,0.57,0.43,0.3110589881709391,Lift down 
-0.9110641479446249,-1.04284667968,-0.69372558593,0.0059610325489667885,0.07672365764289854,0.39081268310149997,0.28283691406,0.81457519531,0.022662407591581935,0.14959654908014142,0.22234954833725,-0.47009277343,0.37670898437,0.014269718260880356,0.11870697866014177,1.03577840590275,0.95394293287,1.24132528311,0.0024587462410159936,0.04927486086234332,975.1141042536389,974.86293428606,975.37744502357,0.012115950867724162,0.5145107375100224,0.10938236366927535,0.004508331112131878,0.11508068469109034,0.59,0.41,0.5835152569291938,Lift down 
-0.9290364583290195,-0.96704101562,-0.88452148437,0.00018459332264485873,0.013519747933580574,0.3423138786728431,0.28833007812,0.36254882812,0.00016886266636040572,0.012930860374450688,0.22344132965441177,0.20678710937,0.234375,4.215951892792502e-05,0.0064611291823476625,1.01509654697598,0.95394293287,1.04748546536,0.00018612220655156683,0.013575620760626579,975.3527324848823,975.22522334641,975.46653489264,0.005526104278273805,0.2413115462300084,0.07397247315961224,0.002391509458227763,-1.1175946988817944,0.48,0.52,-0.11596899134920671,Lift down 
-0.9340833438298924,-0.96984863281,-0.90246582031,0.00028658706679941153,0.016837621133520525,0.33585743237172044,0.32287597656,0.35070800781,4.031589970966689e-05,0.0063152510173162145,0.22172562793741926,0.212890625,0.24047851562,4.65670726729149e-05,0.006787219715124756,1.0171282824539785,0.98869196081,1.05155897607,0.0002968655517175095,0.01713690313361401,975.5828256894148,975.46653489264,975.68022068499,0.003941426502395567,0.21368579235002017,0.06244233797882877,0.0023109717898482708,-1.2162671262523206,0.51,0.49,-0.04405855282915493,Lift down 
-0.940031120572289,-1.375,-0.44787597656,0.031131380972642266,0.1753747532954895,0.39368705289530115,0.3232421875,0.70227050781,0.014841812123913136,0.12109085477595743,0.25085890436397595,0.17492675781,0.6416015625,0.00982641135987014,0.09852928935884218,1.0695211240930123,0.88798322719,1.44982573555,0.012986542715106339,0.11326993575104038,975.8327926207933,975.68022068499,976.05446837331,0.013483382401349492,0.374247688319997,0.11541634204466795,0.004498838047599188,-0.9239053849023771,0.63,0.37,0.7352189210677852,Lift down 
-0.45663808847155846,-1.0576171875,0.38037109375,0.15073046151801028,0.3857109319901854,0.5406874619492208,0.18469238281,1.01037597656,0.038557780518242886,0.19508211122986666,0.5213638900131168,0.08618164062,0.96020507812,0.048899392349701296,0.21969145478647703,0.9867617867532471,0.55828418023,1.26435734996,0.03582021090656298,0.18802928857580115,975.9048349716853,975.65774475139,976.20932318662,0.032866673671965656,0.5515784352299988,0.18011061532888037,-0.0028742466302727372,-1.1430663411787336,0.58,0.42,0.3412510156830999,Lift down 
0.009489982358494624,-0.8330078125,0.48974609375,0.17452199980485544,0.4155062203647407,0.9312035345220429,0.45275878906,1.42834472656,0.07436161272042638,0.2712232023387258,0.049791561659677436,-0.51965332031,1.17822265625,0.21828618854705475,0.46469239850609184,1.1264259476450538,0.76104691049,1.5165493054,0.06370534009326666,0.25103851584238984,975.9693285349099,975.89939800256,976.20055627924,0.004732390973688738,0.30115827667998474,0.06842152475091791,6.551677832826882e-05,3.459924200796677,0.75,0.25,1.8851164108383651,Lift down 
-0.8514749546208079,-1.1162109375,-0.66809082031,0.019962783078740564,0.14057431772986817,0.47479802911555563,0.27453613281,0.74877929687,0.017040209281353497,0.1298771956706766,0.2121729995237374,-0.16650390625,0.51794433593,0.03666151034272644,0.19050247257302533,1.021291142679596,0.73302718517,1.29123387533,0.025603589342877677,0.15920102772376551,975.9852305320003,975.89666116776,976.09724947181,0.0034132703703202666,0.20058830404991568,0.05812738504209684,-0.0002143667733314504,-0.752579732888071,0.65,0.35,0.5165711074196526,Stairs up
-0.8698042199926596,-1.16662597656,-0.64904785156,0.023067045454805167,0.15106836649087768,0.4125781769421276,0.27966308593,0.60803222656,0.008044990577776663,0.08921550073630762,0.2865535654893617,-0.17761230468,0.60205078125,0.04392580627583863,0.20846704886958403,1.0268473469867019,0.71852022105,1.31934548126,0.029025959278822275,0.16946141884801902,975.9336250342899,975.86412094429,976.11079570693,0.005347115907969898,0.24667476264005472,0.07273397896570065,-0.0009352721057102003,0.6883702109424061,0.62,0.38,1.3029729106113659,Stairs up
-0.8569005629554116,-1.01416015625,-0.73876953125,0.0048041909180667934,0.06890334552772505,0.42245088464670577,0.31774902343,0.5126953125,0.0020825449951889026,0.04536567497385814,0.2915355009157647,0.03637695312,0.46179199218,0.01983781164381322,0.1400158049095681,1.0095231197177648,0.82050141475,1.16372758412,0.005069121624284998,0.070777714708045,975.9189626119028,975.83280353316,976.02776603168,0.002479673040851068,0.19496249851999892,0.04950252939841615,0.0009359157432792131,-0.10833528788460356,0.56,0.44,0.5917335608763852,Stairs up
-0.8876318993470128,-1.22387695312,-0.69018554687,0.020686327081926168,0.14289042474378608,0.3981299462224675,0.07177734375,0.57946777343,0.01204975835974715,0.10905626067053072,0.23555765523389618,-0.21630859375,0.49450683593,0.03923862398393361,0.19679692951024857,1.0258182275690908,0.81611358836,1.32326662385,0.0208935332709461,0.14360427808046575,975.8948237825583,975.74641472366,976.10844627081,0.011067006775535487,0.362031547149968,0.10451449380260255,-0.0005817002415637534,-0.17862452284456865,0.66,0.34,0.8536194906650211,Stairs up
-0.8503043619762666,-1.12731933593,-0.66174316406,0.015839453473602185,0.12501304236207045,0.32045410155840004,0.07177734375,0.52685546875,0.01868996549301771,0.13579678182162788,0.17439941406039997,-0.29895019531,0.49243164062,0.04884646074052945,0.2195339941724798,0.9579323995401335,0.7354009442,1.26038641013,0.016384659073226504,0.12714636035785748,975.8335847864859,975.61304934972,976.16720912931,0.020704304790630235,0.5541597795900088,0.14292742001946943,-0.0022471857037392813,0.03857010252489124,0.55,0.45,0.7474330384849333,Stairs up
-0.8955841064417309,-1.2099609375,-0.70727539062,0.021099293749297945,0.14455592663320818,0.4549384483894231,0.13049316406,0.92199707031,0.039943542416238806,0.19889562562561736,0.16267395019278846,-0.27746582031,0.55590820312,0.056817371632056864,0.2372151992410676,1.0581361573996153,0.78990344756,1.5463089437,0.03372850835774087,0.18276814760066368,975.8199919199632,975.55958666474,976.2687838315,0.035470227660987334,0.7091971667599637,0.187427766832003,-0.0006168170563438162,-0.4880613683557784,0.43,0.57,0.49225938744320585,Stairs up
-0.884236653642258,-1.17456054687,-0.701171875,0.022123761582992313,0.14793874297660423,0.4086769678223654,0.14562988281,0.6142578125,0.019745588902033522,0.13976147803238417,0.21984600764236562,-0.4150390625,0.47534179687,0.05482978275789724,0.2328952880617397,1.0320837546309676,0.83942480061,1.32424148607,0.024866408770954227,0.15684077286050843,975.6799294369205,975.50288145589,976.14269919476,0.020263835579716206,0.6398177388699651,0.1415837027152418,0.00030369223848834414,2.5901372135699097,0.57,0.43,1.4210754160796861,Stairs up
-0.8944621258438553,-1.21325683593,-0.65161132812,0.03042019401831069,0.17335998862668484,0.4052822618554217,0.22448730468,0.7724609375,0.02499297834912137,0.15713643157475488,0.17968897072469875,-0.25036621093,0.50207519531,0.04869084659499599,0.21932671950547244,1.0322425488078313,0.71660384819,1.37047574387,0.04014883312701108,0.19916102090008164,975.6522095842816,975.54265463021,975.83568927373,0.005992235181269866,0.29303464352005903,0.0769417934329338,-0.0007917252059721032,-0.5169831002355494,0.55,0.45,0.5298981025834621,Stairs up
-0.8291121773056522,-1.13537597656,-0.67834472656,0.016100893849781066,0.12619779765916114,0.44115547511434766,0.28002929687,0.671875,0.008065356122451564,0.08931791090300473,0.15794040845608698,-0.29748535156,0.51525878906,0.047522748869747215,0.21680912631067398,0.9791778573684781,0.75307671958,1.30648614628,0.01932083167779959,0.13824189899528835,975.6189348511208,975.54980580332,975.78070495145,0.0033527721962466656,0.23089914812999268,0.05758757696066493,-0.0006842240684544382,0.38229555568625084,0.55,0.45,0.8250905950533182,Stairs up
-0.8800547074264286,-1.12475585937,-0.689453125,0.014832093186139943,0.12116412545174192,0.4755672532642857,0.32434082031,0.69006347656,0.007726461110781468,0.08745066992811167,0.2223149513687755,-0.28466796875,0.53332519531,0.0548079443823718,0.2329134595590735,1.0538814378845918,0.84254689448,1.30402174541,0.01616029854337263,0.12647291226910218,975.5583557092925,975.49093535971,975.65772336184,0.002342874795376655,0.16678800213003342,0.04815566331917302,-0.00042064990020912956,-0.5247988335151139,0.6,0.4,0.64542355930767,Stairs up
-0.8761860240554546,-1.18884277343,-0.68444824218,0.018247128885626736,0.13431223007712317,0.3337957208769318,0.16040039062,0.55029296875,0.012915978455610811,0.11300091138199148,0.16769825328375002,-0.25183105468,0.46069335937,0.04418672413850719,0.20900861770103374,0.9798981537840908,0.78256805814,1.30166740704,0.021784984428019346,0.14675635518365757,975.528849853208,975.45798042733,975.63301226902,0.0025304696424725327,0.1750318416900427,0.050017140118425944,-0.0009194525718720279,-0.2521979661161238,0.64,0.36,0.7898548860643962,Stairs up
-0.8731504029830377,-1.11669921875,-0.71325683593,0.014102123520475183,0.11799837129304346,0.4120243893363292,0.1884765625,0.64587402343,0.013473404658787387,0.1153380042862143,0.2439165718920253,-0.04321289062,0.55187988281,0.023917479174744953,0.15367083742141452,1.0105413768287337,0.78365574455,1.28243097679,0.021571396181354435,0.14593950984393908,975.4521810484287,975.39743887676,975.52779542076,0.001321349255489917,0.13035654399993746,0.036119569703237146,-0.00013560104210880093,-0.2927713477214078,0.65,0.35,0.6261228845218841,Stairs up
-0.8877724095359212,-1.14416503906,-0.73486328125,0.008282830652314681,0.09040932495306242,0.4394274259830262,0.29870605468,0.58605957031,0.005708522922113602,0.07505605091131282,0.28957969263684213,-0.04211425781,0.51342773437,0.020679312097011876,0.1428538269883208,1.042453353427763,0.804003017,1.2764359611,0.012766166735339363,0.11224166275159501,975.4388019748927,975.39994158135,975.48904226632,0.0009747833908535625,0.08910068496993517,0.03101543637618999,-1.730415375515608e-05,-1.3134146255313366,0.64,0.36,0.43575534156307694,Stairs up
-0.8612825027574748,-1.03991699218,-0.72827148437,0.007221160368686881,0.08454714279537637,0.43013262507414146,0.25073242187,0.63122558593,0.010159838963901019,0.10028566362098831,0.2509864267631313,0.02380371093,0.46276855468,0.016521945801443196,0.12788689322997285,1.0059164369442424,0.79560445024,1.19500729772,0.011625857060112892,0.10727732360809433,975.4439191923083,975.4099998654,975.5047284914,0.0008103284162859761,0.09472862600000553,0.0283221341139388,-0.00013778472631710133,-0.5464387998869862,0.54,0.46,0.5800866689223415,Stairs up
-0.8852448159037234,-1.05810546875,-0.73742675781,0.007621800783996822,0.08683730648133339,0.4343378594549998,0.27954101562,0.57788085937,0.006571403776798783,0.08063184994765886,0.2525063372635107,0.02978515625,0.42749023437,0.010050603683699935,0.09971801425979106,1.0243495318975535,0.78959944368,1.19744981154,0.01087685370090425,0.1037359267145195,975.4510481639151,975.39057832832,975.59165402132,0.002505804361930218,0.20107569300000705,0.049791032010977586,0.0005429962515979034,2.376642076238551,0.64,0.36,1.7290638072639528,Stairs up
-0.890967080756279,-1.09069824218,-0.72021484375,0.010314290600488314,0.10096710845049851,0.42149033656965096,0.13122558593,0.64807128906,0.01268439942162595,0.11196832768732154,0.21882380995267436,0.00158691406,0.47814941406,0.01858833932857005,0.1355440734521627,1.0222213924913952,0.76585098746,1.26085150589,0.01570985937541486,0.12460813212619713,975.4328193174782,975.37215479494,975.50825189399,0.0010109062107907965,0.13609709904994816,0.03160935759248372,0.0007592395972457715,-0.33254947257893974,0.58,0.42,0.4716571131219882,Stairs up
-0.8740234374961176,-1.05102539062,-0.71765136718,0.006104988001683921,0.07767344857432824,0.42585305606176466,0.18420410156,0.58557128906,0.007337007243754147,0.08515098068416291,0.29855669806658824,-0.0478515625,0.47668457031,0.015853842587789078,0.12516919266592166,1.026267310758118,0.81464595936,1.20384527914,0.010251085403538151,0.10065030749476449,975.4414317694856,975.39639701283,975.48164819578,0.0007967847001652333,0.08525118295005996,0.02806084037437636,6.592724389649131e-05,-1.443402588427161,0.52,0.48,0.09790629944076075,Stairs up
-0.8868686184982177,-1.05212402343,-0.73083496093,0.007339034045087215,0.08524300758226748,0.3881968885332673,0.17919921875,0.55236816406,0.009322017401590414,0.09607143279661477,0.21440985650980196,-0.03942871093,0.43640136718,0.01790914251621809,0.13316089618759427,1.0033323458016832,0.82015541025,1.2567930355,0.010864040758696087,0.10371343210360458,975.4399582570366,975.40805634798,975.48213708475,0.0005083043589921885,0.07408073676992899,0.022433716646301016,0.00029656966163927077,-0.7902667885539048,0.53,0.47,0.5392938052068897,Stairs up
-0.9084092881903333,-1.17004394531,-0.62939453125,0.01989922384337653,0.14027872738312072,0.3895765516458888,0.18005371093,0.65612792968,0.014619153836670633,0.12023609605289487,0.24361436631688885,-0.20971679687,0.55639648437,0.038920503534054775,0.19618372382740495,1.0416183933939998,0.68484350132,1.34355994477,0.024248730467185214,0.1548525108891068,975.4715250313483,975.42609481659,975.52043005001,0.000555078751187338,0.09433523341999717,0.023428854208165595,-9.213767640190118e-05,0.1612069560536531,0.52,0.48,0.11733146421692987,Stairs up
-0.916692286358889,-1.18408203125,-0.71301269531,0.018848998863090043,0.13644154489532234,0.34730360242753083,0.18310546875,0.5498046875,0.010725338757132209,0.1029219469672916,0.2952308183811111,-0.13537597656,0.58715820312,0.03174217644485812,0.17706015283884924,1.040168491365926,0.80381821464,1.3243420805,0.027048740953811556,0.16344664536266174,975.4312807586288,975.38725501853,975.50715419237,0.0006590589703296845,0.11989917383993998,0.025513181687743046,-0.00018007153965293108,1.2635176476993504,0.57,0.43,0.8822768631273893,Stairs up
-0.8721795333013156,-1.08850097656,-0.68347167968,0.00896471443939215,0.09405720424535688,0.38608430560934215,0.17724609375,0.61340332031,0.013444188840986184,0.11518372983800386,0.28336053145144735,-0.08483886718,0.54211425781,0.027102148061659483,0.1635406397514754,1.0133120667152633,0.78087273071,1.20330310097,0.012271127934848506,0.11004392634388982,975.3729642417162,975.32409383844,975.50715419237,0.0021179062977008897,0.1830603539299318,0.04571694554072096,-0.0007695917128506748,1.9327276322949523,0.67,0.33,1.6372343228640054,Stairs up
-0.8648917458234091,-1.09582519531,-0.724609375,0.010495736289943056,0.1018649427397646,0.43152687765920456,0.28015136718,0.64611816406,0.011006679615515541,0.10431492563767553,0.26458878950272724,-0.12976074218,0.57189941406,0.029707399590377978,0.17137623961367482,1.020679239700568,0.78115538977,1.31893069285,0.016839265995912303,0.12902678288054853,975.3440825710379,975.29979004673,975.46428596627,0.0016353802121324625,0.16449591954005882,0.04020940618916801,-0.001049369372703681,1.0494100751639408,0.56,0.44,1.1020116525232468,Stairs up
-0.9704378089088777,-1.39929199218,-0.669921875,0.04565830852116282,0.2125850592440683,0.22877097616091843,-0.29211425781,0.53991699218,0.03904750423493414,0.19659364260873113,0.31971709582,-0.11694335937,0.84680175781,0.0690131971715048,0.26135986852199855,1.0993509687073468,0.77423678626,1.42965979106,0.04029377906816757,0.19970632953731815,975.2923646172377,975.19470766076,975.39100709529,0.0032629327471183777,0.19629943453003307,0.05682989983278982,-0.001323196642049802,-1.0775558360261173,0.46,0.54,0.025426152084291432,Stairs up
-0.7797508668330336,-1.1845703125,-0.3798828125,0.047327231273504,0.2163225938962028,0.43579787350359545,0.07653808593,0.9775390625,0.05273844246171791,0.22835471462723322,0.2102091928534831,-0.17517089843,0.63562011718,0.055573679996498454,0.23441257778914357,0.9592401872885392,0.45313330346,1.41482722432,0.07673010165077711,0.2754414015306575,975.2178155153031,975.09599948091,975.39941906695,0.008035386604748408,0.30341958604003594,0.08913529806983553,-0.001558029685067269,-0.41855931202136354,0.54,0.46,0.5182936124612371,Stairs up
-0.9114471435503748,-1.19006347656,-0.67639160156,0.024624845564639793,0.15593920288074387,0.34824371337625004,0.13500976562,0.62060546875,0.016154695573619985,0.1263042433133176,0.334127807613125,-0.03271484375,0.59509277343,0.029559485811778776,0.17085078940154633,1.0508883185272502,0.79330479496,1.33930077964,0.02910835677318599,0.1695420370100618,975.1357037896416,975.10845143414,975.17985867306,0.0003466676407901067,0.07140723892007372,0.018502278110552505,-0.00041654635695993617,-0.6013836892581867,0.53,0.47,0.4653254966906632,Stairs up
-0.8633398437455,-1.19604492187,-0.65673828125,0.021791920962964468,0.14688091010521015,0.4198266601524999,0.21826171875,0.77197265625,0.025480980096472566,0.15882748595727328,0.20372924804439996,-0.18676757812,0.48779296875,0.03544028009188325,0.1873122454378368,1.0083676127367,0.71547088837,1.30707532554,0.028481337181197077,0.1679182057115461,975.0934735723192,975.0407228543,975.14044281812,0.0004936993107002236,0.09971996382000725,0.02210796954931007,-0.00036372622072787194,0.28022552190428707,0.57,0.43,0.19315617780031746,Stairs up
-0.8490751533058064,-1.18688964843,-0.63195800781,0.026830084917920542,0.16291589664967845,0.44675240464946236,0.26831054687,0.76208496093,0.015215312514305596,0.12268539849305247,0.3001223328266666,-0.12060546875,0.55078125,0.03107684336870445,0.17533591692117548,1.026377429643118,0.78331124184,1.3593680831,0.02979547520463088,0.17168312016857581,975.0249619932158,974.95208393609,975.07901673598,0.0017508008237582878,0.12693279988991435,0.041617003837963386,-0.0011600508805467984,-1.0726308163340343,0.42,0.58,-0.5667029085738308,Stairs up
-0.8283748851052941,-1.11462402343,-0.65502929687,0.014100813406383996,0.11804626840335085,0.42783777573211773,0.23608398437,0.60144042968,0.013095776064506903,0.11376162846411272,0.3125315946665883,-0.04748535156,0.58215332031,0.036086467813441984,0.18884364202504633,1.0087708270532942,0.83419826543,1.28574799477,0.011987104257194283,0.10883969634847064,975.0040427513597,974.86504299632,975.16475564246,0.00807102796423825,0.2997126461400512,0.08930887242637621,-0.0018920722247209418,-0.7580886667889088,0.4,0.6,0.016326319789298892,Stairs up
-0.8461200664538963,-1.12316894531,-0.68774414062,0.01771604048206499,0.1322344963851943,0.37732884790662347,0.173828125,0.68615722656,0.021640765731918827,0.14614963847478205,0.287616680191948,-0.09057617187,0.61254882812,0.038752871149380724,0.1955750165754299,0.9957433774024678,0.78765521752,1.29971680605,0.02696010460298707,0.1631256367784563,974.9465775930078,974.90004614694,975.05380828668,0.0023248943407103333,0.1537621397400244,0.04790303651872285,-0.0011830259169520205,-0.24197672947441173,0.58,0.42,1.0300247729282934,Stairs up
-0.8959993061228946,-1.16284179687,-0.71862792968,0.021289770195595664,0.14494703046420254,0.34127807616802636,0.1552734375,0.61572265625,0.014617621153722924,0.12010530393483546,0.33073505602,-0.00158691406,0.60913085937,0.02117433347941964,0.14455353274263014,1.0291534720123685,0.82239131918,1.33187641575,0.026189538870144396,0.1607636142741404,974.8879950764504,974.85271455091,974.93890064473,0.0008331049500361781,0.08618609381994702,0.028673036860417486,1.705892363738898e-05,-1.1919893281518474,0.55,0.45,0.4757943995873701,Stairs up
-0.9184459339452523,-1.16076660156,-0.74670410156,0.011555592956049963,0.10695265211708282,0.3602874447563637,0.20385742187,0.58142089843,0.00938041853158386,0.09636216492609861,0.2746594361546465,-0.03735351562,0.51989746093,0.022814102773179853,0.15027859891089776,1.038629739321717,0.82661744315,1.3042798976,0.013480406533825198,0.1155172749473485,974.8792831424753,974.84878612778,974.90962422795,0.0003190679264506527,0.0608381001699172,0.017772029093569095,-3.78285553392665e-05,-0.8873899967413794,0.55,0.45,0.1619511388618217,Stairs up
-0.8746298931977659,-1.08776855468,-0.7744140625,0.00671561797836085,0.08151181039524397,0.39642074259957444,0.29479980468,0.54223632812,0.003185620785005271,0.056140281458023224,0.3327428939452128,0.05798339843,0.50769042968,0.0167827845384162,0.12885745720511957,1.0255064222531913,0.83736231405,1.24903475329,0.00766293795910134,0.08707133479231356,974.8763904204092,974.86500760984,974.88632961756,4.88470498195665e-05,0.02132200772007309,0.006951791161520957,0.00014926106513797198,-1.25698009943004,0.4,0.6,-0.19552885093325129,Stairs up
-0.9113554113016472,-1.08081054687,-0.74694824218,0.00863009307223273,0.0923502169217841,0.34415067784529413,0.19226074218,0.47973632812,0.005877727061496813,0.07621402319364565,0.2462790096470588,-0.02221679687,0.49890136718,0.029283245266609487,0.17011389272709923,1.0194538250925884,0.79341625871,1.25208600747,0.013814018124258583,0.11683963481615812,974.8801468487553,974.86745085278,974.89256804027,7.075027588822962e-05,0.025117187489968273,0.00836169359049405,0.00010942787818239263,-1.6014895782829732,0.52,0.48,0.01903094620884542,Stairs up
-0.9384694653845347,-1.16540527343,-0.77990722656,0.013477127115276107,0.115414108040854,0.3003923283037209,0.10107421875,0.41906738281,0.004426505815152728,0.06614404597015604,0.3167398142218605,0.10620117187,0.51098632812,0.013514168621641795,0.11557260543070451,1.0452292412836046,0.89209029474,1.26535761916,0.009948591011895646,0.09916102924566511,974.8823014565559,974.85467378602,974.91266289973,0.00017334439902674372,0.057989113709936646,0.013089261494825486,-0.00031140386631870604,0.7372575280929716,0.56,0.44,0.09679206466767354,Stairs up
-0.9039697265592999,-1.04711914062,-0.77453613281,0.00560875037701864,0.07451619202058338,0.3630029296824999,0.23522949218,0.50708007812,0.004499329485126398,0.06674081352721986,0.3354956054647999,0.05993652343,0.53759765625,0.015005671249748732,0.12188361061788104,1.0384496288793001,0.86851833225,1.21762935761,0.008055228951426205,0.08930104513336863,974.8773663735451,974.86419181877,974.92637937263,0.00023993945758758522,0.0621875538599852,0.015412334768350619,0.00025341679052396575,5.272925164627219,0.81,0.19,2.5117621389559193,Stairs up
-0.8799153645791111,-1.15026855468,-0.66345214843,0.012153346485030794,0.10962804979504007,0.4120185004304444,0.10498046875,0.64465332031,0.013975676378719479,0.11756015943176751,0.2297051323741111,0.02844238281,0.46130371093,0.015556238863119621,0.12402980192131452,1.010671798154889,0.77092460895,1.32534142674,0.01672518532021256,0.12860540396019818,974.8764802150496,974.82515088524,974.91759676945,0.0007995867223424515,0.09244588421006483,0.028119431456335234,-0.0001230525205719915,-1.1513536119598013,0.43,0.57,-0.31198498243025985,Stairs up
-0.8822765815514633,-1.12316894531,-0.64086914062,0.017325311809320208,0.13082059287039882,0.4042164872307316,0.19140625,0.56005859375,0.007425335535090098,0.08564334570012401,0.23561356707170736,-0.25134277343,0.62487792968,0.051927115858035576,0.22648147462336016,1.02752675537,0.83209101144,1.31999123067,0.01746106321587593,0.13133211115549911,974.870476550024,974.83783229608,974.92006609347,0.0003911153489715595,0.08223379739001757,0.019655677286571874,-0.00026892365460272745,0.8492901476250694,0.51,0.49,0.7484142019292922,Stairs up
-0.8732452392542046,-1.14392089843,-0.61889648437,0.02270693453951817,0.1498295738246565,0.2894037420060227,0.14916992187,0.56555175781,0.01680200475365149,0.12888395121756202,0.35428133877420454,0.06164550781,0.64001464843,0.025621244868798316,0.15915430989742504,1.0016991754888638,0.6740732604,1.37011611623,0.03319306495242906,0.18115151402214416,974.833961304474,974.76145956342,974.95586811647,0.0035058160029531275,0.1944085530500388,0.05887255035020779,-0.0015248643309653705,-0.5549522166224832,0.65,0.35,0.7185731993018423,Stairs up
-0.8585143426412121,-1.06652832031,-0.71179199218,0.005689377497077637,0.07504604611510986,0.3909961430673737,0.27783203125,0.53308105468,0.0069933259727468396,0.08320268214701054,0.3374097419469696,0.11926269531,0.54748535156,0.009585434629627201,0.09740950701862096,1.0108288761435356,0.90478991585,1.14327437876,0.0040795929523182286,0.06354828827512865,974.7874974701418,974.73865403589,974.82767776263,0.000444213993058708,0.08902372673992431,0.020969668166850232,0.0004574115271076307,-0.3393908546018478,0.45,0.55,-0.35370347389678325,Stairs up
-0.8910064697230683,-1.19311523437,-0.71411132812,0.01943298722577471,0.13860792843658626,0.3802615078971591,0.14233398437,0.603515625,0.01662856684338796,0.12821702639092547,0.2778264825970455,-0.15209960937,0.52978515625,0.03519889126825501,0.18654464309510307,1.0289144299042046,0.78892594279,1.31494712332,0.02778034715824713,0.16572465536269862,974.792400370356,974.7335478207,974.84170058507,0.0009068665290318329,0.10815276437006105,0.029942632275161814,-0.000857015642712089,-0.5139804104917518,0.55,0.45,-0.0504166741737107,Stairs up
-0.8709972993785184,-1.1591796875,-0.71520996093,0.015841177000379562,0.12508240049645325,0.41041395399037034,0.21411132812,0.65246582031,0.013913055881782955,0.1172232475227744,0.19672761139777778,-0.13134765625,0.49938964843,0.03887537709480891,0.19594752911867122,1.0060238091525926,0.76368011899,1.31010455698,0.02174453960735151,0.1465472227682528,974.7231899627244,974.67275379156,974.78366779482,0.0008221431815135415,0.11091400325994982,0.028495495533371353,-0.0009386613020245652,-0.4179750231466204,0.67,0.33,0.6843526277404532,Stairs up
-0.8520709287741745,-1.14001464843,-0.65881347656,0.020698848628500386,0.143170838277486,0.4332073915316503,0.22021484375,0.61633300781,0.012588390561154586,0.11165201824000186,0.2683449161840777,-0.0888671875,0.49169921875,0.02657150971396291,0.16221446881057575,1.0115439437550484,0.74081895035,1.32078780134,0.021972274690886442,0.14750915780260937,974.6907160299946,974.58723842589,974.80750441781,0.0038782355540160594,0.2202659919200869,0.06197243566011402,-0.0005355182510092414,-0.6069386101930703,0.55,0.45,-0.006019707165323802,Stairs up
-0.8886148203923913,-1.15759277343,-0.74548339843,0.01569548362275316,0.12459887856596924,0.3293510105252174,0.18359375,0.54626464843,0.007171538476354535,0.0842234348098958,0.2794574239952174,-0.10607910156,0.65600585937,0.0355717382350005,0.18757688798559163,1.0068745341386955,0.83230942566,1.35576077923,0.020434178541771455,0.14216915243978862,974.6148395783619,974.55849203399,974.7271976238,0.0019503310329730937,0.1687055898099743,0.04392188273076065,0.00034556323588393685,-0.21414695408394513,0.65,0.35,0.9421574861333644,Stairs up
-0.8861334007874698,-1.22082519531,-0.69750976562,0.02142531325156557,0.14548943929828667,0.4294860104450602,0.11486816406,0.77038574218,0.027745941220935707,0.16556464831747958,0.20957266565987956,-0.09936523437,0.49426269531,0.03516328194608037,0.18638569673322575,1.0339725760913254,0.75457163093,1.3362593291,0.02816990535824744,0.1668247850535048,974.5709362994126,974.50422081443,974.7271976238,0.004384658183916676,0.22297680936992492,0.06581664665479042,-0.0014590368557212846,-0.45709446627495476,0.59,0.41,0.9535921084432316,Stairs up
-0.8777610377228946,-1.109375,-0.71862792968,0.012302109387476124,0.11018275512581176,0.39706420898052636,0.18029785156,0.54528808593,0.014065776318394367,0.11781638389547086,0.3211396869821053,0.00891113281,0.53771972656,0.01948537174800804,0.138668616772648,1.0285839043755265,0.80403721097,1.29417421439,0.018767136741367155,0.13608894419317213,974.5030629007096,974.46686386778,974.54818182908,0.0004306794531392067,0.08131796129998747,0.020615834162834166,-0.00034488370061192057,0.013608947909797386,0.55,0.45,0.2684192340928602,Stairs up
-0.8684940149248515,-1.14526367187,-0.640625,0.017110491855230513,0.1301579081146539,0.43941324063742565,0.29052734375,0.63830566406,0.009226844045141017,0.09557975284339758,0.2670547938548515,-0.10461425781,0.50903320312,0.02833251307454114,0.16748729248247474,1.025352821822574,0.70652951304,1.32237471408,0.02167890972316831,0.14650688397697184,974.5068561781773,974.47270811014,974.54354955326,0.0006176365478341349,0.07084144312000262,0.02472895740805185,-5.6480260790997157e-05,-1.4431888685311334,0.46,0.54,0.040183841848329564,Stairs up
-0.8519663709240425,-1.18444824218,-0.66259765625,0.01746085927888186,0.1314347954567819,0.38867317361585096,0.17565917968,0.54418945312,0.008172348139912234,0.08991889826995982,0.25150769821744684,-0.11120605468,0.40466308593,0.01730842670614399,0.130859827705612,0.9826965914777659,0.7443536969,1.28708321598,0.017144258397601038,0.13023775439544014,974.4713456386897,974.43101996779,974.52189001144,0.0005345518298931125,0.090870043649943,0.022997067384745058,0.0001812721513477293,-0.3497099479054997,0.6,0.4,0.5713472950804347,Stairs up
-0.9113784063397619,-1.14196777343,-0.740234375,0.009175780485117548,0.09521840685052373,0.40635899134607134,0.22705078125,0.62121582031,0.009761669556071446,0.09821129876044535,0.2517525809116667,-0.04089355468,0.42333984375,0.016531564615620657,0.1278075125920167,1.0388799869650003,0.80133232135,1.30010270987,0.015072159016975922,0.12203576751300461,974.4000435291005,974.33534964751,974.48546782516,0.0017783517021956958,0.1501181776499152,0.04191874101876305,9.540880163486132e-05,-0.8157032719966182,0.48,0.52,0.29580418890087024,Stairs up
-0.8884358723921111,-1.12890625,-0.73742675781,0.009805076175887115,0.09846893360366976,0.4359429253436667,0.29663085937,0.68859863281,0.007893993717596118,0.08835317015415743,0.22445746527377775,0.02355957031,0.43273925781,0.0140178013756531,0.11773719899434815,1.0234169412155556,0.8201439548,1.32423293969,0.013882159464650722,0.11716617791998178,974.4102377370899,974.35680494575,974.46419245031,0.0008877566173667738,0.10738750455993795,0.02962925336473377,0.00011813275301943939,-1.0947238185202883,0.54,0.46,0.057550201956310526,Stairs up
-0.8909036655577777,-1.06762695312,-0.68469238281,0.008386606476843644,0.09111472592346338,0.42943349510444445,0.18774414062,0.75244140625,0.013694297804240228,0.11643011450562675,0.27284564393525246,0.03796386718,0.41247558593,0.009649650893429035,0.0977352529657712,1.0340839570565656,0.76339445416,1.29630185296,0.014797093300261535,0.12102738413834287,974.4205355274305,974.38075009216,974.45624429918,0.0004574746458512885,0.07549420701991494,0.02128035925055281,-0.00019737250502321294,-0.7035835155312711,0.55,0.45,-0.27003175671047525,Stairs up
-0.8865356445275,-1.1826171875,-0.71350097656,0.014343577555111871,0.11908225038023913,0.4227502996244317,0.25061035156,0.66259765625,0.0098928131664889,0.09889587875665763,0.21540555086738636,-0.08264160156,0.41906738281,0.02003006056110778,0.14072116484932087,1.0167778604007955,0.79476542889,1.35724967028,0.019899274344467838,0.1402609932480056,974.4160954582713,974.36484190922,974.48506293617,0.0010174458801544472,0.12022102695004833,0.03171567428185458,0.00014242377419385318,-1.0622202631861046,0.61,0.39,0.26442634850911606,Stairs up
-0.876019287105375,-1.0126953125,-0.68859863281,0.008136507114370221,0.08963705023839524,0.44719696044525004,0.27087402343,0.6884765625,0.00853641608247843,0.0918134569736237,0.256619262692125,-0.04455566406,0.47131347656,0.01601461555939613,0.1257554486489698,1.0261270417523751,0.79114240407,1.2569855406,0.01274997215559894,0.11220783173938419,974.4160380858386,974.36299691259,974.46665405928,0.0010666958138687579,0.10365714669001136,0.032455540608583286,-0.00017368085856612838,-1.1701464701681838,0.51,0.49,0.025405249142632924,Stairs up
-0.8806591796832,-1.09399414062,-0.71667480468,0.010252933502204303,0.10057945974290633,0.44895019530839986,0.27136230468,0.708984375,0.011534582521469196,0.106680776561898,0.2381103515592,0.04650878906,0.41857910156,0.013079677481833902,0.11360141628552048,1.0252361337920002,0.80773471959,1.27342383839,0.015953552220347316,0.12546249714852117,974.4125050762216,974.35008058453,974.45584049804,0.0009413789647772349,0.10575991350992808,0.030476667226697736,0.00020519559406558658,-1.1432168361849253,0.52,0.48,-0.1749128255150861,Stairs up
-0.8917310310102021,-1.13439941406,-0.65405273437,0.017421484546659396,0.13132216094505525,0.45589439314656555,0.14672851562,0.76037597656,0.017505641691201713,0.1316389647013916,0.23172644412626262,-0.20861816406,0.54907226562,0.04816699984463373,0.21835856862662326,1.059144236587273,0.85420218641,1.2739636674,0.01736475340572418,0.13110816853335802,974.4081399062949,974.355261738,974.45941180544,0.0010231674239587157,0.1041500674400595,0.0318250278786097,-0.00047353685159099037,-1.2064149666953499,0.59,0.41,0.08663720913631467,Stairs up
-0.8485678814790424,-1.15209960937,-0.66528320312,0.021651180746372022,0.14635863157430873,0.4096588784042553,0.2138671875,0.728515625,0.02175500387775322,0.14670912604977157,0.22646899933223402,-0.07788085937,0.44360351562,0.022835631018826037,0.1503086783054954,0.9887143238918082,0.74602291509,1.27889859937,0.02744916741946379,0.1647942808476914,974.3773245868296,974.33515707564,974.4102309148,0.0006006855219045214,0.07507383915992705,0.024378171596633306,-0.0006538648570018241,-1.186065849811921,0.47,0.53,-0.41265232231612725,Stairs up
-0.855379710474,-1.06164550781,-0.6728515625,0.010502525876046243,0.10187721407700918,0.5212086397005881,0.34790039062,0.84069824218,0.012938690736428341,0.11307727820128824,0.2576358570748236,-0.13928222656,0.48803710937,0.031514296398078324,0.1764753239687227,1.053656680000706,0.82088523126,1.29229351056,0.015114905777764923,0.12221736111064599,974.3343577202069,974.31831960201,974.37240037246,0.00021017104186830924,0.054080770450013915,0.014411746645557605,2.3514053939376256e-05,0.8500191149499932,0.69,0.31,1.2707431124405637,Stairs up
-0.9071956941410343,-1.16784667968,-0.70922851562,0.0254794065405204,0.1587026773519443,0.3609394643467816,0.10913085937,0.79931640625,0.026553406108889878,0.16201294560750348,0.2561315777633333,-0.16662597656,0.53454589843,0.03605280563515332,0.1887813697650842,1.0351965446977014,0.80516902626,1.42398160988,0.03472510238685223,0.18527267277976367,974.2956471479857,974.23211162599,974.37223870202,0.0010569899218854338,0.14012707603001218,0.03232399437629073,-0.0006590071210357872,0.3499891602527896,0.46,0.54,-0.19684784009219197,Stairs up
-0.8422253417932,-1.14660644531,-0.67517089843,0.01705992357147757,0.12995893326648536,0.45883666991780003,0.22924804687,0.68090820312,0.015158134065276385,0.12250123560447715,0.21152587890350003,-0.12817382812,0.49011230468,0.032133420421791056,0.17835942985324088,1.0051007316368001,0.74682879564,1.26696429797,0.018281107080520245,0.13452990749166166,974.2362807093305,974.19644857373,974.27195163644,0.0005565363855518492,0.07550306271002682,0.023472771921874303,-0.0005415633069459616,-1.0693870817558155,0.47,0.53,-0.4038213981465602,Stairs up
-0.9053154839362222,-1.16333007812,-0.6552734375,0.02514628384960614,0.15769236093014027,0.40485026041344435,0.20874023437,0.68017578125,0.01584717470620887,0.12518424416535412,0.275610351559,-0.05944824218,0.48657226562,0.023518296506220743,0.15250240031093304,1.0464883921584447,0.74506376982,1.31019838364,0.027096526661060032,0.16369317072683212,974.1924111718001,974.13920393455,974.26149788117,0.0004799503620908116,0.12229394662006143,0.02178571964131097,-0.00024246782089552054,2.3133703117931095,0.48,0.52,0.4958889026606698,Stairs up
-0.8393661498985001,-1.14709472656,-0.6552734375,0.017989734755799822,0.13328489438549412,0.430146789547125,0.26831054687,0.54565429687,0.007744865041716508,0.08745315448109948,0.175859069822375,-0.14672851562,0.45654296875,0.040299179901376464,0.1994879448804094,0.9827743539213751,0.74358608579,1.28088932659,0.02010241348891444,0.1408940499819031,974.1490035580231,974.12522971324,974.18672932513,0.0003352119165023307,0.061499611890099004,0.018194003615093945,-0.0004502978471198045,-0.7397671182180336,0.5,0.5,0.44001252897065163,Stairs up
-0.8653725071919736,-1.15063476562,-0.681640625,0.018436682757753765,0.13488548782849358,0.46958843030013153,0.21496582031,0.91638183593,0.027836446103168815,0.1657412956251264,0.2518824527111842,-0.12451171875,0.48083496093,0.027863597179264586,0.16582210618789658,1.0390714234826317,0.75861007955,1.40910496186,0.02667038589770268,0.16223273334154778,974.1108876557854,974.08295900209,974.17842180154,0.0008716031040738209,0.09546279945004699,0.029328052137469217,-0.0008570613703712413,-0.013424792307806133,0.59,0.41,1.0146156069350443,Stairs up
-0.8758903171665217,-1.16455078125,-0.708984375,0.015354611237816333,0.12323844079498572,0.41554990021739124,0.20458984375,0.71716308593,0.011936950136366456,0.10866094366589346,0.25835518214663045,-0.04235839843,0.50427246093,0.02644255703707879,0.1617255018197491,1.0194919650007608,0.78036954858,1.33185078357,0.020623319140127064,0.14282560214378365,974.0599576975918,974.00803404182,974.09087706746,0.0003877887656320491,0.0828430256400452,0.019585036899465873,2.5163263843420032e-05,0.020050062524652468,0.61,0.39,-0.11844016558352628,Stairs up
-0.8565774504642268,-1.177734375,-0.66809082031,0.018161404464959226,0.13406779438438474,0.39553424009072163,0.2021484375,0.52551269531,0.008654522159040418,0.09254890750901475,0.2398882993683505,-0.14013671875,0.46252441406,0.02720501729554876,0.1640870293463757,0.9913125844728868,0.72680840381,1.29156008275,0.01867456805788668,0.1359486915630389,974.0397025362736,973.99398909261,974.09737817561,0.0011730260209320915,0.1033890829999109,0.03407246643801862,-0.0009682474258903574,-1.2842753478750253,0.51,0.49,0.26854434719790454,Stairs up
-0.9294475208590908,-1.13745117187,-0.74291992187,0.009728219813422952,0.0980697295856254,0.41126181862159084,0.19812011718,0.66638183593,0.010331463319733216,0.10106463440523357,0.23796913840204545,0.00170898437,0.42028808593,0.013051432390892343,0.11359190402127106,1.0530262946248863,0.83081757763,1.30764886705,0.01366403714794231,0.11622720851218046,974.0029782071754,973.94571476944,974.05291551971,0.0010542448948137654,0.10720075027006715,0.0322841267373129,-0.00017822905788993592,-1.2385461542682317,0.56,0.44,-0.13914340799292474,Stairs up
-0.8922381823551897,-1.15161132812,-0.73205566406,0.010176541205849574,0.10023833711988812,0.4316112663129112,0.24987792968,0.61535644531,0.005932022828154758,0.07653060780887498,0.23932580102544299,0.0146484375,0.43420410156,0.016241646633222678,0.12663355072614443,1.0295953153672148,0.82850780276,1.27821742518,0.011676097907600868,0.10736991757428949,973.994406620481,973.9398481266,974.04738664511,0.0007566980172656298,0.10753851850995488,0.0273334879104529,-3.919138725402683e-05,-0.9499476919206864,0.37,0.63,-0.24588769795774834,Stairs up
-0.8938046968869231,-1.08349609375,-0.76025390625,0.006684219484311658,0.08136306375202665,0.3993248572678846,0.19116210937,0.61596679687,0.008924716951513048,0.0940154368465137,0.26028794508374997,-0.03173828125,0.43310546875,0.015357573187410793,0.12332844041199467,1.0229429770347116,0.83528073081,1.24639680818,0.010453931193963623,0.10175172050039692,973.9955153528473,973.94583112747,974.03344436936,0.0006537535219025281,0.08761324189003972,0.025445381316572424,-4.900434718173693e-05,-0.9509903920187379,0.32,0.68,-0.6601493720219781,Stairs up
-0.887733791181413,-1.05334472656,-0.71960449218,0.009288675486651408,0.09585255146664624,0.4376605489946738,0.2626953125,0.63647460937,0.00833172618978313,0.09078085672976344,0.20915819250782608,-0.05114746093,0.46765136718,0.0208572660935526,0.14363341073542826,1.0232907345711952,0.80107480692,1.26385575715,0.014457844926656024,0.11958551098825813,973.9796119900092,973.93239399187,974.01857088476,0.0008187050604798683,0.08617689289008013,0.028457092128873148,1.6282443540075213e-05,-1.4823452358440334,0.52,0.48,0.021292211820835797,Stairs up
-0.8878085584493975,-1.04858398437,-0.73364257812,0.007380907413096457,0.0853930958436216,0.4009406767654216,0.17602539062,0.57202148437,0.007346292957194455,0.08519262528818627,0.2818971197259036,-0.00024414062,0.49475097656,0.015551316932287028,0.123951408495598,1.023675607481807,0.82423806732,1.25602954761,0.010552554598336253,0.10210492341855071,973.9666854036502,973.92363001748,974.00272264531,0.0005503306943039274,0.07909262782993665,0.023317379870197875,-0.00030683361958242894,-0.85530061110597,0.43,0.57,-0.3518528768903712,Stairs up
-0.868847339180909,-1.03515625,-0.71020507812,0.007394814671546279,0.08543288662669869,0.44550115411636354,0.22485351562,0.7021484375,0.014887861337371463,0.12122092430283714,0.24567363788220783,0.00988769531,0.44750976562,0.016979699657477674,0.12945726738005262,1.019381146791299,0.79937375747,1.23152837994,0.013512553427804518,0.11548621441951379,973.9568147898025,973.91909741315,974.00101768496,0.0005216106021387038,0.0819202718099632,0.022690007458671425,-0.0005274611915235521,-0.6128960749481909,0.49,0.51,0.32220768554527296,Stairs up
-0.8584422576075639,-1.16381835937,-0.28442382812,0.04445945093155242,0.20949810970720353,0.45646158853743585,0.21899414062,0.80236816406,0.023219810161924648,0.15140052935196038,0.3753896859942307,0.04016113281,0.7734375,0.03133431388863572,0.17587663834547354,1.0619412650560256,0.54011074369,1.52472244261,0.05695279155110086,0.237113111313685,973.9686272292607,973.91088283089,974.05794822933,0.0011513518082017168,0.14706539843996325,0.03371336363497042,0.0002129285613054804,0.9981150869693582,0.51,0.49,0.9242970120625339,Stairs up
-0.9776766907891177,-1.36901855468,-0.66394042968,0.046587542635567955,0.21478082321635178,0.36846445120754884,0.10510253906,1.31311035156,0.09123646996751503,0.30056945082918035,0.16963465073254913,-0.14929199218,0.45300292968,0.023594928745217236,0.15285158132771073,1.0975174459729409,0.71179665014,1.77940625839,0.07643489848867158,0.27511004477987105,973.9515255822406,973.89830778727,974.05794822933,0.000969649552395171,0.15964044205998107,0.030986177309155673,-0.00017271093959703946,3.1563077841081952,0.6,0.4,1.446341487380937,Stairs up
-1.0558219577921737,-1.57995605468,-0.59814453125,0.07312706621691809,0.26894647571871394,0.18148405655086955,-0.02612304687,0.41479492187,0.008727358371962765,0.0929112252688725,0.11641792628836958,-0.17736816406,0.23107910156,0.007668121089581093,0.08709059620477425,1.0851956852760873,0.62141923353,1.63544777569,0.07294225266007313,0.2686064073838914,973.9058214243397,973.8751086916,974.03386000227,0.001350085338415891,0.15875131067002712,0.03654326884367264,-0.0005484518225680663,4.260187202219874,0.71,0.29,2.089919438391881,Stairs up
-1.0468294074701205,-1.3779296875,-0.70983886718,0.045556436846922635,0.21214986239408024,0.07036838761144577,-0.39001464843,0.29418945312,0.025252140621875068,0.15794903596977156,0.05168427616554217,-0.37756347656,0.25903320312,0.03695868789320842,0.1910848044636326,1.0797255184503611,0.75783965465,1.39560049401,0.04467470151544706,0.21008677278590934,973.8809555432246,973.85495498334,973.92688305755,0.0003176268535899725,0.07192807420994995,0.017714401599507885,-0.0004440900662514292,0.3401163483757914,0.6,0.4,0.8909884659189992,Stairs up
-0.9509710496448387,-1.3955078125,-0.57043457031,0.053436241281269614,0.2299166328078203,0.30805165280279573,0.04187011718,0.61499023437,0.02345098699646564,0.1523116077190639,0.1196879725267742,-0.27001953125,0.54040527343,0.035397752669451506,0.18712865005927284,1.0358657889580642,0.65054535958,1.40619007088,0.052187810904713236,0.22721498992732259,973.8335303699264,973.77225511495,973.90641480397,0.001583046638578108,0.13415968902006625,0.03957302909446883,-0.0009662261733929734,-1.0704152559245332,0.46,0.54,0.01248056718605554,Stairs up
-0.9968087332546939,-1.36291503906,-0.62817382812,0.05162016202498404,0.22603854909680854,0.24842180524214288,-0.01379394531,0.47412109375,0.015249795290121014,0.1228583946423661,0.041759257412448986,-0.18518066406,0.17944335937,0.010356333785541138,0.1012455278527327,1.0395861063230614,0.65098079905,1.37816531885,0.05332803851262332,0.22974741533765128,973.7719436305503,973.74394712774,973.79402303508,0.00018485860777412303,0.05007590734010137,0.013526725230073141,-0.00036740269680171617,0.038797166700886176,0.43,0.57,-0.425866565684786,Stairs up
-1.0269094067911626,-1.46826171875,-0.65686035156,0.06803992832659922,0.25932367105475196,0.21365711300581403,-0.01379394531,0.50500488281,0.011611706246711404,0.10712929761103339,0.09292957394302323,-0.03930664062,0.25158691406,0.00609856025298741,0.07763792089999322,1.0585672150279068,0.66428697943,1.57293305062,0.07387576877712503,0.2702161138976526,973.7169583675086,973.66922817577,973.75672837816,0.0005191212697017776,0.08750020239006062,0.022651379116248885,-0.0007410155476273714,-0.7305403695218682,0.44,0.56,-0.3100038972456441,Stairs up
-1.0036157535563288,-1.30114746093,-0.66149902343,0.03874146797085303,0.19557880673045341,0.21132379845367094,0.10693359375,0.35424804687,0.0040968971491049345,0.06360061077946758,0.08931529370848101,-0.02600097656,0.19177246093,0.004591947075926887,0.06733365550431213,1.0328214964827847,0.67522485793,1.35689617378,0.040501917673702564,0.19997308611786688,973.6566910355388,973.61736019582,973.68404026775,0.0003822411075831545,0.06668007193002268,0.019426852873032634,-0.0007481366140822211,-1.070033858898795,0.51,0.49,-0.20639808441436358,Stairs up
-0.9742897435198682,-1.25598144531,-0.77160644531,0.01940661349561096,0.13838808950931122,0.25938817074,0.09020996093,0.48193359375,0.008862296413612893,0.09351837921112556,0.09621389288407893,-0.03356933593,0.22338867187,0.004980349822742458,0.07010576940610638,1.0194992321863157,0.78848745146,1.30346582515,0.019469098017013277,0.13861069826923228,973.6086870656243,973.57178474433,973.62732879478,0.000280844790849892,0.05554405045006661,0.01664780660190701,-0.0005614801072389942,-0.4737083610031734,0.49,0.51,-0.715616600830463,Stairs up
-1.0127183702214444,-1.46203613281,-0.65075683593,0.047882435326833006,0.2176014895804851,0.1076551649291111,-0.17272949218,0.28186035156,0.015386852200670337,0.12335269423980347,0.04933539496333334,-0.05310058593,0.21228027343,0.0038233743993456907,0.061488962111708984,1.0289487142467775,0.6838351668,1.46757831405,0.0477645618254537,0.21733348677053324,973.5686582111007,973.53752130917,973.60120843634,0.0004315018156873845,0.06368712717005565,0.02065689596886802,-0.0007705380287847675,-1.3904343437090303,0.43,0.57,0.019951029008976027,Stairs up
-0.7855529785114286,-1.17431640625,-0.45825195312,0.02746767914257635,0.16474429568973725,0.5055149623282142,0.31091308593,0.68908691406,0.008457770247457794,0.09141707994908078,0.21648007347166667,-0.06762695312,0.48547363281,0.02106842833772932,0.14428310266507688,0.9726068865050002,0.71381342485,1.35741866955,0.030213388095602294,0.17278224707413659,973.555182154342,973.48575556486,973.681440115,0.00315604647450099,0.19568455013995845,0.05584330302428119,0.001585950324769675,0.1196874320673551,0.46,0.54,0.8446638723132294,Stairs down
-0.8288110351519999,-1.19128417968,-0.66650390625,0.01622630032012156,0.12674398335589876,0.45090820312079993,0.12585449218,0.80810546875,0.024853138225408154,0.15685855680565874,0.28720703124630004,0.06884765625,0.51196289062,0.023849041172987008,0.15365725092314106,1.0078341049537003,0.80756216542,1.44836608912,0.0214984143911668,0.14588841711134964,973.5783981108627,973.49785717004,973.66263798885,0.0031045790650192214,0.16478081880995887,0.055439455935002005,-0.00044558636816649017,-1.4252273538081683,0.57,0.43,0.3058556572099695,Stairs down
-0.8250420464377777,-1.25610351562,-0.45397949218,0.02811759595152329,0.1667488477283384,0.5057698567669999,0.31518554687,0.77111816406,0.0135515421963594,0.11576255657719703,0.21012369791333332,0.044921875,0.46630859375,0.016381678956417088,0.12727788614423868,1.004002988730889,0.68251189591,1.48371739125,0.03037075430029368,0.1733011871705871,973.6070820329899,973.52667116903,973.67696786666,0.0011866948436467539,0.1502966976299831,0.03425652266917955,0.0010607176924821266,0.07717422256492013,0.61,0.39,0.2821595905851137,Stairs down
-0.8956745426792683,-1.31384277343,-0.52722167968,0.05492414203382339,0.232925600618856,0.5929327243669511,0.29284667968,0.91577148437,0.024214083283241306,0.15465700625792933,0.18888892196756096,0.05029296875,0.46252441406,0.009235120717511723,0.09551176521312667,1.1020158070789021,0.74326968351,1.53871246656,0.06310751395127025,0.2496756097871721,973.6512699211219,973.57959531735,973.75999136138,0.002365205824738816,0.1803960440299761,0.04833592712741105,-0.0006894846072974293,0.3006677366480641,0.56,0.44,0.7989870281845606,Stairs down
-1.0483360290496877,-1.55029296875,-0.59533691406,0.1013063658084075,0.31662452710516586,0.20638402302770834,0.05822753906,0.34033203125,0.006914840597894288,0.08272128509841278,0.0505256652825,-0.09631347656,0.33154296875,0.013875986738058918,0.11718124939399421,1.0806747164978125,0.68132656699,1.59874607959,0.09814549098519991,0.3116458601052976,973.7145089074887,973.65674301823,973.77001475973,0.0009594682239030808,0.11327174149994335,0.03081353214478054,0.000989881829311971,-0.3614415261280355,0.41,0.59,-0.19912616707566277,Stairs down
-1.0404078165654167,-1.70178222656,-0.63586425781,0.1171549746795114,0.34049171848950033,0.175861358639375,0.01196289062,0.3154296875,0.007284785204332974,0.0849052532245277,0.056139628091875005,-0.04797363281,0.24658203125,0.00669529139304438,0.08139747400482913,1.0628418584228125,0.64311565653,1.71032235657,0.11789158253492871,0.3415604561667766,973.775970021151,973.69319849116,973.84496546335,0.0017115590184367023,0.15176697218998925,0.041154954484986614,-0.0002738746045393568,-0.9379957719758187,0.58,0.42,0.017257043978253468,Stairs down
-1.0169564180560464,-1.61547851562,-0.69152832031,0.08536547479482277,0.2904700552464625,0.27729832848453484,0.11108398437,0.72216796875,0.026768417234616326,0.1626565601784863,0.08848110465011627,-0.1201171875,0.46643066406,0.018220788541632386,0.13419731333908053,1.0724271851334883,0.71713694683,1.66461410245,0.09881145656872234,0.3125099776703212,973.834425315219,973.80176216963,973.86309814989,0.00038178152719624806,0.06133598025996889,0.01942529812158801,0.000611814764209836,-1.268236094731282,0.48,0.52,-0.2927210549972598,Stairs down
-0.38537441155397434,-1.22888183593,-0.15698242187,0.03912898452771773,0.19653836999407134,0.8029253054843588,0.06591796875,1.41870117187,0.1263573322933528,0.35318177542834805,0.3683221279007692,-0.03088378906,0.70227050781,0.04909030032943304,0.22013845076382438,1.0205669361952563,0.45491504612,1.60160554967,0.10041987104139803,0.3148530400000571,973.8780781419318,973.82304524727,973.91082975662,0.0005069285813038712,0.08778450935005822,0.022370281556748018,0.0007852250087490888,0.47315380374124727,0.4,0.6,-0.8226935777038712,Stairs down
-0.5946236404689214,-1.93542480468,-0.07055664062,0.22204592255746275,0.46890191058266745,0.5733702416479409,0.20617675781,0.95141601562,0.05986942612809168,0.2434799190281883,0.3412547391975491,-0.04113769531,0.6669921875,0.05729175545570262,0.23818075400562055,1.0203443919802937,0.55622926201,1.98014999773,0.09449075079751854,0.30588293657498933,973.9164443238695,973.89320071224,973.96723441747,0.00044210539191594277,0.07403370523002195,0.02092297840481922,0.000566321123796901,-0.33019867736999187,0.56,0.44,0.7704490353004397,Stairs down
-1.0354135164613978,-1.75537109375,0.19360351562,0.16147478782060995,0.3996729910558482,0.4504145140258064,0.03247070312,1.50219726562,0.1571054175369188,0.3942285022318981,0.0869783791147312,-0.19384765625,0.35766601562,0.01924930726359579,0.13799393271105256,1.19566471947,0.48999826284,2.20465810338,0.1891361609406374,0.4325533941376317,973.9500737458575,973.9189369835,973.99747979876,0.0004027130404289458,0.0785428152599934,0.019959528869249343,0.00045202284133911974,-1.142939052511944,0.53,0.47,0.14583370983542399,Stairs down
