avg_accX,min_accX,max_accX,var_accX,std_accX,avg_accY,min_accY,max_accY,var_accY,std_accY,avg_accZ,min_accZ,max_accZ,var_accZ,std_accZ,avg_magnitude,min_magnitude,max_magnitude,var_magnitude,std_magnitude,avg_pressure,min_pressure,max_pressure,var_pressure,range_pressure,std_pressure,slope_pressure,kurtosis_pressure,Pressure_below_avg,Pressure_above_avg,skew_pressure,Label
-1.0914013671839,-1.35693359375,-0.77368164062,0.025170763069090243,0.15785770630032397,0.28585693359100006,-0.02673339843,0.45263671875,0.0200613251297179,0.1409280379428477,0.08182373046530002,-0.06359863281,0.19482421875,0.004942674678823111,0.06995175431706398,1.1430738664869002,0.88934945066,1.41617885306,0.022849903679747884,0.1504041377188487,974.0091387381627,973.96615564051,974.06431301134,0.0005101156019141887,0.09815737082999476,0.022472526468891894,7.221567829102937e-05,-0.01395828179892833,0.48,0.52,0.46455654521424083,Stairs up
-1.0827905273409,-1.5517578125,-0.69958496093,0.056338012694138045,0.23616653566328288,0.21558715819969998,-0.00537109375,0.419921875,0.012567555993228412,0.11154317743948362,0.08340087890609998,-0.18688964843,0.423828125,0.025243872216337088,0.15808679101738296,1.1248588571579998,0.73881937024,1.62033959276,0.05431247823011798,0.23188219734989748,973.966185320251,973.90913491175,974.02083287963,0.0008397874189616707,0.11169796787999076,0.028833826398382403,-0.0006842629049761459,-0.6219390051410167,0.51,0.49,-0.14250323862733488,Stairs up
-1.1090686035108999,-1.55944824218,-0.78955078125,0.04491456123741747,0.21086824233403023,0.2468872070282,0.06298828125,0.48596191406,0.013383128877680275,0.11510559321294284,0.08738403319929999,-0.14465332031,0.19226074218,0.0064061661482971936,0.07963733098751001,1.1494951830351003,0.85588295371,1.58183661782,0.0417576479062159,0.20332257972776596,973.8771249846567,973.80579326708,973.96474213051,0.0026182562254179705,0.1589488634299414,0.05091241168088378,-0.0011972196002375732,-1.0407283961294267,0.59,0.41,0.4272400075555212,Stairs up
-1.1441174316377,-1.45947265625,-0.85534667968,0.03573436745977534,0.18808780870959604,0.2844226074182,0.06079101562,0.52819824218,0.018467103139165032,0.13521254419532747,0.0990893554661,-0.05029296875,0.21276855468,0.007115329943191608,0.0839295933730153,1.1945310618945002,0.92143033505,1.52395403981,0.03385736571774404,0.18308138097733095,973.8309822952699,973.78085498728,973.88248812892,0.0007082693612820747,0.10163314164003623,0.02647992952538307,-4.5423991516013996e-05,-0.28194024318057354,0.59,0.41,0.19959823593197423,Stairs up
-1.1880688476523,-1.63037109375,-0.85668945312,0.04345676821336231,0.20741793685992704,0.2614636230431,0.03503417968,0.59094238281,0.027331877566069005,0.16449485946499456,0.09323852538800001,-0.17834472656,0.21887207031,0.010775124091670236,0.10328297464129087,1.2362558319467,0.86457730869,1.65612341289,0.04139786434797879,0.20244477198608762,973.75086469011,973.68533093794,973.87308983252,0.0036672044594872402,0.18775889458004258,0.060253899582453314,-0.0007106172269410146,-0.792913620720082,0.67,0.33,0.7236727805944893,Stairs up
-1.0842724609336,-1.51171875,-0.67663574218,0.07095092580804223,0.2650309728125409,0.18550292968379994,0.01220703125,0.41918945312,0.009003566828545875,0.09441149908914918,0.06497314453019999,-0.10485839843,0.35595703125,0.019160055336734413,0.1377260134592121,1.1164862567590998,0.68805522606,1.52371503796,0.0665267241723543,0.2566348708391569,973.645370627079,973.5784774351,973.74146612025,0.0021036899233862114,0.16298868515002596,0.045636093436580975,-0.00018642169304482157,-0.31083233130484667,0.63,0.37,0.6352589109694736,Stairs up
-1.0088642775369696,-1.37609863281,-0.59814453125,0.06695024416977916,0.2574373303877181,0.26735001380505047,0.11694335937,0.41870117187,0.006742722114169232,0.08169830971314954,0.07024838225959595,-0.23889160156,0.47814941406,0.03493654190872879,0.18596679151400755,1.067519611860606,0.69213785376,1.43146003739,0.06278631955796343,0.24930325772019749,973.5907104579082,973.52909589602,973.65733207038,0.0011006512665562155,0.12823617436004042,0.03300808350987742,-0.0004807711913882714,-0.5463429777321958,0.52,0.48,-0.15672629831205287,Stairs up
-1.1242762093545453,-1.57409667968,-0.80407714843,0.05052065400813247,0.22362992727201492,0.276247583250707,-0.01135253906,0.58862304687,0.024026588815600228,0.15422028400726356,0.04041390466969697,-0.10107421875,0.12902832031,0.0031327414426470155,0.05568749940238819,1.1704998849933332,0.82607406686,1.58526509222,0.049265999413121125,0.22083560187481735,973.5189074953068,973.4691531524,973.57997167269,0.0011370028263246728,0.11081852028996764,0.033548739906158774,-0.0008475879143185031,-0.9035015453062734,0.43,0.57,0.2689920065107684,Stairs up
-1.1187467280084535,-1.70373535156,-0.53881835937,0.10309189387427752,0.3194199286905026,0.24014124919164948,-0.04187011718,0.47045898437,0.021707792695601816,0.14657421675836296,0.021160951593814436,-0.11682128906,0.23474121093,0.008787591953985813,0.09325769792623782,1.157851485821031,0.55195695102,1.72253456464,0.10235508075081279,0.3182764108958802,973.4547440099034,973.36861966661,973.60156546124,0.003371906012891203,0.23294579463004084,0.057768019658220336,-0.0008741532253513628,0.8681167315290792,0.52,0.48,0.9050128569728696,Stairs up
-1.1761487193891753,-1.66687011718,-0.78466796875,0.09033574582851751,0.2990057683051782,0.2890184540086598,-0.02966308593,0.48974609375,0.024059025317808475,0.15430811426806137,0.08124974830762886,-0.11999511718,0.38720703125,0.020387573682542147,0.14204714889978318,1.2381615422573196,0.78619980615,1.67988856243,0.08033950547303653,0.28197741602577364,973.4309697489324,973.37426343553,973.5650410881,0.002951940467844588,0.19077765256997736,0.054050976789392316,-0.00013938511928591682,-0.45660143092099625,0.58,0.42,0.8653199936966497,Stairs up
-1.1378517150841667,-1.66040039062,-0.72290039062,0.08425552835664245,0.2887522581780572,0.22628784179489583,-0.09313964843,0.50183105468,0.02958237152302648,0.17109711224816632,0.03712717691864583,-0.12646484375,0.28601074218,0.013183123807267797,0.11421821046112608,1.1792031410054167,0.73271763234,1.6865793295,0.08333707492566662,0.2871741290492424,973.4289633035675,973.37669768938,973.51495375297,0.0016785081522994628,0.1382560635900063,0.04075565840935068,7.476292001580929e-05,-0.5541786386298253,0.68,0.32,0.7691929782804451,Stairs up
-1.131739298499271,-1.587890625,-0.75207519531,0.07083246673928986,0.2647539018486582,0.26205444335510414,0.01086425781,0.50903320312,0.02670832464546726,0.1625734078206221,0.06654739379666667,-0.13330078125,0.23425292968,0.012052339417872447,0.10920986317912382,1.1794917048101041,0.75584736895,1.63505746658,0.07193510465287366,0.26680663531117976,973.422939612558,973.37013954045,973.5811869222,0.003091505631224358,0.21104738174994964,0.055310961369024955,-0.00033162703564248725,2.818347947374206,0.69,0.31,1.9066204282142387,Stairs up
-1.2385487657871275,-1.6005859375,-0.84326171875,0.041330410356294305,0.20221455224522783,0.27415823428829783,0.01147460937,0.50903320312,0.020921767421094122,0.14387214958862848,0.08758415059585106,-0.11889648437,0.22924804687,0.010296657118646023,0.1009312548873168,1.2853847189457448,0.94735638685,1.61633446443,0.036791326266447065,0.19078765468055353,973.4162682703482,973.35483385081,973.5156143456,0.002000927393349202,0.1607804947900604,0.04449315600986097,-0.0007393052036954007,-0.03541735223240705,0.54,0.46,0.7013220859889739,Stairs up
-1.1572694169673403,-1.59155273437,-0.82275390625,0.0467268551250338,0.21501107162557,0.2196031935636171,0.08215332031,0.41284179687,0.010039424542039252,0.09966254137485234,0.10004311419329787,-0.14343261718,0.37866210937,0.02220984672155586,0.14823485337946984,1.196453190918617,0.84257199917,1.59582829072,0.044617057083913406,0.21010094607228097,973.3608971526406,973.28859149635,973.50175716486,0.00360216238762715,0.21316566850998697,0.059697918817686026,-0.0007846206929983355,0.527454971249659,0.62,0.38,1.1395263951342258,Stairs up
-1.1212430913360636,-1.43127441406,-0.8037109375,0.028936350266756297,0.1691996357953532,0.21477362449819146,0.0283203125,0.43908691406,0.015786851762839716,0.12497562374847403,0.062015614608510634,-0.07958984375,0.22680664062,0.005639269932324877,0.07469456271377638,1.1517652336928725,0.84379890088,1.48595243259,0.03075039540932782,0.17442265776919907,973.2719521977839,973.22862127944,973.36388635958,0.000678316063267923,0.13526508014001593,0.025905596594853506,-0.0005041162938317461,0.8643508603399921,0.56,0.44,0.8739385706254286,Stairs up
-1.1002827305917204,-1.359375,-0.83752441406,0.02852603003146408,0.16798600693435572,0.21902039230150538,-0.15759277343,0.39038085937,0.021530040206938012,0.14594017403806692,0.07194535450107525,-0.06689453125,0.16882324218,0.005869275497698491,0.0761981955723095,1.1367256495520426,0.90249708449,1.39434559438,0.027239850717148947,0.1641552591193302,973.2237031475232,973.16940385079,973.27597272219,0.0010165614023055372,0.10656887139998616,0.031711679781096604,-0.0008719539203265116,-1.1348852259809066,0.47,0.53,-0.07255290539953979,Stairs up
-1.1058651503660215,-1.44445800781,-0.86096191406,0.03243512843518122,0.17912666918495845,0.2404890162934408,0.05126953125,0.42163085937,0.013798770585673055,0.11683491219839964,0.07115517892827955,-0.02514648437,0.14428710937,0.003184477940746169,0.05612696537724604,1.1421401188526883,0.92516928779,1.45785489976,0.030567384261398822,0.17389279085172274,973.1756204703503,973.12957942349,973.26937960981,0.0015475880444824743,0.13980018632003066,0.03912732182019838,-0.0007792516565645526,0.19907424547639962,0.65,0.35,1.0090184378415508,Stairs up
-1.1323454483661954,-1.42895507812,-0.87365722656,0.030251154732345156,0.17298074411066838,0.21856424082597825,-0.00708007812,0.42541503906,0.015908998931530895,0.12544351330420084,0.14211770762184783,-0.041015625,0.37023925781,0.01166563836531427,0.1074189831840722,1.1745337997977177,0.88708933677,1.46502208387,0.028147540087214373,0.1668579892139638,973.0935347259691,973.02435538307,973.14155308707,0.0009792660318172063,0.11719770399997742,0.03112269004792473,-0.0007825110387318679,-0.3812792268541907,0.37,0.63,-0.7850707415366365,Stairs up
-1.0784818209102198,-1.48779296875,-0.7392578125,0.03313918121332362,0.18103870963637467,0.22989461709791212,0.03259277343,0.34313964843,0.008035246032839333,0.08914564838445596,0.02671998411692308,-0.16418457031,0.22473144531,0.01457694618193131,0.12006981285965197,1.1125844344385716,0.75626944721,1.53045478432,0.03436071807963939,0.18434513221420284,973.0607417258277,972.99382939981,973.13515964615,0.0025302837307226776,0.14133024633997593,0.050024778010506456,-0.0009581167353606752,-1.6073855000664714,0.47,0.53,-0.0020338101287387567,Stairs up
-1.0945803464076924,-1.61669921875,-0.59484863281,0.10537342502670087,0.3228242173399213,0.2374723664978022,0.015625,0.486328125,0.024240229079379953,0.15483492156374318,0.01407296317010989,-0.19775390625,0.24658203125,0.01358094820835677,0.11589524157295651,1.1389733258738461,0.62735086819,1.62262865042,0.10015875171184173,0.3147349775424312,973.0090211852416,972.9432928906,973.10140962793,0.0019653464404005747,0.15811673733003317,0.0440879714521977,0.00022442893390715648,-0.7201796082118652,0.48,0.52,0.49500109572496526,Stairs up
-1.1095486111066666,-1.48498535156,-0.80480957031,0.05070915917962128,0.22393240961867375,0.2771253797702222,0.02453613281,0.49536132812,0.02138598899324127,0.14542478087766322,0.069687228731,-0.07556152343,0.26782226562,0.01126704853093188,0.10555500510544451,1.1585915122813335,0.80565611864,1.54325475818,0.05344843562207651,0.2299012051189914,972.977294671031,972.93504305646,973.03732392021,0.0006353285900929027,0.10228086375002476,0.025065302382702565,-1.7461754165729914e-05,0.826341952791037,0.68,0.32,0.8766679002838988,Stairs up
-1.1129959769834783,-1.53405761718,-0.57873535156,0.06992216564702369,0.262986961858154,0.5069235096772825,0.103515625,1.49084472656,0.16113241895434802,0.3992254746604827,-0.0020539656933695654,-0.27111816406,0.38854980468,0.0251701381199929,0.1577864051880481,1.2887710587664127,0.70375360364,1.83629057309,0.08355930733138478,0.2874909633202864,973.0280320742071,972.9535728456,973.11687109525,0.003046959601736177,0.16329824964998352,0.05489845604049671,0.0005863530098956018,-1.4091984485441325,0.6,0.4,0.18740577484535265,Stairs up
0.7480495578608791,-0.341796875,1.10266113281,0.11631324058642095,0.33916820768970857,0.4574363624623076,0.224609375,0.65710449218,0.012794321735282634,0.11248877629851198,0.16649854051791207,-0.02416992187,0.34802246093,0.010562671194998617,0.10220859985912863,0.953442106337143,0.56343690676,1.23911253285,0.02591627054313249,0.16009833341212465,972.9490876867371,972.83894616513,973.09695544327,0.0044975179628590125,0.25800927813997987,0.06669403787852314,-0.001029440072020021,0.051074881098063685,0.54,0.46,0.5287285386656797,Stairs up
-0.019114064647142857,-1.50512695312,1.05285644531,0.945415464056822,0.9669675708797688,0.4190955528808792,-0.22509765625,0.75830078125,0.06760804556292391,0.25858286874286046,0.20297610104428573,-0.04260253906,0.45458984375,0.015198716786859573,0.12260382506704229,1.0687074849592306,0.32172651569,1.67876657479,0.0930152659431282,0.30330367647546475,972.9649050990954,972.85458472664,973.08945026277,0.004566933828531025,0.2348655361299734,0.06720675369710406,-0.0002798806968181337,-0.7674393558884689,0.48,0.52,0.3321255846732237,Stairs up
-1.020583767356889,-1.32434082031,-0.65258789062,0.04272028622279586,0.2055373843753878,0.2753038194422222,-0.14733886718,0.46362304687,0.02365410737863849,0.15294209349724583,0.08877360025977778,-0.14184570312,0.37182617187,0.024749004454657098,0.15644173201633899,1.0818925716776666,0.6551991746,1.38584893039,0.043150131080609666,0.20656883884001961,972.9446711998057,972.87448509851,972.98680279836,0.0007709389513085098,0.11231769984999573,0.0276111021685234,0.00015128725753242253,0.05557187451745804,0.36,0.64,-0.7320659492373705,Stairs up
-1.0848890516444443,-1.32312011718,-0.88952636718,0.011932516665361692,0.10862749719503655,0.2254055447004444,0.04443359375,0.40209960937,0.012308829697343699,0.11032708154813473,0.10282796223611111,-0.01220703125,0.26892089843,0.006512332313918402,0.08024944277679424,1.12096522817,0.92205166336,1.37057318953,0.012351672960759496,0.11051892213591476,972.8818697816173,972.81518074234,972.93483877595,0.0007478180910482383,0.11965803360999416,0.027193914781577556,-0.0002788836089023125,0.7289908435239871,0.49,0.51,-0.7429162434277613,Stairs up
-1.1383372103189888,-1.35461425781,-0.88977050781,0.0206972965217976,0.14305503356503838,0.2183248112679775,0.03332519531,0.46313476562,0.016600277651565035,0.12811618819630852,0.1032728559483146,-0.00756835937,0.22265625,0.0047330708985217395,0.06840972391866698,1.1718253683014606,0.90921472795,1.42432654909,0.0227822879875743,0.15008766512831415,972.813200715293,972.73626501137,972.89713677266,0.0015553170150219909,0.16087176128996816,0.03921532280809495,-0.0009628570166085171,-1.1543370825464123,0.48,0.52,-0.0002130856091449453,Stairs up
-1.0687200996285393,-1.28479003906,-0.71069335937,0.026948134299711834,0.1632340230278981,0.1882420229069663,0.03869628906,0.35900878906,0.007996870788796415,0.08892141647557927,0.06998880793325843,-0.07458496093,0.19226074218,0.0050624236803126525,0.07074985876569168,1.0935581868102247,0.71984200865,1.29799585853,0.026482094551955073,0.16181638646248347,972.7634918423223,972.69301065514,972.83175518675,0.001548749555056769,0.1387445316099729,0.03913244018283134,-0.0007592414147805764,-0.6544396586908334,0.39,0.61,-0.16862194942256167,Stairs up
-1.028128884051477,-1.31030273437,-0.76806640625,0.028583919794872827,0.16810443933601676,0.2450284090871591,0.13745117187,0.42749023437,0.005362933986216526,0.07281477566095342,0.11350180885761363,-0.0576171875,0.31640625,0.010501220944828337,0.10189155455010541,1.0697512316823863,0.81290807013,1.37033838402,0.029885477070638072,0.17188911942485932,972.686262809524,972.60821752274,972.78779001562,0.002494870422281045,0.17957249287997,0.049664067715279335,-0.0005436869637047896,-0.2856974634007856,0.56,0.44,0.6347166067308179,Stairs up
-1.0165412288932183,-1.46960449218,-0.70666503906,0.04915166832411049,0.22042392478865733,0.26985817393609185,0.08325195312,0.42199707031,0.008948057714708975,0.09404895787093481,0.05021158854080459,-0.11206054687,0.21240234375,0.010513643769825243,0.10194506996276137,1.0640172423362069,0.779293567,1.53290791676,0.04490892059069737,0.21069581415194066,972.652727623319,972.57477803227,972.826812395,0.0037478341231591025,0.2520343627300008,0.06086670329514605,0.0008949570490326332,2.0248106344077232,0.46,0.54,1.3238266863961377,Stairs up
-1.112955729163563,-1.60205078125,-0.68603515625,0.07443731249313038,0.27125949052541165,0.32064082704494257,-0.01245117187,0.59619140625,0.031894200870159595,0.17756013308216956,0.04443359375022987,-0.10192871093,0.32775878906,0.012960317175637975,0.11318722548370734,1.1756789625433337,0.68640970343,1.66055063387,0.0800753831070677,0.2813449420279093,972.5527844626959,972.4892978035,972.826812395,0.0029188022235340887,0.33751459150005303,0.05371454898525044,-0.0001937553057380918,6.655872492172289,0.56,0.44,2.047104391044638,Stairs up
-1.140692349133678,-1.57751464843,-0.75268554687,0.06977373907665083,0.2626247171836074,0.303326486168161,0.08044433593,0.50793457031,0.01361365288114627,0.1160050607189077,0.06303037445988505,-0.15686035156,0.25109863281,0.01705104522428966,0.12982702414645078,1.1972391956509194,0.75865725006,1.61289264903,0.0637943700961799,0.2511196955126872,972.5611911241054,972.47509227654,972.71803503151,0.004715457310418488,0.24294275497004492,0.06827339636841019,0.00014105248078310584,0.00792290848685484,0.55,0.45,0.8373548126045052,Stairs up
-1.10188187,-1.53063964843,-0.74206542968,0.06777956666968377,0.2588270313810454,0.24761962890418607,-0.00769042968,0.49645996093,0.0189003343962217,0.13667685636578372,0.028668070948953486,-0.10180664062,0.22705078125,0.009145292645419644,0.09507340339581623,1.14245764336186,0.75448417254,1.5535787194,0.06655638620566942,0.2564809442008541,972.5603036483229,972.49693281843,972.70738430719,0.002769985835057024,0.2104514887599862,0.05232376799734593,0.0009855478161926218,2.443282070438838,0.63,0.37,1.5282319588725999,Stairs up
-1.115683880969529,-1.50561523437,-0.78527832031,0.05556974532072496,0.2343415959898485,0.26816549861717653,0.00134277343,0.42260742187,0.01776988325199277,0.1325172660522746,0.06584616268282352,-0.09106445312,0.27954101562,0.013311185046451925,0.11469342993142564,1.1604048090924703,0.78860481132,1.51612547348,0.054164183318404946,0.23135893678936648,972.5386972457277,972.4670015176,972.67319323644,0.0017850937551760146,0.20619171884004572,0.04200110298758764,-0.0003628750183852298,1.963209951560537,0.59,0.41,1.1230106838256462,Stairs up
-1.1362673737244187,-1.65051269531,-0.73095703125,0.05252060717375668,0.22783744740313897,0.23263762717674422,-0.05029296875,0.49609375,0.015937957929938122,0.12550949301837508,0.12853152252558142,-0.04162597656,0.27038574218,0.0073738693455043915,0.08537052581948995,1.177036090550465,0.73386666783,1.68216943345,0.05188417025310219,0.2264527896667064,972.5330520270801,972.48707544654,972.57427781254,0.000662121048200451,0.08720236600004228,0.025581672467699053,-0.00017019874308261376,-1.0641823982707699,0.52,0.48,-0.22336870066328135,Stairs up
-1.0314549037359524,-1.3779296875,-0.77075195312,0.027704858335102063,0.16545403770539271,0.3008364722802381,0.00769042968,0.53796386718,0.02385689709742673,0.1535346424026039,0.17292277017892857,-0.02282714843,0.36499023437,0.009662128431183751,0.09770927843719489,1.104022879478214,0.82565750631,1.37899876141,0.026245036544089797,0.16103600725567754,972.5093530316971,972.44772994021,972.64200286147,0.0017156224459296285,0.1942729212599943,0.04117278675523884,0.0001669703874126103,2.911721083325787,0.64,0.36,1.5969692101284008,Stairs up
-1.0736665271545238,-1.32421875,-0.76098632812,0.01941826310360183,0.13851748375114756,0.2521711076979762,0.06433105468,0.44018554687,0.015999185418306555,0.12573272813882422,0.09220813569166667,-0.03662109375,0.17810058593,0.0034831079300493466,0.0586655125218686,1.114472090045,0.81782814937,1.38124707618,0.02149776019201751,0.1457457871619138,972.4366411277044,972.39297208646,972.57310118221,0.0011539692990669905,0.18012909575008962,0.033767315103753706,-0.0009109514906833583,2.1385431435909865,0.51,0.49,0.9879264674742398,Stairs up
-1.1202363163550602,-1.33056640625,-0.845703125,0.016402109358347235,0.12729687185058972,0.2502161968146988,0.05358886718,0.53186035156,0.01794786472346798,0.13316014940458085,0.09344408885277107,-0.11071777343,0.28332519531,0.008354882413415698,0.09085274447984015,1.1615959249038554,0.86810244158,1.43961051794,0.01938818739057581,0.13840012561920687,972.3745316397293,972.31833230832,972.43523542696,0.0008134411976415325,0.11690311864003888,0.028348557305168203,-0.0006571431672640845,-0.10483096477841514,0.55,0.45,0.48235274595367444,Stairs up
-1.160505883484074,-1.34191894531,-0.95104980468,0.01670927247152735,0.12846394496925606,0.2304054542791358,-0.01513671875,0.48486328125,0.02139993090609091,0.14538134071550562,0.10953022521061728,-0.05456542968,0.33544921875,0.008923034001637202,0.09387690391164774,1.20029897013,0.97490981828,1.38843121166,0.017811316774264924,0.1326326655638898,972.2946223330493,972.21403976369,972.44516944767,0.003347732821502082,0.23112968397992972,0.05750132856437948,-0.0018171385429285839,0.98787156384219,0.64,0.36,1.2110002034540486,Stairs up
-1.1114381389814816,-1.48046875,-0.80187988281,0.037250830086374025,0.19180965381123086,0.21704252266197532,-0.02368164062,0.41491699218,0.014248887633082508,0.11862957236743918,0.09317581741790124,-0.23803710937,0.34753417968,0.025370599121313935,0.15829523634086812,1.1533817307835803,0.8478941957,1.55827709317,0.037174757680332675,0.19161370007034872,972.2274265702446,972.15746687728,972.34176847431,0.0013277647840203067,0.1843015970300712,0.036212879286144806,0.0002250044303884254,3.258779402197039,0.59,0.41,1.0182890237823277,Stairs up
-1.0676315307580002,-1.44885253906,-0.62121582031,0.057220702474605464,0.23770873709999155,0.24764862060175002,0.05590820312,0.36730957031,0.008606557885149302,0.09218989050641581,0.04196014404125,-0.18505859375,0.26696777343,0.013911955621436592,0.11720945429515758,1.1079094816865,0.69632948748,1.48282766505,0.05489279454502527,0.2328231831523924,972.1079317513183,972.01147517912,972.21400672763,0.003532786355033062,0.20253154851002364,0.0590645962112258,-0.0020981326779087105,-0.7917307953101358,0.6,0.4,0.6662350691989216,Stairs up
-1.09830729166321,-1.455078125,-0.75207519531,0.053130586817956904,0.229073467794428,0.26298918546987654,0.00769042968,0.50561523437,0.019550991347846887,0.13895906262023078,0.07517270688555555,-0.09558105468,0.2421875,0.008985394280145095,0.09420437084638407,1.1466076558965432,0.77457957284,1.49361081173,0.047630810812857347,0.21689346719406752,972.0696835372145,971.99641833558,972.20428197507,0.0029533922073424783,0.20786363949002862,0.05400861574927712,0.0009412132294048161,0.8879999441594095,0.47,0.53,0.9501206604330903,Stairs up
-1.1026132317998734,-1.54223632812,-0.72985839843,0.05981661166049646,0.2430214792173657,0.2280227081649367,-0.05346679687,0.41455078125,0.018457288712768933,0.13499500785875201,0.048826579805316454,-0.08337402343,0.21130371093,0.006754495964792353,0.08166392113945381,1.1374740639992402,0.73416018895,1.56009095446,0.061011467585547555,0.24543669352299924,972.0508653351789,972.01383961833,972.12583346718,0.0008002891758765884,0.11199384884992014,0.028109765796675953,-1.396103075176492e-05,1.3459812108865528,0.65,0.35,1.3057210936329007,Stairs up
-1.188104248043875,-1.65368652343,-0.71105957031,0.07452964816671151,0.2712895640540336,0.274102783199875,-0.01171875,0.48388671875,0.01951535438426358,0.13882151293823405,0.07113189697112501,-0.12121582031,0.33288574218,0.02352947532019146,0.15243148257065883,1.23947384526325,0.7140731097,1.66087251358,0.07249941321455534,0.26756900147321516,972.0579935775288,971.96339216984,972.23208137001,0.00495534759809509,0.26868920017000164,0.06995288237891918,-0.0005628423006076914,0.5692422441961451,0.68,0.33,1.0929419895181092,Stairs up
-1.1093410057322783,-1.55615234375,-0.72729492187,0.07115208909211145,0.2650498627362691,0.24665620054999993,-0.033203125,0.49523925781,0.021056949487649714,0.14418878535881036,0.016626285600886075,-0.17687988281,0.24560546875,0.013547254440928733,0.11565366491166311,1.151335616075316,0.73309986523,1.56940571618,0.07150217741825157,0.2657011226262621,972.0572787090158,971.99132001581,972.18149025666,0.0037800163621143287,0.1901702408500796,0.061091472839776374,0.0008354193615972009,-0.32421158720552556,0.66,0.34,0.9208767157516159,Stairs up
-1.209189390521795,-1.51086425781,-0.84216308593,0.03273812110315896,0.1797731948924433,0.2314171424239744,-0.02502441406,0.46545410156,0.020588483486261036,0.14256412090624523,0.13938708182615386,0.00756835937,0.26489257812,0.004402357929726305,0.06592357274486693,1.2475441950316668,0.84323101506,1.5652094952,0.03620817091375014,0.1890607404892488,972.022770063903,971.98072995389,972.06908763389,0.0004928490896570743,0.08835768000005828,0.022057436650357802,0.00017167741452960283,-0.012877875212316425,0.58,0.42,0.3253165866094001,Stairs up
-1.1342588014202528,-1.41381835937,-0.85852050781,0.02450656091873075,0.15555176401072437,0.2610512262620253,0.10327148437,0.48681640625,0.009696499596729143,0.09784558802268359,0.13006823575772153,-0.14721679687,0.484375,0.029430832946044518,0.170464925298004,1.1866120707393675,0.92001778007,1.47499748831,0.026727028819289067,0.1624460279563392,972.02064043975,971.9259222636,972.12642874968,0.0032500205758398326,0.2005064860800303,0.05664698645894444,-0.0011786105223575457,-0.8850719132283507,0.48,0.52,0.08171726513177016,Stairs up
-1.1223676632573074,-1.43310546875,-0.86010742187,0.02376744677086884,0.1531755069024812,0.28759452623782045,0.05200195312,0.55529785156,0.02243863877337328,0.14883199896965837,0.11246588290974359,-0.06872558593,0.27905273437,0.009536582344819848,0.09702741091363928,1.1746464214805126,0.87577319894,1.53024804167,0.03069569522493049,0.17407515810926244,971.9393202323093,971.87789305301,972.0758889512,0.003257363485500215,0.1979958981900154,0.05670628197275227,-0.0008329606581779473,0.32050742037247115,0.56,0.44,1.0889651819201804,Stairs up
-1.1857434557590907,-1.32922363281,-1.08288574218,0.0052272011402852035,0.07182837469406217,0.2758915888746753,0.04821777343,0.54895019531,0.02697946781552964,0.16318420608817097,0.12634118810597403,-0.05187988281,0.2314453125,0.005252870091033201,0.07200452068406442,1.2351352954861035,1.09118136148,1.42857589135,0.009604393249894634,0.09736355000730958,971.8626076978726,971.81560427808,971.94562937777,0.0014043898219219262,0.13002509969010134,0.037231048777408855,-0.001289010544949292,-0.4822772673035667,0.56,0.44,0.7098595596657767,Stairs up
-1.1425226384905192,-1.3603515625,-0.78686523437,0.019035319962996494,0.13706971954237418,0.2539014940094805,0.02502441406,0.55944824218,0.026715044693639032,0.1623825608286004,0.13554085074753247,-0.08508300781,0.27905273437,0.007521508071750349,0.08616162805298311,1.1908540313209088,0.8119410371,1.42765253148,0.02293989740148814,0.1504725112969617,971.7844304029813,971.72803157389,971.82232438394,0.0007666112139623543,0.09429281004997847,0.027507366725490746,-0.0008665051051236196,-0.870387313795578,0.53,0.47,-0.35155489019760966,Stairs up
-1.121704101558701,-1.46691894531,-0.91394042968,0.025498390982123424,0.15864187041033856,0.1899445769048052,-0.00708007812,0.3798828125,0.011545668689010106,0.10675076083945342,0.13494952313207792,-0.23645019531,0.55261230468,0.04859378605323426,0.21900387650147377,1.1700986688672723,0.96985086833,1.58034978919,0.028272351968931853,0.16704843179969675,971.7352271832117,971.63304210592,971.83789711552,0.002854949841381209,0.2048550096000099,0.053083637504544846,0.0004722005450902134,-0.005816862468811745,0.55,0.45,0.14899581907936155,Stairs up
-0.9270260459457894,-0.95874023437,-0.90063476562,0.00027525942316959044,0.01648143163242202,0.3013482344746053,0.26965332031,0.34533691406,0.0004448686854135388,0.02095268837355126,0.20317961039934213,0.17980957031,0.224609375,0.0001229478497228278,0.011014995000364446,0.9959546607009211,0.96531416355,1.03593228599,0.00038131636886847215,0.019398429014367786,971.595977067979,971.48146651567,971.66325002002,0.002672020438529711,0.18178350434993717,0.051350387290310155,0.002026817479810567,-0.5956363429988607,0.49,0.51,-0.69173779826931,Lift down
-0.9204638671836,-0.93530273437,-0.89819335937,7.86053328898949e-05,0.008806660081137247,0.24620117187120003,0.22937011718,0.27514648437,0.00016913782903874017,0.012918307086646078,0.22306152343346672,0.1953125,0.24499511718,0.0001530357953418523,0.012288015220963375,0.9787423047007998,0.95615353721,0.99448442041,8.526414128655653e-05,0.009172092785695227,971.6795645046525,971.57862430148,971.81146091891,0.003546861613956213,0.23283661743005268,0.05915716461909014,-0.0006416647508107659,0.08319076840953743,0.64,0.36,0.8095152749941752,Lift down
-0.954514723553956,-0.96118164062,-0.93530273437,3.22791501088695e-05,0.0056501711632133056,0.24301382211164832,0.23205566406,0.26220703125,4.450151554344503e-05,0.006634190824818839,0.22324916294219785,0.21362304687,0.23852539062,4.1179051474729495e-05,0.006381734437091271,1.0099923552656045,0.99448442041,1.01798016299,2.666273254042076e-05,0.005135147074771766,971.792637331492,971.60469830336,971.94641048455,0.01143829446681203,0.3417121811900188,0.10636070196844645,0.004001504196245886,-1.0544766460188404,0.45,0.55,-0.33829218907277403,Lift down
-0.9601459703906312,-0.96691894531,-0.95288085937,8.929239673312845e-06,0.0029724144523857465,0.24490517063705275,0.23449707031,0.25463867187,2.1657477831993655e-05,0.004629201268159613,0.22101151315484216,0.21118164062,0.22961425781,2.76609437609935e-05,0.005231613129038731,1.0152599609061053,1.00764500164,1.02230286492,9.866174127499749e-06,0.0031244711013225504,972.0863805281786,971.97044916878,972.20330208362,0.005495129128474497,0.23285291484000936,0.07373795267000732,0.002680409559695094,-1.2644417517734325,0.54,0.46,0.0026214112639828748,Lift down
-0.9558866613021176,-0.96142578125,-0.94873046875,1.238924281247213e-05,0.0034990694498221006,0.23352194392929415,0.21044921875,0.26403808593,0.00015190828915034733,0.01225239294209103,0.24137465532682348,0.21423339843,0.25793457031,8.272044465151082e-05,0.009041419299519758,1.013279160769294,1.00212759688,1.02234592902,2.3259659376786508e-05,0.004794373402781108,972.3446870051554,972.23159989591,972.47591914799,0.004085768379887638,0.24431925208000393,0.0635429029600855,0.0024697678531544775,-0.06602692595820514,0.49,0.51,0.3598989057528842,Lift down
-0.9615076765191136,-0.97021484375,-0.94946289062,2.5461011033109853e-05,0.005013852785454488,0.2337847359539241,0.22338867187,0.23974609375,1.473053540682685e-05,0.003813669221802372,0.22079738182050632,0.20886230468,0.23156738281,3.935394736471144e-05,0.006233441756545636,1.0138841399141774,1.00188207095,1.02154652422,2.156093136782906e-05,0.004613892953456745,972.5608799937436,972.50638202434,972.6665797022,0.002628249495086594,0.1601976778599692,0.05094095124883448,0.0018193296582628485,-0.6855428055801007,0.61,0.39,0.7948271728378246,Lift down
-0.9594911517485858,-0.97827148437,-0.94787597656,5.229406321323108e-05,0.007194848181337211,0.21810882259848485,0.19384765625,0.24145507812,0.00017006249554084502,0.012974771387411184,0.2343318438250505,0.21350097656,0.24926757812,0.0001490600598955228,0.01214719731974668,1.0116348639041415,1.0009554456,1.03273092487,6.940999033366479e-05,0.00828908193470142,972.8289073618722,972.68137318127,972.9588786016,0.006299277526040218,0.27750542032993053,0.07896612223048957,0.002737271148316569,-1.1174371299220884,0.47,0.53,-0.24879560581767574,Lift down
-0.9653467869982418,-0.97216796875,-0.95959472656,1.0595995576990893e-05,0.003237214244555931,0.1909528459783516,0.1796875,0.22021484375,7.949414706201364e-05,0.008866824967618743,0.2547124506323077,0.24536132812,0.26318359375,1.8116791757724708e-05,0.004232931151579653,1.0165296553670329,1.01035456204,1.02243981253,1.0433318663391803e-05,0.003212268172171797,973.059556436527,972.9588786016,973.17650532633,0.003999214515189722,0.21762672473005296,0.06289091431148772,0.002375121594572048,-1.0744947586806854,0.53,0.47,0.21229423978064046,Lift down
-0.9586843467575904,-0.96716308593,-0.94970703125,2.136255952927608e-05,0.004594037363146234,0.20646354950771087,0.18530273437,0.22998046875,0.00018317722464722942,0.013452519099908663,0.2606451195363856,0.23889160156,0.27587890625,0.00010938570230854937,0.010395566472334998,1.0148520895740964,1.00390328878,1.02477064735,2.442616139119518e-05,0.004912420003429719,973.2877165127813,973.17650532633,973.39504649402,0.004736741106753747,0.21854116768997756,0.06840812771003793,0.0028082765433330922,-1.459252441175427,0.49,0.51,-0.06957674737062251,Lift down
-0.9601633172256577,-0.96984863281,-0.94738769531,3.988526368389508e-05,0.006273791324453755,0.2035361842069737,0.17578125,0.23767089843,0.00022770160120849485,0.014990181036544658,0.25793296412052635,0.23840332031,0.27709960937,0.000126711326216507,0.011182310670169403,1.0150058170303946,1.00759642894,1.02397550754,2.2586651759691522e-05,0.004721171356070418,973.5171748275455,973.40494399714,973.64554875335,0.005015852120792938,0.24060475621001842,0.07035519928599433,0.0031544406841935457,-0.8777950392708695,0.45,0.55,0.10566599358661913,Lift down
-0.9878609572751899,-1.02160644531,-0.9619140625,0.0004655870668824126,0.02144046547318145,0.19703693630835448,0.18200683593,0.21936035156,8.300381102217581e-05,0.009052796798227406,0.24492867385000003,0.22534179687,0.26538085937,0.00016738084547779185,0.012855430782292988,1.0367538048501264,1.00969137217,1.07343222521,0.0005381493864435204,0.02305075636272273,973.7726817693859,973.66403687073,973.8908790112,0.00573155413080942,0.22684214047001205,0.0752263438743231,0.0032674533169603044,-1.4740059158502412,0.52,0.48,0.061794088642414834,Lift down
-0.9930310058559,-1.01831054687,-0.95812988281,0.00044683558021651673,0.02103252777044052,0.18464111327820004,0.17565917968,0.20617675781,7.185164726214946e-05,0.008434045932381918,0.26029052733979996,0.23889160156,0.27331542968,8.532179124528303e-05,0.009190678611116276,1.0430971974627,1.00598788134,1.07133343308,0.0005053368694360873,0.022367018145960503,973.9709948955636,973.90829176464,974.03460605064,0.0014715938764793674,0.12631428600002437,0.03816907043293789,0.0013073633615181474,-1.3406152259413446,0.45,0.55,-0.20444113746573692,Lift down
-0.956983244817191,-0.98181152343,-0.90051269531,0.00033267303556995526,0.018136569033140978,0.20533186665651687,0.17077636718,0.31176757812,0.0016992042093960324,0.04098916963379457,0.2760805279980899,0.23889160156,0.37963867187,0.0013353787704801507,0.036336957971630744,1.0185561535667416,1.00464304741,1.03492813475,7.215874819637155e-05,0.008446773096557461,974.0473156325684,974.01150518239,974.10707291518,0.0005178093048447767,0.09556773278995934,0.022627223045877044,0.0005186567305869373,1.4847233258410508,0.61,0.39,1.1640208739170088,Lift down
-0.9755408245551085,-1.25219726562,-0.69567871093,0.028253438616166717,0.16717157659875295,0.2328531016443478,0.14282226562,0.44970703125,0.00815587071633592,0.08981770397688918,0.20044476052510873,0.07775878906,0.26403808593,0.002055575858442965,0.04509138102332112,1.0270640463033691,0.71939545135,1.28730621916,0.029586393982930857,0.1710695845087196,973.9193070504709,973.6984858363,974.09188192347,0.013299210842013673,0.39339608717000374,0.11469374090344499,-0.0008055571921552204,-1.4616979354778719,0.39,0.61,-0.12931243792602495,Stairs up
-0.9489219263946315,-1.26049804687,-0.64501953125,0.029248838301826705,0.17012041556905044,0.2380139802595789,0.13696289062,0.35400390625,0.004024118912705581,0.06310118672621022,0.20383043790884212,0.11376953125,0.36437988281,0.00454978333477398,0.06709613162186376,1.0041206121567365,0.70180881016,1.28862769567,0.028112649918552442,0.1667834742647809,973.8717956919995,973.6944965371,974.07222960063,0.013191734402713385,0.37773306352994496,0.11424917522931866,-4.343487333806706e-05,-1.182567513281059,0.43,0.57,-0.2623441984937556,Stairs up
-0.9620249079524136,-1.22106933593,-0.6484375,0.03248160683543217,0.1791877647405817,0.23972645024724132,0.06066894531,0.47131347656,0.016622889136939316,0.1281866664115661,0.1733833400635632,0.05834960937,0.27478027343,0.003101176292789558,0.055367233886792065,1.0149950741048277,0.68622186366,1.2638288987,0.03481323582660908,0.18550763782300458,973.8559363155815,973.58303544361,974.18086906255,0.026410564874928728,0.5978336189399442,0.16157659225185636,-0.0009365593784026825,-0.6517942523800615,0.53,0.47,0.18833894010895727,Stairs up
-0.9551078600726922,-1.23840332031,-0.70263671875,0.03031480319543331,0.17299176822153975,0.2266391851924359,0.11328125,0.47668457031,0.007370868715818456,0.08530164358879018,0.18636693709538465,0.0859375,0.25366210937,0.002017403150944358,0.04462666252346833,1.0039754509660257,0.74486253419,1.27024439808,0.029940183521999734,0.1719195597228757,973.7706679396431,973.48343249261,974.08384510194,0.04481045743614753,0.6004126093300783,0.2103234756086309,-0.0009534552529162847,-1.4472889785103953,0.5,0.5,0.20296654385437765,Stairs up
-0.9779117838502667,-1.29357910156,-0.62292480468,0.02892922384266909,0.168948219458212,0.27372395832946667,0.10900878906,0.47668457031,0.009547098058605633,0.09705567174474773,0.16709798176773336,0.09680175781,0.27563476562,0.0021120017176257835,0.045649114939110336,1.0350345497132003,0.65331551132,1.30903264556,0.028285768316114672,0.1670587463695525,973.5623720011118,973.24879199318,973.95307959299,0.043710448029736455,0.7042875998099589,0.2076719577988483,-0.002278226131529677,-0.8370986174215522,0.64,0.36,0.36248515312717733,Stairs up
-0.9683837890582222,-1.25109863281,-0.62292480468,0.02219622356170138,0.14815397009685652,0.2404581705694444,0.126953125,0.40588378906,0.006117863685127648,0.07778102224810088,0.19407009548277776,0.08068847656,0.30212402343,0.003802512662332697,0.06132097945760579,1.0209808198925556,0.65331551132,1.26748140786,0.02286243796538237,0.15036093534185707,973.5732659650724,973.24879199318,973.89157492829,0.017008092173647467,0.642782935109949,0.12968852444113185,0.0024760046928587382,0.6242516541352887,0.58,0.42,0.3809898167876171,Stairs up
-0.9907430012976041,-1.27758789062,-0.66381835937,0.029993773029522407,0.17228272662631683,0.23372268676427085,0.10302734375,0.38928222656,0.009176611532720366,0.09529439558155836,0.10837300618104166,0.01745605468,0.20837402343,0.0028800085710116077,0.05338547069877943,1.0298615515887501,0.68683427309,1.28792325742,0.029244884373834597,0.17011834163783504,973.6343899460261,973.05916021955,974.31833395212,0.11490754775205732,1.2591737325700478,0.33721001487150415,-0.004979365443987398,-0.5327805826778027,0.55,0.45,0.6171688400944803,Stairs up
-0.9580844612977907,-1.28100585937,-0.68408203125,0.03294216641457849,0.1804414530198018,0.24557424145674414,0.07153320312,0.35180664062,0.006993607979111795,0.08314016451811282,0.0869907112982558,-0.02905273437,0.16748046875,0.0026770020394875425,0.05143806089653678,0.9984426132770928,0.72391268817,1.29459528307,0.03139460749954071,0.17615207612731865,973.3278242195415,973.05051303812,973.69961191805,0.03776706352213216,0.6490988799299657,0.1932043260921246,0.0007519461148967011,-0.8323460281334523,0.65,0.35,0.4718259691155592,Stairs up
-0.9852959355175948,-1.19018554687,-0.73156738281,0.020496342731288635,0.14225644222650588,0.26648876334708865,0.13098144531,0.3828125,0.0046442192227610715,0.06771581526986757,0.13582717315772155,-0.041015625,0.23974609375,0.005373284355914857,0.07283727135364867,1.0346902364860757,0.7890175816,1.24102338188,0.020071137145050814,0.14077312285339938,973.3558210661654,973.06568635681,973.7978967638,0.054640564884849696,0.7322104069900206,0.2322690512418482,-0.004963253804594811,-0.7396189374804574,0.61,0.39,0.7567658066927443,Stairs up
-0.9865809849289795,-1.2138671875,-0.74682617187,0.02304147268401683,0.15101773278596317,0.277962820867449,0.20068359375,0.32958984375,0.0014457933835492316,0.03782909448876018,0.10568673269765307,0.05725097656,0.17041015625,0.0008320999668276258,0.02869859144347661,1.0318213492079595,0.7860454724,1.26045523405,0.02240943121654685,0.14893207697159092,973.3490396758245,973.14861047543,973.56875627761,0.015411614326433482,0.42014580217994535,0.1235085136974597,0.00030933383634316347,-1.0997262986887333,0.44,0.56,0.016993140448151117,Stairs up
-0.9791113811944566,-1.20092773437,-0.73657226562,0.018440555361090006,0.135055968183371,0.24662979789065215,0.18811035156,0.30480957031,0.0013362942018883643,0.036356144802650855,0.14443704355923914,0.02014160156,0.25012207031,0.0033664202634893104,0.05770466825904266,1.0223419435185872,0.79322428414,1.23767792959,0.01825449503762831,0.13437290133544882,973.4528060633415,973.27519407697,973.71799551351,0.012704369829264758,0.4428014365399804,0.11209941504245108,-0.0003665598309964931,-0.5972849129696574,0.46,0.54,0.32806683696433936,Stairs up
-0.9799392883997591,-1.29833984375,-0.70581054687,0.03145647604189484,0.17628806639884362,0.2595803134375904,0.09692382812,0.44775390625,0.00890897372937345,0.09381703841248365,0.14203689758795182,0.0380859375,0.21813964843,0.0028658201027968165,0.05320988770661964,1.0291774022193976,0.76701094271,1.33357712881,0.031723930340419204,0.17703591249297804,973.3680704232709,973.18041941121,973.59556215071,0.017299484924523875,0.41514273949997005,0.130732770931059,-4.757028641522685e-05,-1.4604184404498446,0.52,0.48,0.12418748384040958,Stairs up
-0.9505342182325,-1.23779296875,-0.65161132812,0.02940894190420342,0.1703583932253002,0.30232640316223686,0.14123535156,0.52819824218,0.013442316274961747,0.1151757079092482,0.2285124126193421,0.06958007812,0.42041015625,0.010671194384014471,0.10261960792944606,1.0328202657742107,0.70233865848,1.28882529648,0.031404556554080275,0.17604357047243868,973.3144881569334,973.07593678073,973.67494895651,0.029479944521308945,0.5990121757799898,0.17056391914601873,0.0008117320330279876,-0.6521821058916077,0.57,0.43,0.6004532378069842,Stairs up
-0.9429801432249332,-1.18469238281,-0.66003417968,0.029286525367588634,0.16998834772621166,0.2909309895812,0.19482421875,0.39587402343,0.0032549770189537687,0.0566707801725697,0.17542805989199997,0.0595703125,0.37329101562,0.0054013856251987685,0.07300251468405809,1.0074676410841334,0.72136483144,1.25626627142,0.027439186235924187,0.16453975331039364,973.2172476357346,972.99896676234,973.50932693444,0.02072007098261656,0.5103601720999222,0.14298182880882104,-0.0006152476782781042,-0.8959585730944877,0.63,0.37,0.25608915865603904,Stairs up
-0.9989529079824444,-1.24499511718,-0.70690917968,0.02965391384708438,0.17124376168330954,0.16798366970044443,-0.001953125,0.36022949218,0.008820442948273277,0.09339399352541787,0.13470730251377777,0.07702636718,0.29040527343,0.0027296078432596763,0.05195458466029208,1.026934562010889,0.72931511707,1.27861784174,0.030764862971374013,0.17442199161969504,973.2332766705385,972.86622028874,973.78042188394,0.04559931416571262,0.9142015951999838,0.21235031226590395,-0.006159649461037862,-0.28801828434564714,0.52,0.48,0.3488754459860716,Stairs up
-0.9833246866819793,-1.26928710937,-0.67614746093,0.027344473876334277,0.1644981325328319,0.23150634765260417,0.0498046875,0.38891601562,0.009740724688960294,0.09817972706614958,0.1881116231253125,0.06860351562,0.28234863281,0.0028726359714671213,0.05331709557072358,1.0336288298495833,0.72633179724,1.29742078901,0.027346519979002296,0.16450428686173404,973.1845656994592,972.94792678417,973.49425034451,0.019811132679057424,0.5463235603399426,0.14001702294239288,0.0028622043220079274,-0.6912576924441787,0.56,0.44,0.16374703838575838,Stairs up
-0.941599291421279,-1.166015625,-0.70837402343,0.01644746046402749,0.12749984675970438,0.2827673623697675,0.056640625,0.42028808593,0.009112947316778964,0.09490512532574565,0.23871843204441853,0.10339355468,0.32116699218,0.0024879327469830596,0.04958833831090476,1.0163856615829068,0.73990362019,1.23261682627,0.01845001565095827,0.13503881140342378,973.0902966433828,972.78836790238,973.50272355957,0.03119212880919936,0.7143556571900262,0.17558311318859615,0.0004499959647178779,0.08116899027529678,0.51,0.49,0.7300361246042741,Stairs up
-0.9402257219099998,-1.23120117187,-0.67175292968,0.026072304111899276,0.16044399317495767,0.29930558988911393,0.06176757812,0.45349121093,0.014805250133713331,0.12090426751844889,0.14607798901911395,-0.0107421875,0.2490234375,0.006185905949054774,0.07815115701065925,1.0040650689467085,0.72456189023,1.25710922032,0.028383798322687406,0.1674052261320544,972.9232094041321,972.69731709187,973.13347324252,0.01679703025625438,0.4361561506500493,0.12878047064714146,-0.001723843734996478,-0.8318578466850375,0.51,0.49,-0.07541527116037687,Stairs up
-0.9663335060545918,-1.14733886718,-0.74597167968,0.01666467950492495,0.12843142822095646,0.30104905731377546,0.18212890625,0.41259765625,0.0038870384577613507,0.06202721015835786,0.16583376514346937,0.0283203125,0.24890136718,0.003437556324735028,0.058330774205221966,1.0296592524943877,0.81534270776,1.1811234911,0.01563769534254231,0.12441112097686625,972.9176699720963,972.66488752063,973.37045690407,0.026044129882378933,0.705569383439979,0.16055644943448308,0.0033861916912291228,0.6030012879216691,0.53,0.47,0.6433002600350752,Stairs up
-0.9803798509641303,-1.14575195312,-0.75134277343,0.01802068100643997,0.1335095653463776,0.267586086103913,0.1923828125,0.33203125,0.001962240516636744,0.044055780725904214,0.1332437266428261,0.02160644531,0.22741699218,0.002910186121477569,0.05365215432427128,1.0276765243425,0.81097803253,1.19501654383,0.017213187034419,0.13048404950548256,972.9694318132296,972.70643435409,973.15035864868,0.016303538033722927,0.44392429459003324,0.1269894706808055,-0.001160342062574802,-1.2755796368092989,0.45,0.55,-0.15837064180103552,Stairs up
-0.9786435782151807,-1.21667480468,-0.74584960937,0.020998639996116307,0.1440334833763056,0.2436229292137349,0.09973144531,0.39270019531,0.0058939033857917334,0.07630787968241266,0.14604021554530122,0.02221679687,0.22485351562,0.003726808246438706,0.060678719022938726,1.0246160522454215,0.81564651621,1.24339476884,0.019065220083143805,0.13724255402883953,972.9177803369295,972.71869790123,973.17933118826,0.013289284792745285,0.46063328702996387,0.11458260307643761,-0.000218366710318795,0.02245753368261827,0.51,0.49,0.6389158773136346,Stairs up
-0.9843814247493422,-1.23327636718,-0.75891113281,0.020438730674754962,0.14202042109493224,0.3078902395109211,0.20031738281,0.5009765625,0.00765649591633714,0.08692383188180854,0.11672491776039474,-0.00402832031,0.20861816406,0.0036681375168687792,0.06016537666749505,1.0465711982789472,0.83831492709,1.28232997642,0.019057594941870728,0.1371380221298536,972.9205327832979,972.49251190529,973.44528792765,0.0458300822832733,0.9527760223600126,0.21266653447312575,-0.00464935536341221,0.006143917689548584,0.47,0.53,0.274052923091883,Stairs up
-1.003033854162,-1.22546386718,-0.75512695312,0.01979964717549862,0.13976999635052334,0.2502360026002666,0.04956054687,0.44006347656,0.012485387491827071,0.11099061067767269,0.15890136718373332,0.03527832031,0.26770019531,0.0041650833955330455,0.06410576378344829,1.0540829388338666,0.81833200704,1.25169273441,0.019072184426403863,0.1371783096340373,972.895994663965,972.63856227821,973.21642157825,0.02043709194677624,0.5778593000400178,0.1420021034614836,0.001318651829567559,0.4258554785617563,0.64,0.36,0.6130603559209785,Stairs up
-0.9104327466080722,-1.24780273437,-0.64233398437,0.034901323145897334,0.18569013241599472,0.36876853115228914,0.18591308593,0.58117675781,0.012044901129509815,0.10908612120152053,0.22614775507855425,0.06530761718,0.41125488281,0.009126402597611615,0.09495496795749586,1.019599572114458,0.75480604089,1.35150157372,0.032222815078854494,0.17842249967747187,972.9205028742588,972.58321826119,973.35229227005,0.04039121044655479,0.7690740088600023,0.19976128092510134,-6.179262297136543e-05,-0.6871200879724082,0.45,0.55,0.013936774806484553,Stairs up
-0.9635919064858163,-1.23620605468,-0.67065429687,0.024560195671853777,0.15591530210439336,0.27711081991061226,0.13916015625,0.45239257812,0.008750071564463096,0.09306333929065601,0.19124805683510204,0.12365722656,0.27673339843,0.002047957590248102,0.04502288377944042,1.0260978800587754,0.7209448887,1.25636108841,0.0242435381959015,0.15490692416120777,972.8032179901064,972.51558014805,973.03377768517,0.021680404875922817,0.5181975371199314,0.14648950902620955,-0.0013126247445397795,-1.1699601030822069,0.52,0.48,-0.1274415329316312,Stairs up
-0.9743097478659091,-1.22729492187,-0.68969726562,0.025742260515307983,0.15952973023118303,0.27080882679056817,0.06091308593,0.41198730468,0.011899519223224561,0.10846334594631375,0.1849462335714773,0.10961914062,0.25524902343,0.0014695978101007799,0.03811689697478007,1.034678086200682,0.72811895212,1.26637418378,0.025216756832367303,0.15789301054022004,972.6785917390324,972.44138249993,973.00807906458,0.02434689218767667,0.5666965646499875,0.1551458119263013,-0.00359106215536033,-1.0864981661620627,0.41,0.59,0.11064880842365851,Stairs up
-0.9555814766545678,-1.23571777343,-0.69799804687,0.02873624055897648,0.16846801523438745,0.2864372347576543,0.10363769531,0.44018554687,0.009871719451095053,0.09874131035920024,0.16966567804382715,0.03002929687,0.23620605468,0.002895544322129606,0.05347706855618185,1.0186483994106172,0.72536521624,1.2694478521,0.027656684605080285,0.16527324058782258,972.6726624351595,972.37689424677,972.93966011361,0.025147110296985204,0.5627658668399818,0.1575964851929464,0.0016035792969055324,-1.2308359276986431,0.44,0.56,0.08123550747091868,Stairs up
-0.9623387113495743,-1.20068359375,-0.732421875,0.025961989590058694,0.1602678951363655,0.27421926944404257,0.16540527343,0.39453125,0.003907230374433694,0.062174464966371946,0.15248789685478725,0.01159667968,0.30053710937,0.004376124618744297,0.06579946885441867,1.0166716637487234,0.764472415,1.26235022553,0.02507103546579236,0.15749388027012115,972.5712716862575,972.32021422144,972.85530080807,0.018106935107455643,0.5350865866299728,0.13384434294443448,-0.000397590693847613,-0.5861296059043686,0.46,0.54,0.11655153348515736,Stairs up
-1.0047327677372917,-1.24816894531,-0.732421875,0.024682728076985513,0.1562869678705924,0.2357610066696875,0.09631347656,0.361328125,0.006839331821084426,0.08226839478974574,0.1834246317509375,0.06176757812,0.32836914062,0.004570402085602039,0.06725171916422423,1.0538465919835418,0.75624174357,1.30253911878,0.024090585364529002,0.15440091245514653,972.4447504490295,972.18314494386,972.68912927983,0.01403916239619285,0.5059843359699698,0.11786823626928719,0.0014246987272037855,0.024924311918812947,0.5,0.5,0.15519373915722595,Stairs up
-0.9341086902794251,-1.20593261718,-0.62280273437,0.025525708678740686,0.15884681214431196,0.32608909168057465,0.13806152343,0.49670410156,0.007027718388178188,0.08334830541708858,0.1428615526194253,-0.00415039062,0.29895019531,0.006936824076976653,0.0828075507843123,1.006286253937586,0.6880054025,1.26742093091,0.026026029298255236,0.16039600847965738,972.4982704375648,972.14162275866,972.79078070085,0.02932465396134444,0.6491579421899587,0.17025741973048636,0.0038598845371011635,-0.9557579377040866,0.6,0.4,0.09605641193118612,Stairs up
-0.9434548402397434,-1.18969726562,-0.72961425781,0.024186570012277548,0.15452017920437094,0.31176914312602555,0.22607421875,0.42053222656,0.003119178984651393,0.055490445217976,0.10903226411961538,-0.03637695312,0.24499511718,0.005852825477997358,0.07601177049589404,1.0033176670493589,0.78288449967,1.2735203792,0.025610532490299102,0.1590037494217261,972.4185238829601,972.12440734192,972.75463393417,0.03831477031693474,0.6302265922499828,0.19448278924591625,0.0013047906010242246,-1.1922219529430005,0.55,0.45,0.008548642692952755,Stairs up
-0.9883561197874665,-1.21484375,-0.74157714843,0.022404350901774554,0.1486796093049892,0.28519368489186664,0.19152832031,0.38977050781,0.0036109520669013536,0.059689245592004836,0.12159830728813333,-0.02319335937,0.23205566406,0.0036826320327742602,0.06027877132405131,1.0396261368496,0.80851264215,1.27706400406,0.021738713385079923,0.14645430643473362,972.3104609328202,972.06989109493,972.68950530808,0.04195547333375173,0.6196142131500437,0.2034602344996069,0.00042740067336726476,-0.910569043511428,0.52,0.48,0.49359278601171985,Stairs up
-1.0222055535531578,-1.26098632812,-0.7392578125,0.02450978325901688,0.155522622505126,0.27278378134842096,0.12292480468,0.44177246093,0.009208247941280558,0.09532621247148365,0.13374408922526315,-0.01770019531,0.29443359375,0.006989901797846215,0.08305377418136572,1.0740626777409208,0.82562066125,1.31529798747,0.021914670683075572,0.1470588989250059,972.4751638634477,972.17416653477,972.73443037765,0.022547177180858868,0.5602638428799764,0.14916602762325007,0.0022893662515483704,-0.9038146189628131,0.47,0.53,-0.0340622007026307,Stairs up
-0.992551293699901,-1.23742675781,-0.76989746093,0.017875054174795464,0.13303410630508083,0.2452416750428713,0.07043457031,0.4638671875,0.011773838692870929,0.10796881972377707,0.16428246828257426,0.08923339843,0.248046875,0.002067485159656995,0.04524394997744318,1.0427745635632673,0.85257789025,1.28278381719,0.01647698168868368,0.12772565621723167,972.4627622416905,972.3124255104,972.67270721401,0.012327828713521689,0.360281703609985,0.1104797311885163,-0.0016441655652510239,-1.06789654359544,0.52,0.48,0.4151837161396336,Stairs up
-1.0220160590234444,-1.24536132812,-0.75329589843,0.02319468518023243,0.1514495508610297,0.1898980034685556,0.07141113281,0.33471679687,0.007020106245601067,0.08331929587493157,0.20759412976933334,0.03039550781,0.34167480468,0.0060653990219797374,0.07744679269997755,1.0662661132636666,0.77990190543,1.28559293545,0.022881288808525947,0.15042291137392932,972.4531392406257,971.95403495502,972.9084748446,0.03915505207508804,0.9544398895800441,0.1967739717059154,0.0013986831975323318,0.5548835277392095,0.6,0.4,0.13683830250706588,Stairs up
-0.9941406249966264,-1.24279785156,-0.69348144531,0.02631080405008867,0.16122594831766682,0.2514280755790361,0.07824707031,0.45007324218,0.011252467855942673,0.10543669168777939,0.10541433311048193,0.03039550781,0.19055175781,0.001834842945331527,0.04257624224636914,1.0368092131598798,0.73733841774,1.28849437794,0.026918251643144254,0.16307647089107336,972.2024272470551,971.89717066521,972.92102878594,0.0652068740128322,1.0238581207300967,0.2538134137998341,0.004147946166189643,2.0403715399597626,0.66,0.34,1.4592049123100914,Stairs up
-0.9370796897159092,-1.28918457031,-0.69287109375,0.02409993158612602,0.15435695231246557,0.3266726407102272,0.16284179687,0.48132324218,0.006513794619380853,0.08024820388007944,0.13818636807068183,0.06042480468,0.19836425781,0.0009958689162787467,0.03137757517795641,1.002142077619091,0.77760611472,1.3264231212,0.022799574535730626,0.1501349008773808,972.1020374770709,971.8621396915,972.41284684616,0.02128045210627935,0.5507071546600173,0.14504698820344328,-0.0026307757396077116,-0.38657153644102005,0.59,0.41,0.39945097167971405,Stairs up
-1.0151341756153125,-1.2919921875,-0.72766113281,0.026514723106173713,0.16198311045852198,0.1601689656529167,0.04089355468,0.29943847656,0.0038021867147483195,0.061339877756125,0.1313273111940625,0.00695800781,0.36596679687,0.005222658316293191,0.07189058092336206,1.040531338993125,0.76296685497,1.31975894248,0.026134485827301934,0.16081744805814513,972.1046930060714,971.85800025482,972.38489120397,0.02110372925173916,0.5268909491500153,0.1445126248419155,-0.0008383247050431254,-0.5754407928944163,0.49,0.51,0.1194705907561318,Stairs up
-0.9604464125324137,-1.24560546875,-0.67858886718,0.02934816964062589,0.17032567145735933,0.1538156092829885,-0.09289550781,0.32690429687,0.013785060185034257,0.11673307679227077,0.19116491558505744,0.06237792968,0.36596679687,0.006525667939328361,0.0803160025266747,1.001271725394598,0.7157153668,1.2773271962,0.029543192645515533,0.1708906542750527,972.0021757937494,971.7875822532,972.30812101217,0.022335789057785545,0.5205387589700194,0.1485902279768922,0.0016054734503502372,-0.5852457709183723,0.55,0.45,0.5890663137249463,Stairs up
-0.9442289375920988,-0.95727539062,-0.93957519531,1.1124604460559892e-05,0.0033147041594613702,0.24253562644259258,0.23522949218,0.25561523437,2.5685172943460255e-05,0.005036672715486257,0.27225597993444445,0.2568359375,0.28625488281,6.669790563789207e-05,0.008116309179922296,1.0122267058143208,1.00456603518,1.02352614419,1.4641903645540929e-05,0.0038027804831469547,971.8849938938969,971.83298283822,971.8996310196,0.00024990013801626183,0.06664818137994644,0.0157103453535297,-0.0004987706536729778,2.9174518354108194,0.25,0.75,-1.9648958846982028,Lift down
-0.9602452328294736,-1.00793457031,-0.93884277343,0.0002597520304342778,0.016010441610403586,0.24271272357749996,0.20544433593,0.25415039062,0.00012533983379207363,0.011121628723020034,0.240660014900921,0.20922851562,0.26599121093,0.00018085141713784615,0.013359333562275389,1.0194693013944736,0.99807872833,1.05093347233,0.00014030238728819058,0.011766745652257677,971.8671310169528,971.83201539033,971.91222167215,0.0005384436751930972,0.08020628182009659,0.02305122317780963,0.0007988295999420667,-1.1868664097003292,0.34,0.66,-0.3625939377158751,Lift down
-0.915598276495946,-0.9423828125,-0.90283203125,0.00010159979404979102,0.010011334769146868,0.2387068464906756,0.23181152343,0.25012207031,8.70074444124224e-06,0.0029297042194832376,0.21289887299135132,0.20422363281,0.23156738281,2.2865456696717853e-05,0.004749364593148656,0.9698746868814865,0.9583768921,0.99903390082,0.00010294191016679346,0.010077241848474592,971.9047025312549,971.88569457795,971.94391181038,0.00022505738044748536,0.058217232430024524,0.014900203505170401,0.00040236496701293874,-0.5788972097889564,0.57,0.43,0.4957333874629009,Lift down
-0.9563790115617646,-0.96813964843,-0.9423828125,2.2262185829532786e-05,0.004695096282901325,0.2533545400538235,0.23937988281,0.27392578125,6.959985105638272e-05,0.008301656435642095,0.2164270737556862,0.20581054687,0.22802734375,2.487445110522769e-05,0.004962920907845437,1.0128017517693138,0.99618722065,1.0292893252,3.859700497169079e-05,0.006182119617264325,972.0204169597547,971.94391181038,972.10612368676,0.0023607050732907075,0.16221187638006995,0.04834832888431103,0.001634399665068993,-1.1343692302500954,0.55,0.45,0.13781939303062213,Lift down
-0.9556382920969999,-0.96130371093,-0.94812011718,1.0915316373513631e-05,0.003285427686082071,0.2516669379297778,0.24450683593,0.27172851562,3.510116229129936e-05,0.005891616872892499,0.22233886718399998,0.21130371093,0.23852539062,4.902240935350326e-05,0.006962594050800471,1.012964899204,1.00637330194,1.01841431306,1.15894838846184e-05,0.003385367312634771,972.2002794611913,972.10612368676,972.27647683836,0.003074419000575219,0.1703531516000112,0.055138541778484824,0.0021047146029400166,-1.365755018325457,0.47,0.53,-0.1292725911011586,Lift down
-0.9603971155639024,-0.96459960937,-0.95178222656,1.1633218982101527e-05,0.0033898894462695327,0.24677258002743901,0.23388671875,0.263671875,5.7893806612154066e-05,0.007562260546972613,0.2328535870770732,0.220703125,0.25183105468,5.964040574655406e-05,0.007675485895059324,1.018625614470488,1.01334349324,1.02492261832,9.686745068142799e-06,0.0030933176414210074,972.414342218431,972.27647683836,972.55691903456,0.0060304515931470124,0.2804421961999424,0.07718101774755019,0.003188973117162916,-0.7928927062381295,0.59,0.41,0.3956175987072431,Lift down
-0.9599256727384444,-0.97912597656,-0.95104980468,3.413747015121585e-05,0.005810177701870525,0.24322374131444444,0.2294921875,0.25671386718,5.024679738961475e-05,0.007049006996793325,0.22709418402333334,0.20812988281,0.23876953125,5.869929412326847e-05,0.007618863415505034,1.016021075083889,1.00770318377,1.03296794269,2.985438614332996e-05,0.005433476855728513,972.6711897554299,972.55691903456,972.7531894948,0.0027797448063963,0.19627046024004358,0.05242955991606163,0.0019203246908728793,-0.7117213264039894,0.43,0.57,-0.6776366325454328,Lift down
-0.9499664306608334,-0.95947265625,-0.93786621093,3.298309289631573e-05,0.0057131006478075555,0.26973724364895835,0.23767089843,0.32495117187,0.0005637759636637184,0.023619976659081495,0.22756958007364583,0.20495605468,0.24963378906,0.00011162632391936292,0.010510164114411798,1.0137378758617708,1.0059117572,1.02333124351,1.9037484861513587e-05,0.004340412161021058,972.8760214464091,972.7531894948,973.01259828389,0.005726420401836749,0.25940878909000276,0.07527795287677273,0.0027027646225791214,-1.0943886393041509,0.51,0.49,0.11203575644728894,Lift down
-0.9445374954540696,-0.95104980468,-0.93957519531,1.1645614201399819e-05,0.0033926685783876517,0.3061154387690698,0.287109375,0.32092285156,5.632851746332831e-05,0.007461470009463739,0.2161496184559303,0.20483398437,0.22546386718,3.6382699627730795e-05,0.005996636138777866,1.0162043894472093,1.00973152088,1.02429010824,1.0301766557726034e-05,0.0031909212736287718,973.1130556525462,973.01259828389,973.23368363875,0.004177618405642336,0.22108535485995162,0.06425761781638961,0.002563921042797668,-1.3081939325131446,0.55,0.45,0.13613809346700673,Lift down
-0.944088666862692,-0.94787597656,-0.93676757812,7.466826487017417e-06,0.002714976600693285,0.30532132661910266,0.298828125,0.31567382812,1.1922499449749621e-05,0.0034306918970816295,0.22010842347448717,0.20617675781,0.23083496093,3.199196441910527e-05,0.005619769659791826,1.0163744297246156,1.01025737247,1.02068072592,6.06032799654925e-06,0.002445941839818146,973.3412837022382,973.23368363875,973.45427753926,0.003961291234988311,0.22059390051003902,0.06253403433270845,0.002764830061869323,-1.244833027953129,0.47,0.53,0.025504338940010692,Lift down
-0.9420312499963999,-0.95080566406,-0.93493652343,2.0863623234442302e-05,0.004537118203366141,0.30811360676666666,0.30114746093,0.31506347656,1.4784099822305216e-05,0.003819290312524193,0.22384602864199996,0.21484375,0.23571777343,3.489976530249134e-05,0.0058680861529512435,1.0161250922226666,1.00726396581,1.02469572226,2.3634118489087554e-05,0.004828974726505933,973.5562355593858,973.45427753926,973.65804640572,0.004236688997674062,0.20376886645999548,0.06465446474172072,0.002964019658637639,-1.2909429351506867,0.45,0.55,-0.10311153424272751,Lift down
-0.9452049618641665,-0.95239257812,-0.93737792968,1.327690043252933e-05,0.0036219942150763906,0.3069428943419048,0.29931640625,0.31408691406,1.9072939185978015e-05,0.004341184214721248,0.21826462518238093,0.21008300781,0.22900390625,2.6386177751747957e-05,0.0051060803546396204,1.0175001688234524,1.00761356164,1.02299615938,1.7457982156232956e-05,0.004153329873165075,973.7776426672647,973.65804640572,973.87497037372,0.00391144810499485,0.2169239679999464,0.06216818516413403,0.0025503748211740634,-1.2620484321236545,0.51,0.49,-0.09890271001027141,Lift down
-0.9402827048747958,-0.955078125,-0.92126464843,5.424390110884557e-05,0.007327372783873996,0.31298703563163266,0.29663085937,0.33959960937,0.0001078486119562349,0.010331897982261785,0.2279563436660204,0.19348144531,0.25561523437,0.00034775651712853217,0.018552842942241105,1.0171145845649998,1.00355361058,1.02963084208,3.951575557300495e-05,0.00625400140528942,973.9891577331761,973.87497037372,974.08192588219,0.003049472956237418,0.2069555084700596,0.05493956575415757,0.0017998576832664156,-0.6979215893246642,0.51,0.49,-0.3501471560406195,Lift down
-0.9559506502970454,-0.99560546875,-0.93505859375,0.0004039483987869941,0.01998394545812977,0.29779746315386363,0.27209472656,0.310546875,9.075932734889578e-05,0.009472484962051652,0.24771673028727273,0.22888183593,0.26147460937,6.806547583871123e-05,0.008203170394570762,1.03156395047375,1.01224769845,1.07088672242,0.00032443421856250156,0.017909423946035695,974.195407854114,974.07597311462,974.31069542625,0.006022549051788331,0.23472231163009383,0.07716288612008784,0.0029942430329433323,-1.324633944258245,0.51,0.49,-0.09820531292626147,Lift down
-0.9589462280240001,-0.99536132812,-0.85827636718,0.0013650333557012613,0.03671471692325839,0.31879119872625,0.27770996093,0.37719726562,0.0007602436421407157,0.02739964592132454,0.275700378413875,0.23034667968,0.39172363281,0.0024881728629594043,0.04956884810213378,1.049495750015375,1.00360543015,1.06802281268,0.00033503566987905866,0.018189219994424456,974.4355156000241,974.31069542625,974.60092402183,0.003353347018369962,0.29022859557994707,0.057545027418885966,0.0019978420595119757,1.9461048923709594,0.54,0.46,0.4940636511277772,Lift down
-0.9588051653885105,-0.994140625,-0.79736328125,0.0020293271996915667,0.044807796335691465,0.24220308344085112,0.19641113281,0.37719726562,0.001732996789961547,0.04140725363868179,0.14284953664819153,0.04113769531,0.38159179687,0.010740618280776857,0.10308421986013595,1.0062373878356383,0.95840461438,1.02532443604,0.00021290888435768077,0.014513576272794244,974.5823854893326,974.37489778458,974.7927292809,0.017998150548139105,0.41783149631999095,0.1334416758792274,-0.002002033764133102,-1.2515737534360447,0.47,0.53,-0.2813883743775563,Lift down
-0.9807726271564892,-0.98999023437,-0.96997070312,3.35227240427188e-05,0.005759001590454728,0.22915844206755323,0.20959472656,0.25,8.705712633255622e-05,0.009280678137438046,0.07619265292223404,0.0400390625,0.10375976562,0.0003381777316772815,0.018291530724187797,1.0102750118618085,0.99984946458,1.01870643019,3.24812459210265e-05,0.005668835925624755,974.5014837352562,974.38609443436,974.75540804253,0.008504423873217204,0.3693136081700459,0.09172759278876381,0.0027185457938833507,2.7067895749114976,0.74,0.26,1.8878396638837223,Lift down
-0.979848345584588,-0.98950195312,-0.96594238281,5.771794905416813e-05,0.007552411161967628,0.2509607651608235,0.22985839843,0.28210449218,0.00015466475351372968,0.012363056587198573,0.06813246782717648,0.03186035156,0.0869140625,0.00018704333225949,0.013595691319980823,1.0139376674383531,1.0005430967,1.0269398421,5.186277262222127e-05,0.007159093682588425,974.54457505166,974.22076008425,974.87598321278,0.019692102804533214,0.6552231285301104,0.13950064876850152,-0.001043958577325143,0.2517777823785763,0.4,0.6,-0.3321328597367792,Lift down
-0.9865009258276622,-0.99743652343,-0.97521972656,2.8336264044113954e-05,0.005288502681758762,0.2008912718111688,0.17980957031,0.22985839843,0.00013512453944605207,0.011548578929781882,0.07680917714584416,0.01977539062,0.10400390625,0.0005512051767799504,0.023324807994720993,1.009998958094156,0.99300234667,1.01873240835,4.915709794127645e-05,0.0069655361654297095,974.3811787380258,974.18029024407,974.87598321278,0.0112037099234302,0.695692968710091,0.10515801061807838,0.002381790889455146,4.535244605880519,0.4,0.6,0.8660571280734591,Lift down
-1.0056518554657998,-1.32238769531,-0.62475585937,0.0437765797280682,0.20817976349969156,0.1509887695272,-0.02954101562,0.41735839843,0.013473389575886362,0.11549309797614529,0.14542602538599997,0.05310058593,0.23803710937,0.00262738961614836,0.051001134497056795,1.0351057386626001,0.65120712212,1.3493145622,0.04355220899192395,0.20764558002039127,974.3869762375375,974.18569151105,974.56467240842,0.010845911616496421,0.3789808973700701,0.1036216796830251,-0.0013090869189472105,-0.5348956160877516,0.48,0.52,-0.16429195001309052,Stairs up
-0.9962565104129999,-1.23083496093,-0.66394042968,0.028166041615497565,0.1668924372089628,0.24515652126288887,0.10107421875,0.49060058593,0.008472041409875685,0.09153091071562995,0.21445448133299996,0.0791015625,0.38464355468,0.006061279001395998,0.07742048473715495,1.055346219578,0.72781602336,1.26831132817,0.027393128612682133,0.16458663529274078,974.3382134102244,974.16064184787,974.48375772698,0.012308808037532665,0.3231158791099915,0.11032698447697328,0.0008874382109932373,-1.3976980126820593,0.47,0.53,-0.17594650174242774,Stairs up
-0.9581504729819276,-1.30993652343,-0.66149902343,0.040759604449906596,0.2006701893112701,0.22566829818819278,0.10327148437,0.35302734375,0.0062704490120629106,0.0787076961523098,0.19314023672445785,0.0537109375,0.36450195312,0.006307809730607037,0.07894182682842704,1.0093350388896387,0.70383559453,1.34696293563,0.04071016221075514,0.2005484438451165,974.2777001925808,974.04082718331,974.56282420294,0.01581833567718866,0.521997019630021,0.1250110127934022,-0.0005039421394978891,-0.4231174658481023,0.47,0.53,0.10032969640773219,Stairs up
-0.981803385412,-1.25866699218,-0.6572265625,0.032280035166001426,0.17866552020074103,0.2338460286416667,0.11499023437,0.34875488281,0.004925698711595055,0.06979232569495492,0.17812906900677777,0.04382324218,0.28332519531,0.004046617950607813,0.06325863995482667,1.0295691395332223,0.72962821703,1.287964544,0.03148300843303237,0.17644601788711722,974.229046445778,974.0065463874,974.56121533623,0.02526053449027231,0.554668948829999,0.15805018786709757,0.00017027784382802217,-0.34440380845413454,0.56,0.44,0.5818094494040182,Stairs up
-0.9393945810705102,-1.20227050781,-0.63366699218,0.026973971457448696,0.16339745056377114,0.25739023636428576,0.05285644531,0.36889648437,0.006143074419197284,0.07797685545306589,0.13454141421795918,0.00024414062,0.22094726562,0.004619396437658914,0.06761848666833246,0.9900150804187756,0.68952717802,1.2485972819,0.024282603649931307,0.15503168056895356,974.1503103382707,973.85440776249,974.55900045163,0.03457392495674658,0.7045926891399859,0.18498953971543017,0.0008208718828674009,-0.3558082668901372,0.54,0.46,0.5659945503886755,Stairs up
-0.9947756649361799,-1.25170898437,-0.63464355468,0.03158811655245677,0.17672915405943637,0.24742417924370785,0.15148925781,0.3515625,0.0030016492865647675,0.054478646184413504,0.08019333742764045,-0.04345703125,0.19018554687,0.005876842330310353,0.07622867173193254,1.0321973414101124,0.66291171946,1.29722136158,0.032170359673498156,0.17835048348144614,974.1096118080219,973.79982192817,974.48507589773,0.03323881694497108,0.6852539695599944,0.18128802247158193,-0.002363154415301739,-0.4214751546241571,0.49,0.51,0.20849303122933102,Stairs up
-0.9965131710691023,-1.26110839843,-0.685546875,0.02716752212911664,0.1637657490544306,0.21062919420653842,0.02685546875,0.40856933593,0.007106216203216765,0.0837562586752661,0.05786915314384615,-0.09912109375,0.26025390625,0.011986589794832482,0.10877920558035714,1.0294301000579489,0.71223352535,1.2882992074,0.027039573746425166,0.16337965768279697,973.8826865043914,973.68610791666,974.1613485637,0.021765415444081632,0.4752406470399819,0.14658230335322542,-0.0027392646947669236,-1.1821800628162795,0.53,0.47,0.2772164697646071,Stairs up
-1.008490311468684,-1.28234863281,-0.70532226562,0.03362817660752323,0.18216942827908722,0.23960956773921052,0.1611328125,0.36657714843,0.0029861012962801056,0.05428453269348557,0.15103631270184215,0.0517578125,0.33947753906,0.006410204893549459,0.0795352757731973,1.0527984430202633,0.7482361915,1.31150095246,0.03176924699784139,0.17706278714053683,973.9122148049031,973.69386537805,974.13421754749,0.01559265199144028,0.44035216944007516,0.12404630392667368,0.00146956819036965,-0.9690607303952476,0.51,0.49,-0.05917275288061108,Stairs up
-0.9539074706994001,-1.18444824218,-0.63732910156,0.0239523092587207,0.15398956512093115,0.28633422851150003,0.12145996093,0.47973632812,0.011047240873644016,0.10457900585159326,0.09129150390299999,-0.04663085937,0.3271484375,0.007286328866035109,0.08493212335373912,1.0075964579269,0.68102586453,1.28516850567,0.027144737314451085,0.16393074739446098,973.863911832271,973.57828931637,974.18160229951,0.022317474230210344,0.603312983139972,0.14864151333967318,0.002637703585793865,0.12080490312703507,0.59,0.41,0.19138912558413834,Stairs up
-0.9870130750832222,-1.17822265625,-0.68286132812,0.023405802281764625,0.15213723348334962,0.24711914062144444,0.142578125,0.37573242187,0.003993841972245601,0.06284477663522849,0.1463935004301111,0.03125,0.349609375,0.006054202680151651,0.07737527874898609,1.033475991146111,0.74180976892,1.27877254078,0.021947107007262275,0.14732023032407035,973.8175075355216,973.60291659367,974.11093735454,0.02341722484544419,0.5080207608700675,0.15217435216971548,0.0021266419731769074,-0.7525695760919766,0.5,0.5,0.35491155232845345,Stairs up
-0.987765024939518,-1.26025390625,-0.75048828125,0.027042410840866664,0.1634521295733434,0.22990104950674692,0.11926269531,0.40014648437,0.009787010504582645,0.09833155503382832,0.15152014306843375,0.02124023437,0.27465820312,0.004250646307394318,0.06480303774732427,1.0317263820367468,0.80223876615,1.28116738239,0.027955200142135386,0.1661878169477796,973.8357593911142,973.65143401343,974.00969659362,0.01105766835138344,0.35826258018994395,0.10452006233966403,-0.0007081511194120904,-0.8226279260433347,0.52,0.48,-0.1905816642429612,Stairs up
-1.0132959539197726,-1.30847167968,-0.7333984375,0.031390162795625634,0.17616315278803568,0.23473150079511365,0.12780761718,0.37512207031,0.005929218702501681,0.07656266203082271,0.16497109152670453,-0.00817871093,0.32299804687,0.00613901870594417,0.07790543709998846,1.0592087965501136,0.77206755217,1.33021348104,0.030470565217644893,0.17356355837190338,973.8742210303866,973.6362994691,974.17728513902,0.024375830662961985,0.5409856699200191,0.15523798693376087,0.0038518793182665844,-0.7884871706145202,0.55,0.45,0.27262625676109,Stairs up
-0.9786580403602083,-1.2314453125,-0.68566894531,0.02684994392252482,0.16300385580306126,0.19635264078406248,0.04846191406,0.46704101562,0.018160594758078134,0.13405753203760995,0.08340708414427082,-0.07299804687,0.17395019531,0.0053753176732416336,0.07293370126911175,1.0123575811431251,0.70803034253,1.23866012264,0.026430603682348962,0.1617259561542029,973.8768722348076,973.55603505225,974.28390629322,0.04304368470578295,0.7278712409699892,0.2063863197745861,-0.0033755948058389316,-0.4708012925434981,0.46,0.54,0.22055776079688205,Stairs up
-1.0122968300965516,-1.24938964843,-0.72106933593,0.024820246828092484,0.1566363834958728,0.22516640849091954,0.06811523437,0.52844238281,0.012309112417589124,0.11030697333719314,0.13674119971000004,0.005859375,0.26171875,0.006359649095768329,0.07928776501374245,1.054607462325632,0.76200897361,1.26664950266,0.025225118412815977,0.15790875378842523,973.7018322970266,973.50817494871,973.92721490162,0.014683852040476541,0.41903995290999774,0.1204785131546921,0.0010473976289566641,-1.0811539179634044,0.47,0.53,0.06471824650937451,Stairs up
-0.9771774871408858,-1.30700683593,-0.66186523437,0.037143405600655745,0.1915025741589606,0.24203916138924045,0.03881835937,0.44506835937,0.014233367821730031,0.11854618766032395,0.13399920885683544,0.04309082031,0.26428222656,0.0030011186755463967,0.05443463815946734,1.0241360585282275,0.70147161001,1.33393831857,0.03671421992649545,0.19039296984237775,973.7103130861304,973.47775644707,974.0150869319,0.022255111281457778,0.5373304848300222,0.14823427745319986,-0.0019080316520719107,-0.7313345943706775,0.47,0.53,0.20283033748286536,Stairs up
-0.9996073954775674,-1.25402832031,-0.69372558593,0.030976707914960704,0.17480876337857815,0.1923300253341892,0.02124023437,0.40441894531,0.01699485602480742,0.1294804842756466,0.10854195259418918,0.01770019531,0.17578125,0.0022127764511124604,0.046721237854298846,1.0336953039886487,0.73266058528,1.2640815731,0.029364144111232778,0.17019791818049032,973.6889506920879,973.49164547228,973.91945848742,0.018606118346335306,0.4278130151400319,0.13547946085893636,-0.00045081447082622004,-1.1662886911109098,0.36,0.64,-0.0067495729469693455,Stairs up
-0.9973064920136955,-1.26794433593,-0.68041992187,0.03481840229424379,0.1855800134705813,0.19199935249336952,0.0947265625,0.3251953125,0.005544001447558327,0.07405228262693041,0.1489430303118478,0.04846191406,0.22607421875,0.0023883163869925787,0.04860407828839467,1.0302212242143478,0.69826319736,1.29181273721,0.03497848514061878,0.1860061402620281,973.6067054862114,973.34958855832,973.88097876157,0.021917478762218643,0.5313902032499982,0.1472387357233548,0.0005044171890541577,-0.6113359680071495,0.62,0.38,0.3545345619645911,Stairs up
-0.9642385929136169,-1.24731445312,-0.70935058593,0.026431771348501606,0.1617114167014891,0.28216033285787234,0.16540527343,0.44030761718,0.005826196896315781,0.07592243461764031,0.1576706906551064,0.02746582031,0.29479980468,0.004351511389650153,0.06561416550785487,1.0217025943724467,0.76010456713,1.28091668817,0.026860136063500788,0.16301653270501637,973.5021939590836,973.34221638328,973.82892161596,0.01690553056322174,0.4867052326800376,0.1293278179410765,0.0005565103173405861,0.29654149768300364,0.45,0.55,0.7354481718024354,Stairs up
-1.0052731536119766,-1.2685546875,-0.69897460937,0.03179133843642388,0.17726159118776677,0.19545870048709296,0.13049316406,0.279296875,0.002290635536657763,0.04758151153252576,0.1161172556284884,0.00390625,0.23999023437,0.003988968510465282,0.06279000840653257,1.033928642121279,0.72424418251,1.29693530988,0.03124456300361587,0.17573062946305293,973.4241963072327,973.1983939542,973.82892161596,0.014639139609674773,0.6305276617599702,0.1202868116464723,-2.8248868302919436e-06,0.19154670999816004,0.44,0.56,0.2154586374967571,Stairs up
-0.9643956437859492,-1.34655761718,-0.65942382812,0.03913051185000137,0.19655836007453673,0.17211914062177217,-0.00915527343,0.3544921875,0.012096805450081507,0.10928715080218819,0.12780761718455694,0.00537109375,0.2978515625,0.005392725651005984,0.07296892010296746,0.9971251370243036,0.7111978159,1.38036041201,0.03814640386413055,0.19407096122921816,973.5171833864232,973.22788757696,974.00794475916,0.04977996958340805,0.7800571821999256,0.22169763955926486,-0.001125459362469747,-0.4829247036673201,0.47,0.53,0.4988248088413276,Stairs up
-0.9829742739855555,-1.20874023437,-0.7744140625,0.01658628860996671,0.128135671618715,0.2964249427835354,0.21118164062,0.41931152343,0.0036973736257099473,0.060498152181446364,0.09657857875242426,-0.02282714843,0.20690917968,0.0038296747693315958,0.0615710255380158,1.036186770879596,0.84238721146,1.23109461897,0.013759318711563152,0.11670619389850152,973.4104138400328,973.19481822134,973.75186683985,0.0202697992531569,0.5570486185099526,0.14165116944859762,-0.0008196002674518783,0.4816297541545347,0.63,0.37,0.765569130566893,Stairs up
-0.9824728494121977,-1.18103027343,-0.74438476562,0.015048382039079353,0.12199596388194602,0.24393806876406593,0.15454101562,0.32653808593,0.002772631651728532,0.052365667875423946,0.08721990899351649,-0.03332519531,0.19653320312,0.002970908540381274,0.05420573026704536,1.0200818011315382,0.79496867161,1.19655154715,0.012499914012138302,0.11118701506784515,973.4482933408286,973.26741553875,973.7327369604,0.013737254620350305,0.4653214216499464,0.11656026672227733,0.0004902476047662298,0.7088212647673693,0.58,0.42,0.930605463584229,Stairs up
-1.002847811068049,-1.22875976562,-0.75549316406,0.02207123977700328,0.1476552685016966,0.26228593035036585,0.16882324218,0.40966796875,0.004655985689473098,0.06781744153377389,0.05284900199865853,-0.17907714843,0.15075683593,0.007458117768466507,0.08583219158773416,1.0440617143828046,0.8215641645,1.26603991571,0.0212534319943387,0.14489390532139643,973.3227243614411,973.08257496093,973.62556840933,0.029949131253819313,0.5429934484000114,0.17199970333069156,-0.00460637551804068,-1.0985547597246357,0.55,0.45,0.2850566614194322,Stairs up
-1.0029104132357893,-1.18078613281,-0.78576660156,0.016871347050695117,0.12903238214546509,0.27053351150973687,0.1826171875,0.36828613281,0.001836514598452716,0.042571703427084065,0.08076236122394735,-0.06994628906,0.25988769531,0.00861858847859573,0.09222356531068515,1.045575572605526,0.83581458284,1.21977470797,0.016617420864982968,0.12805768462081343,973.3412330935979,973.15359429038,973.54128658895,0.011189283884495874,0.38769229856995935,0.10508118987222705,0.0023707839256345343,-0.8485105494109941,0.54,0.46,0.016804614041509666,Stairs up
-0.9757568359344,-1.24780273437,-0.71350097656,0.029335899933110084,0.17013158025677835,0.2600781249972,0.11145019531,0.39575195312,0.006692654071642425,0.08126142186807049,0.1301513671832,0.03955078125,0.27233886718,0.0043495112172964945,0.06550967664703596,1.0230073696780002,0.74738030079,1.29829997747,0.030382119887568653,0.17313874481390468,973.317102456397,973.06024831973,973.64560635352,0.029204627404831963,0.5853580337899302,0.16975050036087533,-0.000689699283399814,-0.8847618566971356,0.43,0.57,0.20787488492828868,Stairs up
-0.9862508968393877,-1.25207519531,-0.69604492187,0.026794575043601263,0.16285318852433964,0.2578822544605102,0.13073730468,0.42858886718,0.008009686605246893,0.08903906507412904,0.19137261837989797,0.09265136718,0.31640625,0.003386753054242231,0.0578981377041361,1.0434505393055102,0.7405044043,1.28624167593,0.025085828081976395,0.1575749035995428,973.2746884074961,973.03624901361,973.62118851099,0.01387879065482137,0.5849394973799917,0.11720567538313607,0.0004892708714190921,1.6850696850134002,0.58,0.42,0.5972989975029525,Stairs up
-0.9757053249436264,-1.27514648437,-0.66857910156,0.031450511010877806,0.17636581584810948,0.23761724115285712,0.08166503906,0.41247558593,0.00757561034927277,0.0865584304611408,0.10700603107571428,-0.06579589843,0.19641113281,0.005200667174972257,0.07171831695066679,1.016194936007692,0.70059829883,1.3147127255,0.031346220973151526,0.17607315810882018,973.2199744861556,972.91011999777,973.65474465117,0.051260352101483955,0.7446246533999101,0.2251600575789147,-0.00017228164757754458,-0.9592983534180033,0.6,0.4,0.4452782688709367,Stairs up
-0.9845464797208333,-1.21997070312,-0.65710449218,0.0312771065118705,0.1757974971544726,0.24700055803166665,0.04431152343,0.46899414062,0.010676740625530774,0.10271142375833825,0.08463541666488095,-0.09313964843,0.18017578125,0.0053061413233453265,0.07240837640948651,1.0252077528252377,0.68038390645,1.25576883941,0.033550038470450176,0.18207315356900883,973.0731048526707,972.81894473017,973.29910528682,0.01726517966571801,0.4801605566500484,0.13061256376227634,0.0005238594511025895,-0.7344175300321178,0.48,0.52,0.2367647062466113,Stairs up
-1.0029877453265852,-1.26379394531,-0.66015625,0.03320864881444758,0.18111782157568088,0.12510569502390242,-0.05187988281,0.25036621093,0.008965740513553637,0.09410845984611511,0.13651182593,-0.04248046875,0.25671386718,0.005545393437763799,0.07401193612197142,1.0264705610570732,0.66999270451,1.28961910599,0.03418423319695223,0.18375895163040756,973.0541988709206,972.7842015906,973.44676036763,0.04437218728217725,0.6625587770299717,0.2093586947012919,-0.0006270038986472481,-0.9356863905895345,0.56,0.44,0.4349735428435756,Stairs up
-0.9799508759434343,-1.26416015625,-0.70788574218,0.030212825686252845,0.17293827115134447,0.15096398555444446,0.02722167968,0.25134277343,0.0045677093385119135,0.06724262681026914,0.18712515782505051,-0.01477050781,0.39672851562,0.010499278274064881,0.1019471674847577,1.0163987095919191,0.73198053923,1.32815226919,0.03017052626194288,0.17281716775661557,972.9294280321839,972.69216724666,973.27431564266,0.030747628505763583,0.5821483959999796,0.17446216323215977,-0.0030676444066547884,-1.0481636619367147,0.52,0.48,0.37345029628287046,Stairs up
-0.9758911132763637,-1.26110839843,-0.69421386718,0.02294350389762577,0.15060804182521423,0.20809242941784092,0.04125976562,0.34252929687,0.006160098368505336,0.07803907515265293,0.15908397327454546,0.01818847656,0.25927734375,0.0045527447395150985,0.06708955957404096,1.0156376210657956,0.72832269645,1.30389037879,0.022988984356743146,0.15075724161095477,972.9351389867851,972.75452295244,973.14767315892,0.013787218246897215,0.3931502064800725,0.11674992639086923,0.00012894751494140887,-0.8673025886956376,0.52,0.48,0.17975652243082485,Stairs up
-0.9502365112255001,-1.21276855468,-0.68518066406,0.021593313029686367,0.14602532868244225,0.29755706786725,0.07263183593,0.52282714843,0.01459111167430491,0.12003633940759814,0.1543319702115,0.03588867187,0.27941894531,0.004432900870060286,0.06616259977649407,1.016518513905875,0.72439351941,1.25243134671,0.022387557294705224,0.14868662625979986,972.8734241089311,972.46764280959,973.49632570732,0.09580650749745466,1.0286828977300502,0.3075856403568549,-0.011038118779235759,-0.8970089231078098,0.54,0.46,0.46088594683039347,Stairs up
-0.9952929687468001,-1.19006347656,-0.775390625,0.018394781625197285,0.13472014648965705,0.2539501953092,0.16357421875,0.49914550781,0.005522505109335661,0.07381647314710892,0.14428710937199998,0.04016113281,0.21728515625,0.002677936811724293,0.05140263599824399,1.040742381398,0.8212338768,1.26448185239,0.019270420330222065,0.13788938099971937,972.730400010618,972.50720840652,973.23373802245,0.03227159511269954,0.7265296159299623,0.17844132698975185,0.0026908577659499606,0.6833038030919494,0.57,0.43,1.0779296777856826,Stairs up
-0.9642480468703999,-1.23193359375,-0.72985839843,0.024287974496267285,0.15480353625262264,0.2861523437448001,0.13513183593,0.38488769531,0.004750868371954883,0.06846549101794873,0.12085937499640001,0.00427246093,0.27172851562,0.006819430541293694,0.08202746369809999,1.0187281133232002,0.78918851658,1.28048470366,0.024159772774504405,0.15439443795306987,972.8203406300759,972.56574432657,973.07336857955,0.025789554953631787,0.5076242529800084,0.15951706561028728,-0.0022676607601090698,-1.0582757246302614,0.48,0.52,-0.10186896154286759,Stairs up
-0.9605440180313831,-1.17529296875,-0.73937988281,0.024752574952058393,0.1564904140406401,0.2685261178492553,0.18505859375,0.37487792968,0.0042457299929202115,0.06481174779752508,0.12743101728319153,0.01037597656,0.26049804687,0.0045427691741075785,0.06704059846442405,1.010338636134149,0.7838003873,1.23883346374,0.02364134893636357,0.15293738988316297,972.7687607779577,972.51562404619,973.12367118442,0.03352050363130943,0.6080471382299493,0.18210958933798266,-0.000533609449530558,-0.9876511060031592,0.46,0.54,0.31186430791740904,Stairs up
-1.042036340587872,-1.28820800781,-0.79467773437,0.024465890613672017,0.15558153869149025,0.17529037150627658,-0.02331542968,0.42529296875,0.013525677617716943,0.1156796759603623,0.1772902468387234,0.03833007812,0.31799316406,0.005172162559448007,0.07153418450990011,1.079252247348936,0.82466850845,1.34339626225,0.0261960916551254,0.16098885001454927,972.8232900686605,972.52548650521,973.23995289718,0.049005994199635444,0.7144663919700633,0.22019231102790474,0.0018991668536987162,-1.0428061903712367,0.52,0.48,0.4340259277185206,Stairs up
-0.9600873674624998,-1.31164550781,-0.60205078125,0.03877313217700427,0.19573335758152,0.27374267577833333,0.07287597656,0.49084472656,0.015200909900434366,0.12255589209554128,0.2190057663651191,0.03649902343,0.3984375,0.011540396249213866,0.10678487992024137,1.0359777623327378,0.71907157545,1.34632244724,0.036586465049259505,0.19013393146387936,972.679490559408,972.48029896061,972.88670514655,0.014970948021993155,0.4064061859399999,0.12162533638310219,-0.000381621423109556,-1.2127582275982396,0.4,0.6,0.03962505292881378,Stairs up
-0.9874815329497434,-1.25646972656,-0.75061035156,0.022755175305141824,0.14987809142235978,0.22551551231512826,0.00439453125,0.46325683593,0.017639378262441222,0.1319592072849853,0.1909836989148718,0.05810546875,0.32116699218,0.0051331449220345035,0.07118521877294479,1.0445621243698717,0.78837208711,1.27622940732,0.023430194649181904,0.1520848695245354,972.614962744987,972.41115849605,972.87246685866,0.01390730002866441,0.46130836260999786,0.11717082107055579,-0.0007971368486525985,-0.4556484142999686,0.58,0.42,0.3122575061280927,Stairs up
-0.9876261796068316,-1.24560546875,-0.7119140625,0.03305870345904085,0.18091818472283758,0.19169148359831686,0.00183105468,0.36267089843,0.012339360498480723,0.11053139197692731,0.1615280302410891,0.04736328125,0.25805664062,0.0035796764934060226,0.05953347085368995,1.0260326828836632,0.72361741969,1.29978109978,0.034332067524186334,0.18436959094045532,972.684292163993,972.37440646935,973.01397730684,0.03627317389704174,0.639570837490055,0.1895099827487393,-0.00030012402589956583,-1.321938794003083,0.43,0.57,-0.030689390966520735,Stairs up
-0.9984882061256044,-1.28527832031,-0.66369628906,0.041617540772974006,0.20287978006712296,0.18578699132593413,0.01733398437,0.41918945312,0.012190866950511052,0.10980392242368354,0.14527172046362638,0.04748535156,0.26159667968,0.0036782360084467005,0.06031430868815213,1.0324785778861538,0.68372729495,1.33120906323,0.0439249773224559,0.20842812973293065,972.4767562417495,972.17160400092,972.74750047214,0.024568216669299633,0.5758964712200623,0.15587891540019227,-0.000728165554028134,-0.6975848270347416,0.46,0.54,0.2717669392137707,Stairs up
-0.9836742259802469,-1.37524414062,-0.61352539062,0.0460846840508274,0.21334417576805445,0.17010874806827161,-0.01843261718,0.38684082031,0.013998049901989093,0.11758075723136137,0.13454107590407408,-0.06066894531,0.27612304687,0.009442365711680332,0.09657014702011564,1.0187543046744445,0.62532737026,1.42755965534,0.046027948213922684,0.213212809042226,972.527576114621,972.04261221062,973.39703152601,0.11879091272528372,1.3544193153900324,0.34252643437725183,-0.0009871178206697793,1.3933053211835187,0.6,0.4,1.313039098923351,Stairs up
-1.0854051727574228,-1.72204589843,-0.59033203125,0.12230311991736587,0.34791128612190964,0.19171583037927836,-0.083984375,0.46643066406,0.02381801886475096,0.1535332937135018,-0.1323141510924742,-0.36169433593,0.05981445312,0.012649773517195907,0.11188996148420177,1.1261801278918557,0.6335405706,1.79284638878,0.1224814974065813,0.348164905694168,972.3170713538096,972.1917500505,972.79135317622,0.014015025906265308,0.599603125720023,0.11777326140982908,0.0025716436738995618,8.09065016293413,0.58,0.42,2.553172452918613,Stairs down
-0.9624023437459769,-1.84484863281,-0.47705078125,0.12662141025037765,0.3537880604850206,0.08517701598264368,-0.05834960937,0.52941894531,0.0156542879549199,0.12439595496080438,-0.35741626257,-0.62744140625,0.04016113281,0.03815894484076372,0.194217239912876,1.055453080378046,0.50464434129,2.01926561301,0.12705971327566637,0.3543998544035161,972.6639479780683,972.21221313905,973.34823979787,0.0975073998009022,1.136026658819901,0.3104619543366739,-5.645605973625391e-05,-0.038573303812913906,0.63,0.37,0.8602837098896787,Stairs down
-0.9451255315426579,-1.27600097656,-0.52185058593,0.05020267147138502,0.2226369120728116,0.09854473644860759,-0.14916992187,0.29284667968,0.017578615566867087,0.13174255745873276,-0.35699076591746837,-0.7109375,-0.02587890625,0.03086938110487031,0.17458129752443413,1.0403392206178477,0.68676981296,1.40178961152,0.046095460806106596,0.2133353556269089,972.4756842895772,972.05091904728,973.26609511356,0.11509863645795856,1.215176066280037,0.3371078339236096,0.009107048711708466,-0.6406111616448182,0.57,0.43,0.49234393080225397,Stairs down
-0.5421620961743242,-1.11572265625,-0.09387207031,0.0898827811696712,0.2977719748258769,-0.21018033413891896,-0.48803710937,0.11572265625,0.015218508561713688,0.12252694822205215,-0.7834192224408109,-1.39196777343,-0.44189453125,0.055622795896275064,0.2342458889549,1.0417093697575674,0.76603102136,1.42999470125,0.025600874730014808,0.15891795670531692,972.6710297504453,972.34275711686,973.53905218329,0.1278533965372991,1.1962950664300251,0.35514172936370586,0.002660739356581088,1.4597775777217823,0.78,0.22,1.6440536726123172,Stairs down
-1.0355373475570733,-1.44543457031,-0.55017089843,0.06411184403248979,0.2516545097469863,0.29371308117134143,-0.04113769531,0.658203125,0.03309850178031104,0.18081720469772086,-0.15135676685987806,-0.52600097656,0.318359375,0.0347962457457599,0.18539660537735245,1.1185335142441462,0.62165018263,1.49175192682,0.0615439112018761,0.24656312720967463,972.4268710972018,972.09289014044,972.93977112202,0.05353942372355422,0.8468809815800569,0.229970658828572,0.00851335061801412,0.09496221042121311,0.45,0.55,0.6037202433342592,Stairs down
-1.1984688895059181,-1.62060546875,-0.75134277343,0.049719238097074216,0.2218375507726732,0.23250283999887755,-0.11328125,0.49060058593,0.023214306395750957,0.1515830654071994,0.09583889708051022,-0.32006835937,0.65368652343,0.062016537778467086,0.24775737317868282,1.256768136114796,0.75725577246,1.76084162917,0.05423061014913914,0.23168348360681376,972.6699822875249,972.56360989523,972.93977112202,0.006549280493562439,0.37616122679003183,0.08051367027263746,0.0007455632092413161,-0.46496291267568024,0.51,0.49,0.5605184023512494,Stairs down
-1.1312644264892047,-1.615234375,-0.66552734375,0.0917203185015228,0.30112794980691276,0.26215986771784094,-0.12915039062,0.61450195312,0.05493792803420675,0.23305285537288403,-0.01610495827465909,-0.21838378906,0.19201660156,0.010394557041035025,0.10137276298227067,1.1887201760864772,0.6851683547,1.64108849744,0.08010582003038545,0.28141699774702533,972.7357939327408,972.62100331065,972.94599570768,0.0027429697289980464,0.3249923970299733,0.05207494232777652,-0.0007005825863928319,6.841217981845462,0.56,0.44,1.9413980783506912,Stairs down
-1.189255702639506,-1.77124023437,-0.67749023437,0.1108735682698336,0.3309150325763712,0.17420488522172842,-0.12878417968,0.50708007812,0.03318397819816064,0.18103673509808296,0.07361141251827161,-0.14929199218,0.28198242187,0.016756293540187542,0.1286445712756809,1.2257030709769134,0.6932095003,1.80679263738,0.10790776877987904,0.3264591461478515,972.7382195062781,972.68189546519,972.83474309886,0.0017716946998295358,0.15284763367003507,0.041830872878264994,-4.037034229124873e-05,0.08522476061385698,0.54,0.46,0.7387044858288588,Stairs down
-1.107971191402766,-1.55065917968,-0.74243164062,0.07625736336254321,0.27467456164729415,0.23946948761372336,-0.07946777343,0.51416015625,0.033304577929066576,0.18152210308539451,0.060724785985957444,-0.13513183593,0.16906738281,0.007229127122072732,0.0845708076962205,1.1544845556142556,0.75495266807,1.59597394085,0.0721144926484006,0.26710918590474236,972.744437979541,972.68189546519,972.82712032553,0.0007820223702773795,0.14522486034002213,0.027815516952944357,0.0002556016510094673,1.7937676335490451,0.6,0.4,0.6016133887527859,Stairs down
-0.9332236431972339,-1.501953125,-0.32995605468,0.10415272957941193,0.3210057971718405,0.33332337724042554,-0.1904296875,0.83093261718,0.05356473384614858,0.23020620376532128,-0.2104544132288298,-0.61779785156,0.04772949218,0.04465209665891466,0.21018343025565214,1.0717682315704258,0.49989751421,1.54686699007,0.07734764722597846,0.2766311622270054,972.8476965249763,972.67311705022,973.38096807946,0.023924018044765863,0.7078510292400324,0.15384897534433695,0.004439058126270233,2.4415628115021963,0.73,0.27,1.4409902942218702,Stairs down
-0.8540408112244186,-1.32482910156,-0.38793945312,0.058164970689102376,0.23976787487197787,0.08541515261546513,-0.41882324218,0.62976074218,0.10309268328880326,0.3192082880464386,-0.3539457099352325,-0.75170898437,0.10046386718,0.05374883964653807,0.23048612352812087,1.0121308748052322,0.55435075074,1.3908908622,0.050645431870320494,0.22373317031619466,972.8865175616434,972.43903332304,973.69605408693,0.13460428894759988,1.2570207638899547,0.364745284818113,-0.01108841616177861,-0.46021771359587493,0.59,0.41,0.7177984824752679,Stairs down
-0.9509825095114101,-1.19787597656,-0.56115722656,0.034568923497779847,0.18473151374599092,0.3146910056058974,-0.0009765625,0.54162597656,0.021343207938845202,0.14515363263740377,-0.07322027744179486,-0.3310546875,0.12268066406,0.016169747262157117,0.12634256135633065,1.02274834742,0.64100915741,1.23152347954,0.03434323927166491,0.1841275137840203,972.8097721678953,972.66122067327,972.93818619703,0.007261343728515142,0.2769655237599409,0.08466551587363987,0.00300350283826627,-1.4757096268196004,0.54,0.46,-0.07916243417707472,Stairs down
-1.1421332108306579,-1.9443359375,-0.62231445312,0.1378942571893506,0.36889003655349395,0.24460963198776317,-0.12963867187,0.49438476562,0.027557315449235068,0.16490821445071827,0.04405935187052632,-0.15087890625,0.27490234375,0.013486548795078912,0.1153650475909839,1.1901700054067108,0.67371021289,1.96341902799,0.12800669920273758,0.35541862715538325,973.0391282051967,972.91668483296,973.19983672481,0.006100225792001743,0.2831518918500251,0.0775883990243362,0.0021059653430527702,-0.5096665144858363,0.62,0.38,0.5537230262790489,Stairs down
-1.1710179379077894,-1.84008789062,-0.47448730468,0.14508490041830388,0.37889007764814386,0.1893426192428421,-0.50427246093,0.84973144531,0.12597951358546766,0.3530629029542225,0.06935521175873685,-0.14074707031,0.37841796875,0.015658039461606144,0.1244717558066457,1.2538225067137894,0.541025141,1.90771285975,0.12489187915389109,0.3515355284951671,973.1790126672071,973.03170420163,973.28741565678,0.005029337915247861,0.255711455150049,0.07054358593196117,1.0977366390138633e-06,-0.8228243241909108,0.49,0.51,-0.2807673436514743,Stairs down
-1.1642676284604123,-1.76794433593,-0.67297363281,0.10746271987321461,0.32612092355710354,0.28314397752670106,-0.119140625,0.60876464843,0.06250403141886507,0.24871602272660004,0.051410478413505156,-0.12866210937,0.20361328125,0.009777150532373343,0.09836846631954885,1.230475462149794,0.6800600434,1.78491473911,0.10321776965226927,0.3196148759588712,973.1918387929518,973.07657620211,973.27018579074,0.002441445233871914,0.19360958863001088,0.049155627301239777,0.0010422664656996967,-0.7595251589998568,0.37,0.63,-0.451928075824443,Stairs down
-1.1116845141840228,-1.53698730468,-0.74938964843,0.06288927004012385,0.2493319170648813,0.29222229705287356,-0.07360839843,0.560546875,0.03734189598471419,0.19212672585948992,-0.02053587464091954,-0.12060546875,0.12170410156,0.004733287213946816,0.06840235093757017,1.1698143355857475,0.75989626469,1.57055697269,0.05761265203904646,0.23864290822857706,973.2416129929167,973.19300340284,973.31547536083,0.0012126656623179972,0.1224719579900011,0.0346226367647559,-0.00011739632300860501,-0.3811117353885183,0.63,0.37,0.7903517317571828,Stairs down
-1.137771234275488,-1.62341308593,-0.67822265625,0.07985575281552479,0.2808592212682949,0.19564893768768296,-0.14233398437,0.5146484375,0.031097299360509482,0.17526569545251713,0.010901474370365854,-0.15002441406,0.15295410156,0.009132009114428304,0.09497706644036866,1.174146976672927,0.69756870468,1.6315991123,0.0738204665922982,0.2700374362930244,973.2541025569346,973.19523734042,973.31706267625,0.001157389008540231,0.12182533582995347,0.033812342545823146,-0.000171565647315603,-0.8279303203128041,0.51,0.49,0.02813028325177727,Stairs down
-0.9594939889215534,-1.61926269531,-0.38940429687,0.10889978573211617,0.3283938279855284,0.045312974058543704,-0.37658691406,0.62377929687,0.07571482756367531,0.2738242723909547,-0.2733699465230097,-0.76989746093,0.10278320312,0.053582953099420634,0.23035348977993625,1.068545223945534,0.48689801939,1.63367024848,0.09240632993995057,0.3025048447638188,973.548766199562,973.20790156653,974.03944604714,0.07101703085137032,0.8315444806099777,0.265193410768347,0.007424264021907498,-1.2925660892280766,0.46,0.54,0.24860621915836556,Stairs down
-0.4855638586922824,-1.09460449218,0.16735839843,0.08847394646704856,0.2958247338135961,-0.31689055069391303,-0.91748046875,0.04650878906,0.06906632324181804,0.26137253554460477,-0.7750549316370652,-0.99108886718,-0.42944335937,0.022391678745095317,0.14882301882655327,1.040391848600326,0.76088964871,1.52417170609,0.0328197330409195,0.1801749061667963,973.3159548833489,973.06902878424,973.86992238177,0.066586931081148,0.8008935975300346,0.25663818907390906,-0.005924239932966768,0.036814803997759604,0.6,0.4,1.0830485916080417,Stairs down
-0.9153799661740244,-1.17260742187,-0.607421875,0.03406309556746548,0.18343307216253069,-0.07376024199560975,-0.28198242187,0.07971191406,0.013049665998235678,0.11353644229922176,-0.44757080077817074,-0.73132324218,-0.29833984375,0.01599901519061815,0.12571358418750597,1.0405363378707317,0.75221640201,1.34115117513,0.023594667845565024,0.15266606693627055,973.4360514631832,973.19822840345,973.8101058935,0.03368333434121628,0.6118774900500057,0.1824076806803964,0.006085952791910625,-0.8692101593982615,0.52,0.48,0.37130655106925575,Stairs down
-0.8826761617248049,-1.09326171875,-0.56787109375,0.026968423070793775,0.16315080082590497,-0.14297128652272723,-0.30700683593,0.05651855468,0.008768323072651905,0.09302928972658583,-0.5021719003610389,-0.72155761718,-0.37622070312,0.008398105571708999,0.09104416107353018,1.0380469200015585,0.74629944567,1.24205710968,0.017988493255919377,0.1332474257176774,973.5884263987914,973.26327152199,973.82093516913,0.026087798198915102,0.5576636471400889,0.16046493581123328,-0.0011385041592810138,-0.6306721416610657,0.44,0.56,-0.5064566170728666,Stairs down
-0.6536800986802631,-1.42700195312,-0.0888671875,0.09810364083164012,0.31114755896885393,-0.11948113692249995,-0.63830566406,0.3505859375,0.09180099738139101,0.30098685938278025,-0.6325442665461841,-1.23193359375,-0.05529785156,0.08775186777882131,0.29427408642221,1.0370958961786843,0.7322414939,1.4797889437,0.04065584095434709,0.2003020111697134,973.5365040892111,973.35867173539,974.05066841334,0.031036573556946483,0.6919966779499873,0.17500913573037244,-0.003208834222906864,3.1982868019627606,0.72,0.28,1.9975165380236815,Stairs down
-1.0804036458310418,-1.59106445312,-0.35693359375,0.11672029422040871,0.3398594677543638,0.2171020507777083,-0.01953125,0.59118652343,0.020566690908894576,0.14266202909415054,-0.19817352294729165,-0.39111328125,0.01184082031,0.010243854024693397,0.100683400875895,1.1404898635285414,0.45690006427,1.60137386606,0.09999664606852987,0.3145711594196921,973.6842133657741,973.47883645538,973.84615213208,0.007440412941289841,0.36731567669994547,0.08580739268744897,0.0014791884220197312,-0.29685325979628274,0.34,0.66,-0.48171518989954815,Stairs down
-1.1078932741815957,-1.68041992187,-0.6630859375,0.08028786496528893,0.2818399168717127,0.28033706989553187,-0.16333007812,0.72155761718,0.08131572883798331,0.28363826944349096,0.01452376994606383,-0.16333007812,0.20556640625,0.011882387494761741,0.10842499304661214,1.186044562571915,0.67484183975,1.70329767191,0.07193122678949462,0.2667695653041874,973.7511243226146,973.65588326742,973.82360347515,0.00243608464126792,0.1677202077299853,0.049093470515047914,0.0014479139415789208,-1.3464735120862983,0.45,0.55,-0.16007294155804402,Stairs down
-1.2461540670921176,-1.83178710937,-0.60461425781,0.16111730593397322,0.3990260746080423,0.14812729779329412,-0.24597167968,0.65356445312,0.06436567879434708,0.25220712819905305,0.06528751148823529,-0.13610839843,0.26928710937,0.015387780199644527,0.12331564171431544,1.2912398600840003,0.63796090733,1.86442444877,0.15162454759703176,0.3870926625370311,973.7958747451379,973.74451427004,973.92501332368,0.002316457365194793,0.1804990536400055,0.047845636432220916,0.0004074203791632861,0.7467704884049686,0.73,0.27,1.333894184527995,Stairs down
-1.1367311115465824,-1.87316894531,-0.52807617187,0.12463994767295908,0.35080226170356904,0.2364069298820253,-0.24645996093,0.57446289062,0.06636778400318044,0.25598376017141133,0.04702179341316455,-0.10717773437,0.22106933593,0.008969530225552243,0.09410627964310762,1.1949995428670888,0.54737064516,1.88349332806,0.12121324711177206,0.3459463863254291,973.7691956263926,973.71001737964,973.88440876629,0.0020410299298622412,0.17439138664997245,0.04489091342315559,-0.0009985823829216397,0.4781365457486082,0.71,0.29,1.0640260442713536,Stairs down
-1.0175309889347524,-1.66040039062,-0.39099121093,0.11125191866444524,0.33188915999057983,0.24633909923900993,-0.19848632812,0.5986328125,0.02731743171661187,0.16445960627356285,-0.026205232826138628,-0.14599609375,0.18103027343,0.007195577951367832,0.0844057735306933,1.0655851873918816,0.48990673347,1.67991803383,0.10664478810617485,0.3249444554305006,973.870104936524,973.8032611493,974.00764879511,0.002471664661460419,0.2043876458099021,0.049469108887458514,0.00022695567250489914,0.8095432733445187,0.69,0.31,1.2002423078740856,Stairs down
-0.9787502712624445,-1.33642578125,-0.48999023437,0.047051703068930965,0.21570560115158127,0.2917005750828889,0.119140625,0.48962402343,0.011001758593758506,0.10430492237476444,-0.08137478298455555,-0.24328613281,0.05151367187,0.00962701927948737,0.09757075585750156,1.0399598589381112,0.61012708274,1.34233047114,0.03546924442281151,0.18728358632566414,973.9651368771712,973.87008697567,974.05429723461,0.0022167739268216945,0.18421025893997012,0.04682032790799916,0.00041065026649993684,-0.2531374765650378,0.64,0.36,0.5977468610113865,Stairs down
-0.9640443383149998,-1.2919921875,-0.51220703125,0.046367782189192304,0.21401476918845466,0.24696759479487804,0.10693359375,0.40075683593,0.005532169956153915,0.07392363944560457,-0.06868390339012195,-0.25915527343,0.05114746093,0.009430853753244917,0.09651861655463147,1.0061412277443902,0.55917510877,1.33429686989,0.043889899452080834,0.20821781089963448,974.0720659382446,973.98757764318,974.12435478065,0.0015750625673487644,0.13677713747006237,0.03944432135630103,0.0004474503789539601,-0.4311723406850829,0.38,0.62,-0.7644240098807901,Stairs down
-0.9776274028530261,-1.39685058593,-0.20727539062,0.09301635567289608,0.3029726988626986,0.2825108578307895,-0.18029785156,0.68493652343,0.03970746015959622,0.19795199816760856,-0.05534121864552632,-0.40112304687,0.13952636718,0.022182866216543747,0.1479560285960157,1.0590007959319738,0.54376350528,1.41812001622,0.07094967285807882,0.2646056018511302,974.2028682963081,974.08143619604,974.31418745055,0.005181451518425068,0.23275125450993528,0.07150716414990585,0.002113988223655507,-1.1573285458467886,0.49,0.51,-0.10954166171452535,Stairs down
-0.847597369021294,-0.85705566406,-0.83776855468,3.4867160308683086e-05,0.005870004976377667,0.5505112591874117,0.50244140625,0.58520507812,0.0004249311253206244,0.020492240863579807,0.1496136833604706,0.12426757812,0.18518066406,0.0002759389391427956,0.01651340663467996,1.0219673340674116,0.99676062008,1.04576585144,0.00018016995229723642,0.013343549220489349,974.4984764755421,974.42301357692,974.63439038849,0.004608165939386498,0.21137681157006227,0.0674829772791075,0.0007776276212196568,-0.898621535918434,0.6,0.4,0.6433915239557564,Lift up
-0.8942511142802564,-0.92053222656,-0.84814453125,0.0005468842692668232,0.02323516585870114,0.546727889619487,0.50842285156,0.56225585937,0.00014248504226485492,0.01185994565559923,0.15610132461487178,0.12243652343,0.18994140625,0.0006755604556015465,0.025824395910059066,1.060077183235385,0.99691338569,1.09089015644,0.0005549755486636701,0.023406419579400786,974.4719415937349,974.36965154967,974.6655126146,0.006490138569547003,0.29586106492990893,0.08004331118094267,-0.002575813926792832,-0.455815172515595,0.55,0.45,0.7517066154834354,Lift up
-0.8740983717480196,-0.89721679687,-0.85498046875,0.00014161198447108433,0.011841025530541473,0.5144695621874256,0.49145507812,0.53234863281,0.0001220725668837526,0.010993813151390005,0.1613116878056436,0.14111328125,0.1787109375,0.00010975437293470041,0.010424379884432018,1.0270702869535644,1.00146345252,1.05845672874,0.0002471689147807947,0.015643583278864438,974.365513797794,974.29972260568,974.42614955926,0.0017024328385137621,0.126426953579994,0.04105577995648613,-0.0013659007764125106,-1.533514068172879,0.5,0.5,0.1006239039511194,Lift up
-0.8592421982275823,-0.87805175781,-0.84558105468,8.139598646599621e-05,0.008972264211237873,0.5224421574495604,0.50061035156,0.54455566406,0.00012522403501502246,0.011128699237473985,0.15199095337901097,0.13720703125,0.16931152343,6.44721754759119e-05,0.007985216968318498,1.0171230628746153,1.00407841612,1.03421415968,7.38122595160164e-05,0.008544070211852847,974.1197552093038,973.96358432658,974.29972260568,0.00858691573419346,0.3361382791000551,0.09215505424461914,-0.003460670433141233,-1.1090089985361455,0.51,0.49,0.10940554876241235,Lift up
-0.8483574099618293,-0.85473632812,-0.84130859375,1.197052994221192e-05,0.003438684031682167,0.5408533608012195,0.52990722656,0.55908203125,5.265336526160683e-05,0.0072118826287661825,0.16499440262560977,0.1572265625,0.17541503906,2.7548940166625054e-05,0.005216605935056453,1.0195717151307317,1.01219485653,1.0285366443,2.0623816714791593e-05,0.004513569181352504,973.8481834240381,973.74556712196,973.96358432658,0.004512297098992555,0.21801720461996865,0.0667627821888079,-0.0027920437691280123,-1.3267836471804466,0.51,0.49,0.08076658575101564,Lift up
-0.8461555989537332,-0.85546875,-0.83898925781,1.90037220441679e-05,0.004330166172744297,0.5479833984337333,0.53393554687,0.5693359375,6.585417566583616e-05,0.008060776636918534,0.16361979166306667,0.15283203125,0.17810058593,5.6860726154776786e-05,0.007490165761809264,1.0213422780885337,1.01278163795,1.03883612468,3.680965406258244e-05,0.006026512978089514,973.635251290275,973.52800080896,973.73655343532,0.003848179349697419,0.2085526263600741,0.06161874951426273,-0.0028369590765597976,-1.1698768969662148,0.48,0.52,0.010737635095605144,Lift up
-0.8171441581778653,-0.84924316406,-0.79455566406,0.0003227906166230314,0.01786515479255913,0.536327576365618,0.51318359375,0.57397460937,0.0003281122984935923,0.018011819548683538,0.1566546150764045,0.14001464843,0.18542480468,0.00014864707384720205,0.012123402245501147,0.9899767498894381,0.95941793271,1.03920670992,0.0006564900947597746,0.0254777118588037,973.4178796335451,973.33656249549,973.5128812632,0.0030365114485430317,0.17631876770997224,0.05479409952156917,-0.0021180809855058723,-1.1626944701816753,0.56,0.44,0.19221762375647208,Lift up
-0.8361167907680209,-0.85498046875,-0.80346679687,0.00024074628262665744,0.015434976801061167,0.5446535746216666,0.52124023437,0.56958007812,0.00017650335080251394,0.013216080138666472,0.16043599446260418,0.13720703125,0.17321777343,9.992496485018278e-05,0.009944047455621883,1.0107601360216667,0.97131386776,1.0367307816,0.0003579761850232272,0.018821457606392637,973.2834871985592,973.252805874,973.32660533874,0.0005004933546142784,0.07379946473997734,0.022254884456459883,-0.0007767326079868905,-0.760263178788922,0.62,0.38,0.5414752327738768,Lift up
-0.842472519981744,-0.85327148437,-0.83654785156,1.8049933517191706e-05,0.004223748402700779,0.5522233829911627,0.54553222656,0.55810546875,9.527806546229083e-06,0.003068716034112169,0.16064878951360465,0.15356445312,0.16821289062,1.54991176792294e-05,0.003913936047080191,1.0200715162926741,1.01551403026,1.03048848443,1.5503098781723155e-05,0.003914438681501858,973.247339293094,973.2354604559,973.25963625349,6.316936619768973e-05,0.024175797590032744,0.00790157191220602,-0.0002772414293013166,-1.3849750548300446,0.45,0.55,0.03369307350311464,Lift up
-0.8423067889601265,-0.84936523437,-0.83447265625,1.5190686742431583e-05,0.003872776725874699,0.5542115802973415,0.53833007812,0.56604003906,3.304488955630978e-05,0.005711969871689685,0.16039266465253169,0.15197753906,0.16625976562,1.2923258151704511e-05,0.0035720683931694816,1.0209752203412659,1.00861750839,1.0341493784,2.733953091226892e-05,0.005195523159482711,973.2381519970941,973.22672468186,973.24816861684,4.184979047487451e-05,0.021443934979970436,0.0064280670727403155,-0.00019580837909867458,-0.8996014385809068,0.38,0.62,-0.4277522093439926,Lift up
-0.8306490194881816,-0.84545898437,-0.76794433593,0.0003436581298740013,0.018444154511195403,0.5677009351279798,0.54602050781,0.66088867187,0.0007408996680883751,0.027081651224716327,0.16038806028626262,0.13952636718,0.18078613281,0.00011181511895856736,0.010520725892851749,1.0193013862690907,0.98667286806,1.05866407322,0.0001974418596290405,0.013980253839275071,973.2277059035772,973.19317921844,973.26742896236,0.0003800250888064121,0.07424974391994965,0.01939552658593577,9.333388176981939e-06,-0.3188045353534128,0.67,0.33,0.6003968520111305,Lift up
-0.8715284394019512,-0.88134765625,-0.86279296875,2.4368401498975106e-05,0.00490624356009145,0.5136331697759755,0.50341796875,0.5224609375,3.1373338213987266e-05,0.0055669324163717705,0.10217731754512197,0.08349609375,0.12109375,0.00011207529242788493,0.010521811658122772,1.0168385759142682,1.00782038071,1.02767770655,2.6461720063680627e-05,0.005112632996848591,973.312142355825,973.20292094594,973.36256357949,0.002094968244960326,0.15964263354999275,0.04549087657683794,0.0017781330727163784,0.17083100626967562,0.4,0.6,-1.0823227767299552,Lift up
-0.9073392427841025,-0.92346191406,-0.88110351562,0.0001261314669481922,0.011158601922244236,0.5395742563062819,0.51489257812,0.55578613281,8.09361631780855e-05,0.00893859720875808,0.12699538010371797,0.10595703125,0.15295410156,0.00011322863183357127,0.010572463417174818,1.0633230948556407,1.02767770655,1.08236585876,0.00019539707274820222,0.013888555795040147,973.3386054537399,973.26872403059,973.37098372298,0.001007620778461506,0.10225969239002097,0.0315389055509703,-0.0012868318313419326,-0.8177771313000828,0.37,0.63,-0.7265003707855964,Lift up
-0.8779309082006,-0.90197753906,-0.8681640625,7.688863559806367e-05,0.008724663273850918,0.5215600585896999,0.51672363281,0.52917480468,1.1205606985128015e-05,0.003330698262418368,0.12290893554300002,0.10961914062,0.13757324218,3.8009597498043936e-05,0.006134288998984601,1.0285677457615003,1.01898302122,1.05475866995,6.809687631670665e-05,0.008210719064341416,973.1736159076313,973.08571082796,973.26872403059,0.0028682903042848403,0.1830132026299225,0.053287966758377936,-0.0017682794426914343,-0.9280779514243682,0.52,0.48,0.14651887669047883,Lift up
-0.8612114800297778,-0.87524414062,-0.84509277343,6.31728571169333e-05,0.007903855798425266,0.5299031575481111,0.51928710937,0.55456542968,6.923831245221757e-05,0.008274599559459972,0.12609592013611112,0.11364746093,0.14953613281,9.984915772857553e-05,0.009936786333755117,1.0191156868276667,1.01290144703,1.02617231818,1.5823125021600827e-05,0.003955668403868152,972.9557318262612,972.76575843195,973.12035726417,0.0077719597388545185,0.35459883222006283,0.08766758027141518,-0.002579015415264772,-0.49712677879222733,0.52,0.48,0.30568288135264104,Lift up
-0.8493384384487804,-0.85571289062,-0.84191894531,1.4499022780086121e-05,0.00378446897584185,0.5498910299120731,0.53295898437,0.57116699218,8.676357026879086e-05,0.009257725311783654,0.14463545636134145,0.13073730468,0.154296875,3.488936613771828e-05,0.005870595034821262,1.022142244022195,1.01385746985,1.03745099635,3.550053133916182e-05,0.0059217901035200195,972.6939650308183,972.60411864107,972.76575843195,0.0024762190640167095,0.1616397908799172,0.04945726711569384,-0.0020562684371825454,-1.23570917083703,0.44,0.56,-0.3415334559317358,Lift up
-0.8535753333015216,-0.86267089843,-0.8447265625,1.4256152005644429e-05,0.0037551556334817914,0.5479497494864131,0.53576660156,0.55810546875,3.332365972486836e-05,0.00574120597367894,0.1441172724153261,0.13122558593,0.16650390625,0.00010482032105400774,0.010182385267617961,1.0245716914589131,1.01787060654,1.03152678127,1.330306194135658e-05,0.003627459640298429,972.5092221311893,972.41166303398,972.60411864107,0.0027674644294843134,0.19245560709009624,0.05232000854722047,-0.0019342521398011759,-0.7165671648916119,0.46,0.54,0.002751965098072286,Lift up
-0.850782534946421,-0.86413574218,-0.83203125,6.152667094478306e-05,0.007802500994997901,0.541900955999263,0.52380371093,0.55895996093,7.174147203581377e-05,0.008425336708165622,0.15065660978210527,0.13098144531,0.16394042968,5.65831898640618e-05,0.007482484703571196,1.0199625867278943,1.004043822,1.0324730484,4.967947049857411e-05,0.007011171706915491,972.3000230791174,972.18915913232,972.41166303398,0.004265659197258532,0.22250390165993394,0.06496735735350419,-0.0023452490291008313,-1.2112690070146728,0.47,0.53,-0.17748186171399008,Lift up
-0.8223015280292941,-0.84729003906,-0.79553222656,0.00032421230684508547,0.01789966604190184,0.5373276654374116,0.51306152343,0.55895996093,0.00014372670016631447,0.01191787723596013,0.15305319393117647,0.14453125,0.16040039062,2.0778070642825858e-05,0.0045314040597711274,0.9941768657720002,0.96360265006,1.02600109275,0.00042644727435063357,0.020528766343683863,972.0892588609662,971.96874516145,972.18915913232,0.003952592265498502,0.2204139708700268,0.062498729427261555,-0.0024783165570533595,-0.9111249409816198,0.49,0.51,-0.36836453731366237,Lift up
-0.8336506131292403,-0.84826660156,-0.80969238281,0.0001507667810857028,0.012200751649746632,0.5382481828479745,0.52172851562,0.54968261718,8.509431187930188e-05,0.009166087970937016,0.15749233583468358,0.14453125,0.16857910156,3.4498388760015046e-05,0.005836240253339336,1.004758832076329,0.97704146274,1.02146799282,0.0002176688338006385,0.014659929471418323,971.9356724061399,971.90445960269,971.98399293459,0.0005261730227521897,0.07953333189993828,0.022792819148641275,-0.0007578937124147199,-0.6749128098408965,0.54,0.46,0.5029693303934497,Lift up
-0.8478346604532967,-0.85412597656,-0.83984375,1.5962556892938594e-05,0.003973303937509612,0.5496973729364835,0.54113769531,0.5546875,1.1518211882673513e-05,0.00337515008936211,0.1631328876169231,0.14453125,0.1748046875,7.388120532884336e-05,0.008548059660040009,1.0235626277704397,1.01426313499,1.03332767565,2.3202411780329845e-05,0.004790348653522439,971.9089356406511,971.90033056571,971.91529195399,1.4268227229472217e-05,0.014961388280084975,0.0037565188038467,8.514168589459143e-05,0.13130022544285458,0.41,0.59,-0.5822552938880161,Lift up
-0.8438932457713264,-0.85107421875,-0.83618164062,1.9759562060965602e-05,0.004422435288013837,0.5503415477482653,0.54235839843,0.55810546875,1.9681742453641502e-05,0.004413718199768954,0.16693738041704084,0.15197753906,0.18542480468,6.0376777611202506e-05,0.00773050373803294,1.021265609895,1.0147679454,1.02989649091,1.5227374655100775e-05,0.003882266513400276,971.9124834282392,971.90069235129,971.94731372491,0.00019216724056324552,0.046621373620041595,0.013791531834912918,-0.00021260543472526454,1.3840710520714454,0.72,0.28,1.591473022051518,Lift up
-0.8397521972611363,-0.8466796875,-0.82971191406,1.7201849100739928e-05,0.004123878458778456,0.5557153875127273,0.53796386718,0.56396484375,3.907040672891922e-05,0.006215016076750921,0.16821427778329545,0.15625,0.18176269531,3.574959654347183e-05,0.005945027428717643,1.0209547691973861,1.00125361632,1.02939601616,4.220296010372139e-05,0.006459363824064538,971.9001381001435,971.88178197482,971.93403060359,0.0001961833332568846,0.052248628770030336,0.013926736056849331,-3.672396364580024e-05,0.20682839340755566,0.65,0.35,1.095125189861337,Lift up
-0.838412475582375,-0.84521484375,-0.83044433593,1.4077249583463838e-05,0.003728442565424676,0.556291198727,0.5498046875,0.56640625,2.0629146338943146e-05,0.004513455661652871,0.1694091796845,0.15832519531,0.17919921875,2.5793117810358357e-05,0.005046850883246788,1.0203609704841248,1.01354146129,1.02685968431,1.0762233103535619e-05,0.0032600161333560026,971.8821226879218,971.87520555494,971.88993545066,1.7387751368630042e-05,0.0147298957200519,0.004143718677290022,0.0001032638170616729,-0.7227595085764498,0.47,0.53,-0.26954419490992476,Lift up
-0.8085087794853921,-0.83154296875,-0.77233886718,0.0002382461945768146,0.015359376535887112,0.6076061772321567,0.56164550781,0.64135742187,0.00040385562153906463,0.019997406149309623,-0.1441339230967647,-0.17138671875,-0.125,0.00015163058287521393,0.01225332642727272,1.0219618093272549,1.01054723213,1.04316098873,5.660783213838122e-05,0.007486845356485367,971.8685285396641,971.80461648237,971.89903924921,0.0006644980164929008,0.09442276684001172,0.025651185743678515,0.0007872239215014364,0.08694890958350587,0.45,0.55,-0.8481220205067252,Lift down
