avg_accX,min_accX,max_accX,var_accX,std_accX,avg_accY,min_accY,max_accY,var_accY,std_accY,avg_accZ,min_accZ,max_accZ,var_accZ,std_accZ,avg_magnitude,min_magnitude,max_magnitude,var_magnitude,std_magnitude,avg_pressure,min_pressure,max_pressure,var_pressure,range_pressure,std_pressure,slope_pressure,kurtosis_pressure,Pressure_below_avg,Pressure_above_avg,skew_pressure,Label
0.4983801269492999,0.44604492187,0.57104492187,0.0010721219474074,0.0325791455985785,0.7399536132774,0.68359375,0.78857421875,0.0006854093135205,0.0260490925059849,0.4933618164035998,0.41125488281,0.52233886718,0.0005981442843729,0.0243343962639138,1.0202920501479,0.93444291604,1.08997754331,0.0006628624445479,0.0256170611136893,969.8634339350162,969.84821377527,969.88086464961,0.0001002399891007,0.0326508743399927,0.0099618065234033,7.475385182515981e-05,-1.143132872595393,0.6,0.4,-0.0011487602919376,lift down
0.5128430175753,0.4873046875,0.53540039062,0.0001917969984495,0.0137796599546244,0.6761157226529,0.63647460937,0.72277832031,0.0004438133613011,0.0209612792474165,0.5164660644486999,0.47668457031,0.58532714843,0.0006530272523832,0.0254263048801702,0.993750472544,0.94631830412,1.0297182585,0.0006195720996293,0.0247664365348158,969.8755797487714,969.86749571142,969.88846699859,1.3831162378764394e-05,0.0209712871700276,0.003700385217106,2.915711711165133e-06,0.1718591639653652,0.4,0.6,0.0184544785609673,lift down
0.5119458007771999,0.47888183593,0.57067871093,0.0006327258878108,0.0250279569468363,0.6953161621056999,0.62878417968,0.92749023437,0.0026403772274581,0.0511270325286296,0.4938830566378999,0.37060546875,0.63928222656,0.0017072973512453,0.0411123385096601,0.9959463492306,0.9302000428,1.25530320187,0.0025202098690499,0.049950052756323,969.9562543975628,969.88846699859,970.12285223659,0.0031932671681296,0.2343852379999589,0.0562257458505294,0.001858941703651,-0.2163946847923616,0.55,0.45,0.8070038953409632,lift down
0.0767602539058,-0.15490722656,0.55395507812,0.0355037241201584,0.1874798305924048,0.9651928710901,0.5107421875,1.28869628906,0.0229678440034919,0.1507917954116105,-0.0538049316402,-0.5712890625,0.72985839843,0.1216983475614728,0.3471042553554451,1.0479234104965,0.75822341239,1.29798146811,0.0208173009216307,0.1435587960119979,970.1821153339104,970.05342821819,970.53001391717,0.0090982237799668,0.4765856989799886,0.0949064884092081,0.0025340112235275,4.9040138895224565,0.67,0.33,1.9486864319739845,lift down
0.1619897460921,-0.21533203125,0.29272460937,0.0163459229887533,0.1272103130994725,0.9041101074174998,0.5107421875,1.03942871093,0.0162696902964376,0.1269133302434114,-0.151003417968,-0.68334960937,0.20581054687,0.1014384759716941,0.3168976036702978,0.9975217039561,0.81200393792,1.12429518608,0.0041634292028987,0.0642012064596124,970.348168116,970.16472163068,970.47594855664,0.0102426378790986,0.3112269259599998,0.100698617171775,0.0010114396491864,-0.8622290167731461,0.4,0.6,-0.6032137768364676,lift down
0.1110595703082999,0.08557128906,0.15698242187,0.0003237441332537,0.0179027006879197,1.0299084472618,0.98278808593,1.06640625,0.0006211401522405,0.0247977569694949,-0.0230163574197,-0.09301757812,0.11938476562,0.0030513644743079,0.0549622673255469,1.0377744519018004,1.00238147673,1.07393453826,0.0005614786442453,0.0235767652107522,970.5874810095884,970.47594855664,970.70682076652,0.0056717259141265,0.2308722098799762,0.0749333614285735,0.0025811045296843,-1.347559916398854,0.47,0.53,-0.0472467815110522,lift down
0.0815295410121,0.07116699218,0.09704589843,4.250109044765505e-05,0.0064866077068972,1.0472338867144,1.01831054687,1.07458496093,0.0002497566528889,0.0157244741203025,-0.0948681640584,-0.12097167968,-0.05285644531,0.0003844387362818,0.0195088274614097,1.0548578734041,1.0242890608,1.08308350528,0.0002935803296798,0.0170482998091614,970.7593432802518,970.70682076652,970.78555053862,0.0005470411925415,0.0787297721000186,0.0232716733522999,0.0007682108064275,-0.8092864353720506,0.43,0.57,-0.6682208418200345,lift down
0.0910632324168999,0.07202148437,0.10534667968,9.585615812666387e-05,0.0097415397420221,1.0157226562457,1.00134277343,1.04162597656,0.0001035501258573,0.0101249505973511,-0.0616467285113999,-0.07116699218,-0.05139160156,3.2617135178146e-05,0.0056825138650393,1.0217236750619,1.00778235161,1.04651009904,9.674833083155958e-05,0.0097867690032637,970.7931983829008,970.78437752131,970.80557258925,2.161408601246616e-05,0.0211950679399706,0.0046257913001281,0.0001046366108022,-0.4519553966666656,0.47,0.53,-0.0425514589160479,lift down
0.1789721679649,0.07348632812,0.37744140625,0.0094279312786641,0.0966108273739414,1.0061560058553,0.91711425781,1.03674316406,0.0005166654800733,0.0226163397850444,-0.0003833007807999,-0.08837890625,0.07580566406,0.0026440159897768,0.0511622500470712,1.0279631836530998,0.9956763571,1.04688156182,0.0001368804222947,0.0116409457550406,970.7962027814784,970.78715064204,970.80557258925,2.79714270855705e-05,0.0184219472099584,0.0052622915934709,2.8792375633292583e-05,-1.400968566349357,0.56,0.44,0.1286462914942358,lift down
-0.9612658691376998,-1.1923828125,-0.82995605468,0.0099835018603482,0.0994166326212306,0.4230871581996999,0.25341796875,0.59020996093,0.0071618383143262,0.0842034437014484,0.1454296874985,-0.18041992187,0.41735839843,0.0299132031374448,0.1720873938034694,1.0774434312769,0.92838333721,1.27987527948,0.0099880998841659,0.0994395237585351,970.7075142306152,970.67734915119,970.74468072287,0.0002065469245609,0.0673315716800289,0.0142997012316817,-6.377936930558866e-05,1.1337404269236648,0.4,0.6,0.6135018741461802,stairs up
-0.9184472656215,-1.16577148437,-0.69775390625,0.0178550763807246,0.1329530955522188,0.4540283203085,0.3447265625,0.55310058593,0.0036857639899679,0.0604061780786394,0.1380175781214,0.01330566406,0.28491210937,0.0068133417764254,0.0821292174482452,1.0396267518463,0.87711997876,1.27023130042,0.01614424688078,0.1264231166044098,970.6614558758624,970.61799753053,970.73380255428,0.0007479300519079,0.1158050237499992,0.0272112247315129,-0.0005555148250043,0.1711299953535578,0.61,0.39,0.7061914791786947,stairs up
-0.9226513671834,-1.25549316406,-0.74072265625,0.0245895564916959,0.1560245523203926,0.4200439453082999,0.330078125,0.54406738281,0.0029837609541082,0.0543500077697066,0.1517980957003999,-0.08483886718,0.29089355468,0.0098600966924062,0.098800282011147,1.0312892972429,0.83464249455,1.35167919052,0.0245117056617658,0.1557773687194265,970.6080428878512,970.55976996129,970.65363169332,0.0005146581616371,0.0938617320299499,0.0225723631908758,-0.0006219653507691,-0.0751150163392715,0.37,0.63,-0.1122411369939501,stairs up
-0.9361059570275998,-1.22412109375,-0.74926757812,0.0170457989820185,0.1299051230406189,0.4853149414018999,0.36437988281,0.74084472656,0.0086831202109871,0.0927161744728352,0.1352905273414,-0.07470703125,0.36108398437,0.0189514688464487,0.1369742828343489,1.0764246753183997,0.86861467199,1.36511032348,0.018927356101903,0.1368871160514532,970.539853764471,970.50582157188,970.5707002518,0.0004469670637772,0.064878679919957,0.0210356220050533,-0.0006601257470832,-1.1381217943732227,0.41,0.59,-0.3919931449663839,stairs up
-0.8754174804653999,-1.10375976562,-0.72546386718,0.0134960588121915,0.1155902168181616,0.4912670898402,0.3603515625,0.68041992187,0.0091934596710282,0.0954019133682231,0.2338085937466,0.05554199218,0.45727539062,0.0129958305452314,0.1134278283305253,1.0392286389436,0.84332406808,1.29482466273,0.0178766754659935,0.1330334871802346,970.480278259198,970.45808530344,970.51199861911,0.0002383844281503,0.0539133156700017,0.0153623104990378,-0.0004961464582299,-1.0193956255277743,0.57,0.43,0.3975199655868788,stairs up
-0.9124877929648,-1.29248046875,-0.64245605468,0.0232642426937237,0.1517616561150626,0.5185961914025998,0.03466796875,1.96923828125,0.1674224768087172,0.4071219129949039,0.3974877929655999,-0.06616210937,0.78662109375,0.0534311323990983,0.2299930891898871,1.186570457574,0.93452392909,2.2882979519,0.0942421719222686,0.3054500780864951,970.4611610660986,970.3058982282,971.09279959909,0.0369883911701789,0.7869013708899502,0.1913596280788534,-8.636722169986555e-05,6.548586592254448,0.85,0.15,2.799070304992836,stairs up
-0.8581616210892,-1.05493164062,-0.65893554687,0.0130153060018617,0.1135127875696969,0.5034570312461999,0.30737304687,0.82751464843,0.0176210502420601,0.1320789148185262,0.3007739257782,0.09814453125,0.59167480468,0.0192497128244384,0.138047874652941,1.0539766909601995,0.87643618736,1.33930178655,0.0190865130757833,0.1374614416664744,970.3734373309072,970.36105503254,970.39080587384,0.0001005141133197,0.0297508413000286,0.0099754183965641,-0.0002397792164001,-1.5529565557735907,0.49,0.51,0.1838607679539013,stairs up
-1.0580712890586,-1.66711425781,-0.28881835937,0.0959422835438706,0.3081928952919452,0.4280761718719998,-0.34204101562,1.10217285156,0.1101379165736807,0.3302068100568853,0.2291772460896,-0.04711914062,0.50695800781,0.0152806315094346,0.1229952242745235,1.2012887590428,0.30823179336,1.89134910998,0.1326654671640272,0.362406970810975,970.3866320267532,970.35450827454,970.41628330916,0.0002460955658063,0.0617750346200409,0.0156087991257581,0.0003513569032993,-0.5159119293524936,0.63,0.37,0.0911860305839123,stairs down
-0.9119409179647998,-1.2880859375,-0.58142089843,0.0348187539856868,0.1856625068392375,0.5154370117156,0.22790527343,0.83459472656,0.0234699256552879,0.1524310545746339,0.2851367187476,-0.19384765625,0.75183105468,0.0510144253926938,0.2247315757493079,1.1174288109746002,0.75238384445,1.43859917143,0.0385630562347073,0.195390444168491,970.4855733467584,970.35354621805,970.96729411829,0.0220933100079785,0.6137479002400141,0.1478931266418381,-0.0010554925319109,6.076870772538758,0.86,0.14,2.670711547929785,stairs down
0.2164648437492,-0.83972167968,1.26696777343,0.3656952820839491,0.6016962101119714,0.6558105468714,0.0380859375,1.13879394531,0.0909879550789095,0.300130097671194,0.1566333007802,-0.54296875,0.90686035156,0.2080831341098834,0.4538747655122331,1.0403921043542,0.55368351405,1.45159131299,0.0779610804432816,0.2778155316731749,970.5423810044656,970.36665130586,970.88004780942,0.0239098178013547,0.5133965035599886,0.1538529155503437,0.0001425177315822,-0.6870376955321031,0.62,0.38,0.741491674789761,stairs down
-0.4707055664046,-1.65100097656,0.78039550781,0.6192437280798004,0.7829759196801664,0.7787695312476001,-0.61181640625,1.87463378906,0.4000997052270094,0.6293637328085718,-0.0078002929694,-0.71716308593,0.52038574218,0.0927029133122964,0.3029453485022893,1.2794755884937998,0.33055588044,2.08351181735,0.2949238981976537,0.540346795322853,970.6085479752808,970.38335970343,971.23824225033,0.0442000841304181,0.8548825469000576,0.2091843284978918,-0.0021814212396339,3.741012746625465,0.7,0.3,2.034881815656144,stairs down
-0.9008886718714,-1.58703613281,-0.05432128906,0.1498708236333088,0.3851910115734475,0.3448730468725999,-0.32751464843,1.30114746093,0.1666555856194334,0.4061884165793494,0.1602929687473999,-0.13708496093,0.39758300781,0.0244834216188493,0.1556874670699631,1.0812752837745998,0.14578088316,1.61110732444,0.1259344915705135,0.3530936797151832,970.6726507923064,970.61763024212,970.70216789973,0.0004144081236851,0.0845376576099852,0.0202549757454388,0.0006019159378322,1.1362763474519717,0.34,0.66,-1.2269951182863637,stairs down
-0.949172363278,-1.51025390625,-0.24609375,0.1322699712312482,0.3618663724621781,0.6527490234336,0.01953125,1.72485351562,0.244542043884036,0.49203315279074,-0.0265771484358,-0.2880859375,0.44592285156,0.0501858447763146,0.2228990496358194,1.2739135985668,0.41474383456,1.87434918711,0.1288765982824987,0.3571943900730718,970.7297571313368,970.69575261889,970.7536471942,0.0003053066756766,0.0578945753100015,0.0173854424424527,0.0005525332618088,-1.0464279154728409,0.5,0.5,-0.5761728423446314,stairs down
-0.4435583496053999,-1.0859375,-0.03002929687,0.1180626785076887,0.3418801715844484,0.8586108398404,0.30419921875,1.27075195312,0.0763980847474573,0.2750165520472954,0.2599084472624,-0.11218261718,0.50891113281,0.0230000139650839,0.1508973618902368,1.0851073273777,0.70759228318,1.5882597866,0.0397345881593371,0.198336184993419,970.7581508760294,970.74393051957,970.78757690039,0.0001481594857555,0.0436463808200642,0.0121110648127243,0.0001435026802181,0.3341015251840225,0.68,0.32,1.0698824951490098,stairs down
-0.0931762695304,-0.28186035156,0.09460449218,0.0145095076518952,0.1198516273372052,0.7879760742156,0.58410644531,1.01599121093,0.0111585977400803,0.1051047656516084,0.6125439453086,0.33850097656,0.82373046875,0.0174965834134877,0.1316116164301346,1.0180395619998002,0.86290526509,1.20333272825,0.011239078582171,0.1054831161672297,970.755140533558,970.7289621725,970.79258320402,0.0002807041242013,0.0636210315200287,0.0166702454378853,-1.4873519254791252e-05,0.0420677666017228,0.72,0.28,1.100757457158079,stairs down
-0.1910766601536,-0.30834960937,-0.029296875,0.0054588271209658,0.0735135283451705,0.4986499023406,0.34228515625,0.78588867187,0.0108357766720709,0.1035732538127012,0.8167114257779999,0.33666992187,1.09399414062,0.0256637143667515,0.1593959761822238,0.9889820144984,0.71515253829,1.2001519626,0.0157907859927631,0.1250315085601848,970.7368101911736,970.71607167064,970.75656271009,0.0001140519476333,0.0404910394499893,0.0106259789269972,0.0002963631708593,-0.3376301747075061,0.42,0.58,-0.1358576241890864,stairs down
-0.8843603515594001,-1.14794921875,-0.26440429687,0.033471506918151,0.1820351390500457,0.4996582031219999,0.34875488281,0.81713867187,0.0108134331125655,0.1034664137845702,-0.0466015625002,-0.25439453125,0.33666992187,0.0142415699085855,0.1187398593964962,1.0349948124346002,0.71515253829,1.40907897377,0.0208588283392673,0.1437019138907854,970.7619841704584,970.73359730902,970.80122617144,0.0003342256618992,0.0676288624200651,0.0181902008037371,0.000332588916804,-0.3437324811438498,0.68,0.32,0.8715312752080177,stairs down
-0.9504370117152,-1.07971191406,-0.86157226562,0.0042513720254491,0.0648757142942926,0.4874877929653999,0.35607910156,0.76049804687,0.0096631846343791,0.0978087561930698,-0.0402880859367999,-0.29956054687,0.2822265625,0.0215298196033985,0.145994936238777,1.0815460676086,0.9678785496,1.32124188121,0.0080262904408021,0.0891404932474242,970.760292444906,970.74866761224,970.77519211143,4.0096773042837626e-05,0.0265244991900317,0.0063004607222336,6.646936539542194e-05,0.8397268433053946,0.38,0.62,0.2985410930477369,stairs down
-0.7229858398414,-0.96264648437,0.50048828125,0.0897395835071527,0.2980640663885555,0.4414404296839999,0.12768554687,0.91247558593,0.0304784281323163,0.1737056241202142,0.5296630859337998,0.18774414062,1.31567382812,0.0951461689642485,0.306911562627748,1.0790377265568,0.59848925563,1.59066434485,0.0474841269051236,0.2168162485517919,970.7719931502006,970.76057691388,970.81561586583,0.000264843799817,0.0550389519499958,0.016192447678437,0.0004322276880165,0.9474456644297136,0.7,0.3,1.4876196711327825,stairs down
0.2081958007799999,-1.03369140625,0.91918945312,0.410666671186243,0.6376205803409898,0.6043896484344,-0.03381347656,1.17346191406,0.098666229849708,0.3125373058551747,-0.104523925779,-0.53674316406,0.80444335937,0.1326745976140019,0.3624194415837289,0.9942270427044,0.45901390143,1.59809855375,0.0673309099799983,0.2581813333302745,970.7918445989473,970.74739967644,970.87344482746,0.0011396128133963,0.1260451510200937,0.0335889369474886,-0.0003133931493812,0.3949493666988179,0.62,0.38,0.9078658372884576,stairs down
-1.0776196289028,-1.60705566406,-0.48388671875,0.1140337875452818,0.3359962048443837,0.4457031249959999,-0.21203613281,1.13635253906,0.1359995633657648,0.3669326474056337,0.1343530273414,-0.24291992187,0.38244628906,0.0256280561221011,0.1592852019519708,1.226394581111,0.51966364328,1.82394300496,0.148310303603021,0.3831803760202117,970.8636933302236,970.79139944449,970.97505464863,0.0017216537153762,0.1836552041399954,0.041284829880024,0.0013426392680134,0.9505444724988092,0.5,0.5,0.8079180968347554,stairs down
-0.8651782226527999,-1.29260253906,-0.5234375,0.0470045830323068,0.2157186528837592,0.3405493164035998,-0.00756835937,0.69409179687,0.0365949636093444,0.190339207661614,0.0938720703106,-0.58959960937,0.39318847656,0.0441497461950214,0.2090651781934792,0.9721606853126002,0.59179784441,1.43080064037,0.0552470315976533,0.2338686838413319,970.938884826066,970.89868196136,970.98782121495,0.0006641884310565,0.0891392535900195,0.025642670429305,0.0007393069880499,-0.999302580383103,0.48,0.52,0.2764790045780096,stairs down
-0.7741967773403999,-1.373046875,-0.28576660156,0.0812794796683755,0.2836665029073608,0.6867309570268,0.0126953125,1.25280761718,0.1257202253494358,0.3527931732558632,0.1851025390597999,-0.14526367187,0.4453125,0.0221869046995012,0.1482060580830156,1.1043700543594002,0.36842027648,1.6244991842,0.1136409434401909,0.3354169554536399,971.0400277534244,970.98782121495,971.09306022346,0.0009218721260358,0.1052390085100114,0.0302101540011882,0.0009836679347917,-1.0521605517830246,0.5,0.5,-0.0580277187519463,stairs down
-0.9609741210906,-1.28698730468,-0.52319335937,0.0317253020378549,0.1772231616281471,0.5064428710897999,0.03039550781,1.04418945312,0.0651961085109633,0.2540554022764595,0.2052172851528,-0.14526367187,0.80883789062,0.039114009858042,0.1967812739044587,1.139406738255,0.56437149249,1.66759391164,0.0590880083125189,0.2418617957210144,971.1063700872704,971.07017400156,971.11836668763,0.0001684537149261,0.0481926860700241,0.0129139141152828,0.0003669345192231,0.4637049263122579,0.34,0.66,-1.2793310778495717,stairs down
-0.4748730468727998,-1.88366699218,0.16125488281,0.2833842149630932,0.5296700603332817,0.6883764648408,-0.25915527343,1.75061035156,0.3414216738078352,0.5813840873895302,0.2926391601558001,-0.23120117187,1.39904785156,0.2530357971616865,0.5005051839792168,1.1595555800066,0.32086736025,2.32989982824,0.3126246181813809,0.5563257786581232,971.1241003128443,971.09223232272,971.20315411788,0.0008617483924053,0.1109217951600385,0.0292084047575568,6.025927284617797e-06,1.659465969937551,0.7,0.3,1.4747987578340414,stairs down
-0.3661840820309999,-1.74633789062,0.46643066406,0.4900692480274903,0.6965404191769602,0.4918749999978,-0.65002441406,1.1435546875,0.207412146652359,0.4531423895265543,0.5706591796843999,-0.06018066406,1.19995117187,0.1114135248253182,0.332113519112163,1.1847095032152,0.5002690128,1.8358436601,0.0999525860785884,0.3145680533967214,971.1600093787714,971.05729573547,971.27492148856,0.0032992072100253,0.2176257530900329,0.0571508104747876,0.0001109825025871,-0.2686499756137244,0.72,0.28,0.5064871391268162,stairs down
-0.8139013671841999,-1.12121582031,-0.0732421875,0.1018664260342656,0.3175653661436067,0.5687207031208,0.29553222656,0.8916015625,0.0314350615608261,0.1764106316105066,0.2219824218711999,-0.14270019531,0.79235839843,0.0391342809940011,0.196832259002586,1.087281726199,0.71959119789,1.32770307795,0.0239239677406091,0.1538984342454565,971.1382790933076,971.0811014384,971.18342609283,0.0008145296898679,0.1023246544300491,0.0283969081586231,0.0005669848705266,-0.682868371101931,0.42,0.58,-0.4625748597838967,stairs down
-1.0168994140602,-1.17102050781,-0.90747070312,0.0062382595469111,0.078586747937817,0.3879833984335999,0.20068359375,0.61596679687,0.0116726724546532,0.1074985847818785,0.1633618164019999,0.01232910156,0.26684570312,0.0042509351174585,0.0648723806121219,1.1056719109534,0.93580857122,1.29803706006,0.0108409016249073,0.1035977442257229,971.1658843701816,971.1561213717,971.17368933323,2.7358808958931124e-05,0.0175679615299486,0.0052043463440994,0.0001308214018221,-1.0228044483803334,0.36,0.64,-0.533534731119077,stairs down
-1.0127343749956,-1.16125488281,-0.89990234375,0.0045491465655543,0.06710927730127,0.3737939453095999,0.24548339843,0.57153320312,0.0078399094910137,0.0880994347093306,0.131542968747,-0.00170898437,0.24914550781,0.0039591325652564,0.0626062396219727,1.0920151112974,0.98711227368,1.31804271144,0.0064081655668823,0.0796497577599175,971.174225366535,971.16492227275,971.18124543761,2.0668214715686372e-05,0.0163231648599548,0.0045234425572266,4.140869974625281e-05,-0.5209839639885621,0.52,0.48,-0.2033988396909177,stairs down
-0.9740600585896,-1.08923339843,-0.35949707031,0.0195667630792807,0.1391800828009812,0.3575341796839999,0.16076660156,0.69165039062,0.0213669669989044,0.145441731731011,0.1586450195286,-0.04248046875,0.29077148437,0.0075818444080288,0.0866373243120342,1.0687829029843998,0.70893436181,1.21663490797,0.0076014693256798,0.0867493782826312,971.1727399283257,971.16894573365,971.17773478765,7.611575298364443e-06,0.0087890539999762,0.0027450791510229,2.050655305891864e-05,-0.9128532649942374,0.48,0.52,0.3678081297436448,stairs down
-0.9601562499958,-1.71533203125,-0.26843261718,0.139427852149792,0.3715286982566678,0.598461914059,-0.04077148437,1.39404296875,0.128806897486014,0.3570977856430279,0.0982836914054,-0.11560058593,0.376953125,0.0255411273348982,0.159014829690659,1.20197207955,0.44900396436,1.80241621026,0.1371895042076968,0.3685344070309037,971.2089268566566,971.1697393054,971.23923564892,0.0005356852990953,0.0694963435200861,0.0230288611551754,0.0006947963341943,-1.459493217328267,0.54,0.46,-0.2091838205770332,stairs down
-0.6700439453091999,-1.12072753906,-0.26916503906,0.0370013707812895,0.1913932001756506,0.6083300781217998,0.140625,1.09985351562,0.0325450440606395,0.1794981716342346,0.2601660156213999,-0.02807617187,0.59887695312,0.0333661551662381,0.1817484349714619,0.9776496508668,0.71231266788,1.42723383133,0.0331265987355002,0.1810948170107174,971.2649909768234,971.23638598541,971.2929405731,0.0003440755854692,0.0565545876900159,0.0184562951215725,0.0006079827135502,-1.421134330871969,0.42,0.58,-0.2555079554361484,stairs down
-0.7957763671846,-1.25439453125,-0.09606933593,0.0625562101903824,0.2488586910045108,0.7528369140592,0.45593261718,1.26037597656,0.0463677154405574,0.2142522772017881,0.0792480468734,-0.36071777343,0.48693847656,0.0594836527638906,0.2426701799485296,1.1475746843848,0.75374052963,1.57611165646,0.0566662071129367,0.2368534252270955,971.3492549495146,971.2929405731,971.62877884773,0.0045029812467571,0.3358382746299639,0.0667678922408784,0.0016089562476036,5.973814177310466,0.62,0.38,2.497405320550499,stairs down
-0.2142602539022,-0.91101074218,0.06860351562,0.0715051301134072,0.266064050206474,1.0560327148398,0.60327148437,1.57568359375,0.08040126916712,0.2821298574689478,-0.0296533203124,-0.40844726562,0.31970214843,0.0329957200046412,0.1807367223466078,1.1224497089254002,0.68676855451,1.59071069647,0.0860117370172179,0.2918075044392206,971.3978167190096,971.29341427881,971.62877884773,0.0026905363885268,0.3353645689199993,0.0516103771023,0.0009178525422467,6.042905684081299,0.56,0.44,1.5098082423395296,stairs down
-0.4664208984339999,-0.994140625,-0.08605957031,0.0373408143210472,0.1922690983435371,0.8623437499964001,-0.08972167968,1.3359375,0.135970868510075,0.3668939353886546,0.2576074218706,-0.07141113281,0.67016601562,0.0323017188030968,0.1788258974954854,1.0627560167322,0.38127602504,1.53248817636,0.1026805030046622,0.3188317706481203,971.5111772366888,971.45672327214,971.6369266703,0.0013383475733436,0.1802033981599606,0.0364000562858108,0.0005810053658054,3.448421529857849,0.5,0.5,1.2769644166188263,stairs down
-0.9771728515584,-1.50891113281,-0.56689453125,0.0634392066433824,0.2506088876655187,0.4698632812470001,-0.27185058593,0.87829589843,0.0625156059644242,0.2487779128153863,0.1700341796851999,-0.15856933593,0.40490722656,0.0219988918303113,0.1475767695540468,1.1318326520981998,0.60642994294,1.58949327003,0.070685779987015,0.2645352947852988,971.5713979215626,971.54467772901,971.60374078774,0.0003009058992744,0.0590630587299756,0.0172596883019845,0.0005770706530339,-1.1377808492657715,0.5,0.5,0.3286338985452782,stairs down
-0.8645825195271999,-1.53674316406,-0.50659179687,0.0909206485568241,0.3000190695126826,0.6419897460906,-0.27185058593,0.87805175781,0.0574255264705221,0.238435046093935,0.213146972654,-0.06140136718,1.162109375,0.0553683164441749,0.234125251264645,1.1648286454165997,0.84604919612,1.69217703966,0.0504413863478959,0.2234658194991283,971.6267503749056,971.60028684636,971.64426150088,0.0001846388012032,0.0439746545200705,0.0135200744521317,0.0003891705208184,-0.9736265804963362,0.42,0.58,-0.4834528909500798,stairs down
-0.2175634765626,-1.32189941406,0.74963378906,0.527341795108445,0.7225429932933822,0.4411840820275999,-0.03820800781,0.79345703125,0.0469305164227412,0.2155486285238526,0.0027221679694,-1.01293945312,1.20275878906,0.2940950660053287,0.5395869858931694,0.9883500953473998,0.13679387889,1.51067546951,0.1260933975291295,0.3533163788360769,971.6349654013712,971.27921799303,972.14538951952,0.0766771308097116,0.8661715264900067,0.2755183469419315,-0.0058438541990083,-0.6341161322247828,0.54,0.46,0.7361361081403296,stairs down
-0.9256640624964,-1.14831542968,-0.39367675781,0.0224477799008428,0.149074820482315,0.4128271484341999,0.22741699218,1.04284667968,0.0402972099996266,0.1997354197422939,0.335317382809,0.12805175781,0.97302246093,0.0388963197454061,0.1962329140280806,1.1066539121694,0.93253015241,1.4525242148,0.0158181550740548,0.1251398158993142,971.6371340994924,971.54848626891,971.65802616524,0.0006988407020433,0.109539896330034,0.0263030852757414,0.000768019708367,1.8087619395999,0.34,0.66,-1.6041540711804267,stairs down
-0.6676904296848,-1.02294921875,0.34741210937,0.1842349057468384,0.4270744158684409,0.5531982421849999,-0.19116210937,1.42443847656,0.1449826365762352,0.3788572425208114,0.0781372070304,-0.24230957031,0.90515136718,0.0665354971014347,0.2566517915979167,1.0420539097168002,0.44424489524,1.47195532229,0.0645084711605961,0.2527120623337757,971.6451029903384,971.59916141848,971.75116014202,0.0013166437723213,0.1519987235400322,0.0361037025053955,-0.0001187306659425,3.2519793965684505,0.48,0.52,1.7706224158278945,stairs down
-0.464873046872,-1.01416015625,0.65246582031,0.2596176673407153,0.5069728697546922,0.4375073242157999,-0.07153320312,0.95532226562,0.0618869809246003,0.2475239606893731,0.4154809570294,-0.11083984375,1.19445800781,0.1987732581948896,0.4436051460622845,1.0279081617204,0.48800741528,1.37461372389,0.0390141137077966,0.1965298261606076,971.6495614929048,971.61197011654,971.73346186574,0.0007022452175004,0.121491749200004,0.0263670772996444,0.000198778032632,2.7685678921504566,0.66,0.34,1.7091993323120127,stairs down
-0.8899145507783999,-1.39501953125,0.41711425781,0.1195760879182242,0.3440644228034075,0.4539160156205999,0.17541503906,0.72302246093,0.0304901336416798,0.1737389775072451,0.18675048828,-0.21252441406,0.46789550781,0.0331296806438115,0.1811032408251532,1.0719831308996,0.62442435935,1.57298055944,0.0657368808536473,0.2551068639709855,971.6240178095802,971.56549771271,971.69077484655,0.0009473232353414,0.1252771338399725,0.0306243367762964,0.0009066847032196,-0.5594060768628166,0.42,0.58,-0.1879736775985775,stairs down
-0.8120849609335999,-1.75952148437,-0.07641601562,0.240598423313161,0.4880496276814781,0.6782910156215999,-0.17724609375,1.27917480468,0.1457891958884737,0.3799095996807517,0.1462377929654,-0.20361328125,0.36853027343,0.021464947190608,0.1457748185342788,1.1668248117592,0.3834063925,1.87286677603,0.1850909870017006,0.4280655056550149,971.694522167857,971.65556044926,971.74808507277,0.0006408131262698,0.0925246235100303,0.0251873975433571,0.0006663533970517,-0.8254040760290864,0.54,0.46,0.3309284076622059,stairs down
-1.0157519531216,-1.3037109375,-0.60266113281,0.0281165783815729,0.1668394815316722,0.259650878903,0.04370117187,0.51208496093,0.017969000465625,0.1333765738837551,0.1871240234346,0.01000976562,0.34155273437,0.0073407670705187,0.0852488087882378,1.075295276997,0.61790488596,1.35947893556,0.0311294535926949,0.1755510155389823,971.768487673274,971.74808507277,971.78922735976,0.0001132697361615,0.0411422869900661,0.0105894777397163,0.0003508048521212,-0.4043453832485095,0.46,0.54,0.0416414244031325,stairs down
-0.9406323242142,-1.28356933593,-0.63098144531,0.0425293678044452,0.2051927730852156,0.3588623046835998,0.15954589843,0.68823242187,0.0233815944557908,0.1521439401068376,0.1976879882782,0.03967285156,0.47631835937,0.0159098085792576,0.1255018346219091,1.0388514432377998,0.68491052507,1.39809740182,0.0549920260661132,0.2333283219102475,971.8306114544636,971.78786352157,971.88586351154,0.0007906870231335,0.0979999899700487,0.027978208536327,0.0009115555569412,-1.0198722576311827,0.54,0.46,0.2435904097569207,stairs down
-0.8068261718713999,-1.24548339843,-0.35705566406,0.0600855460315471,0.2438948350646887,0.7088330078083999,-0.07849121093,1.30578613281,0.1217296470046456,0.3471488881367751,0.1805151367174,-0.34497070312,0.54907226562,0.0561415873925295,0.2357544729556668,1.151821271165,0.36558285576,1.66776570104,0.0958418091675161,0.3080314774107363,971.9262608333744,971.8804422536,972.05625486392,0.0018896658897161,0.1758126103200084,0.0432523898856349,0.0010381863431055,3.719901324515278,0.62,0.38,1.9953002694962512,stairs down
-1.0719775390585995,-1.65161132812,-0.48889160156,0.1269260643467139,0.3544810343350498,0.4400952148405999,-0.13464355468,0.99914550781,0.0987424439903515,0.3126579913426939,0.1517846679662,-0.06665039062,0.38488769531,0.0120011068894616,0.1090004395429991,1.2215905527588005,0.51895054651,1.73531154743,0.1099673417042027,0.3299510089197496,972.0227686612792,971.95909220373,972.07751518025,0.0013585979915978,0.1184229765199234,0.0366744054032486,0.0012544550754112,-1.2592315252681996,0.46,0.54,-0.197460220182226,stairs down
-0.8483520507777998,-1.30517578125,-0.43115234375,0.0611200671303661,0.2459855005057461,0.6194653320283999,-0.00634765625,1.11291503906,0.1038074972711773,0.3205767026757646,0.0408154296874,-0.10925292968,0.16943359375,0.006348804247049,0.0792799861540006,1.0974302430162,0.49800859191,1.42338549898,0.0710251167868075,0.2651695035612871,972.0948241172672,972.07356559115,972.13517404293,0.0003383449959809,0.061608451779989,0.0183019547049241,0.000606215975948,-0.8674943305881166,0.54,0.46,0.5756775274599609,stairs down
-1.1861108398396,-1.56311035156,-0.50207519531,0.0606846628099566,0.245107764425889,0.3359472656221999,-0.28479003906,0.70861816406,0.0645034402543014,0.2527022078489985,0.1261572265608,-0.04467773437,0.33410644531,0.0133652899237289,0.1150288530086762,1.2656714095632,0.5045812802,1.67157160599,0.071594825811501,0.2662308726526396,972.1756831659726,972.13517404293,972.19774189624,0.0002580853205512,0.0625678533100426,0.0159845071036231,0.0005092420549087,-0.2151389894863733,0.42,0.58,-0.9291178641200076,stairs down
-1.037878417964,-1.18298339843,-0.96630859375,0.0014622134692727,0.0380472250575518,0.377102050777,0.21862792968,0.54504394531,0.0093701038034725,0.0963140839412273,0.122680664061,-0.01892089843,0.23303222656,0.0062483591259327,0.0786503371554974,1.11764146675,1.04347121889,1.24341509397,0.0022581150971833,0.0472814334195941,972.1978736611726,972.19337667092,972.20664024273,9.885356526359626e-06,0.0132635718100573,0.0031283386902789,-3.2315791162911444e-06,0.3827665536712383,0.42,0.58,0.4809701240741036,stairs down
-1.0132983398398,-1.10046386718,-0.91772460937,0.00202020876934,0.0447214342530135,0.3741528320274,0.17199707031,0.5400390625,0.011763177381593,0.1079145291783138,0.0881298828102,-0.02941894531,0.2080078125,0.0047272702417135,0.0684105075211143,1.0907146716005998,0.98716365814,1.22746658414,0.003230099459961,0.0565490801460241,972.2003558694034,972.19121816542,972.20584637532,1.2330937290032652e-05,0.0146282099000245,0.0034939416018491,-2.6813386688313726e-05,1.3804426664753704,0.5,0.5,-1.0312722951814786,stairs down
-0.9961071777309,-1.14733886718,-0.86840820312,0.0052986659469043,0.0724270618445573,0.3403295898398999,0.10778808593,0.52978515625,0.013841602230599,0.1170606091231932,0.1397521972608,0.01342773437,0.2509765625,0.0029290142008461,0.0538490859610234,1.0684899510987995,0.9493529064,1.2424501885,0.0060180074462985,0.0771869637428209,972.2026395411168,972.19473851796,972.20838737165,1.536935366555073e-05,0.0136488536900287,0.0039007255900531,8.826439348357819e-05,-1.02066822186302,0.48,0.52,-0.3554527783695802,stairs down
-0.9532385253876998,-1.22229003906,-0.74230957031,0.0173641359731414,0.1311125265312588,0.4064013671839999,0.02233886718,0.71362304687,0.0292586934444865,0.1701943198524607,0.1572375488248,0.04760742187,0.27685546875,0.004695737029282,0.0681819599233495,1.0620460303405002,0.79083537179,1.30494138109,0.0216293075903776,0.1463318643169485,972.241892503832,972.20630630694,972.28917882716,0.0007219792564632,0.0828725202200075,0.0267349857658194,0.0009143759800846,-1.2513487783040236,0.5,0.5,0.2587622087962587,stairs down
-1.0485681152293995,-1.36462402343,-0.75634765625,0.0211651850995634,0.144753353151379,0.3118334960912,0.02490234375,0.61462402343,0.0237715543579475,0.1534074275071715,0.185885009761,0.06811523437,0.32067871093,0.0056658606501794,0.0748946062388853,1.1235164677654002,0.81083940489,1.405516889,0.0192886658436342,0.1381874783951061,972.3316055739672,972.28917882716,972.35607799919,0.0002966826042534,0.0668991720300482,0.017138138119728,0.0005644907344424,-0.5116503292453793,0.34,0.66,-0.65098599087148,stairs down
-0.9149096679648,-1.15112304687,-0.65075683593,0.0212716312179798,0.1451169008275744,0.4166967773395998,0.23510742187,0.65759277343,0.018631079636371,0.1358115195408964,0.151184082028,0.01501464843,0.28344726562,0.005773959888371,0.0756056895311942,1.026415051311,0.71119243117,1.2862666762,0.0254995736549068,0.158885423870026,972.401582438558,972.35607799919,972.46091065877,0.0009923791792911,0.1048326595799835,0.0313441443893144,0.0010691746779223,-1.0282957338289656,0.5,0.5,0.3933030951533167,stairs down
-0.9364575195274,-1.21923828125,-0.58959960937,0.0283609804543294,0.1675630348549051,0.4214794921838,0.2060546875,0.61669921875,0.0175426696045156,0.1317848356544505,0.0505810546846,-0.04565429687,0.20300292968,0.0038273007939112,0.061555079286539,1.0365940041651998,0.65314262265,1.30256746701,0.0321844476512167,0.1785009892821453,972.5004869761548,972.45599345985,972.53916420524,0.0006876847444728,0.0831707453900207,0.0260922957408524,0.0008955190177604,-1.2175506285477515,0.42,0.58,-0.0396827123865148,stairs down
-0.9794360351528002,-1.24182128906,-0.70007324218,0.0299622947581369,0.1722285452837467,0.4528735351525998,0.18029785156,0.734375,0.0236233752244475,0.1529285502193852,0.1100878906222,-0.10705566406,0.28649902343,0.0077041612487605,0.0873333821414983,1.0979168551118,0.73172947007,1.35310593166,0.0320850925653351,0.1782252553362787,972.6085771854102,972.53916420524,972.66096751479,0.001157189098653,0.1218033095499322,0.033846967481098,0.0011575851474103,-0.9787203515383412,0.42,0.58,-0.3432925141707993,stairs down
-0.8606408691368997,-1.17944335937,-0.55822753906,0.0372378828114508,0.1920039165833247,0.5229919433562998,-0.01831054687,0.953125,0.087221409447715,0.293852335966958,-0.0401831054674999,-0.19409179687,0.14758300781,0.0076516666128816,0.0870353373449706,1.0477520783881,0.62210066165,1.39541341623,0.0565513471169898,0.2366132575445,972.6941928208008,972.66027567896,972.7412734608,0.0004565178036662,0.0809977818399829,0.0212591774448012,0.0006058575525511,-0.4552014704501399,0.62,0.38,0.5818932082133822,stairs down
-1.0868725585898,-1.38708496093,-0.88073730468,0.0159518306967461,0.12566746750762,0.3577600097627998,-0.00354003906,0.7216796875,0.0305965021567253,0.1740417683636836,0.1995288085907,0.04565429687,0.30249023437,0.0067510542905811,0.0817529433578716,1.1735541655581,0.90917133692,1.56263943526,0.0248817600333697,0.1569488529204211,972.767356034566,972.7412734608,972.78175392616,0.0001652401079486,0.0404804653600194,0.0127901410027082,0.0004102940916711,-1.0447611382504516,0.42,0.58,-0.6162183175066505,stairs down
-0.7837878417933999,-0.83032226562,-0.63000488281,0.0009687480586808,0.0309687032032992,0.6713146972608999,0.43725585937,0.72631835937,0.0033783509559717,0.0578322353572126,-0.2365649414029999,-0.50769042968,-0.17700195312,0.0036657855426553,0.0602422417181566,1.0620040673648,0.91970017468,1.08354305872,0.0010402947640849,0.0320919275900354,972.7234863284276,972.57462418599,972.79490942747,0.0038311783930105,0.2202852414799281,0.0615862534099977,0.0018136717821585,-0.4486765572051383,0.36,0.64,-0.8147003414157268,lift up
-0.7473791503858999,-0.78002929687,-0.72607421875,0.0002001979901699,0.0140782104781913,0.6706506347627998,0.64831542968,0.69982910156,0.0001583130838491,0.0125191834003129,-0.2316662597613,-0.24060058593,-0.22119140625,2.104305708753184e-05,0.004564277217332,1.0305909203405,1.00857994519,1.07333885916,0.0002780179347694,0.0165902909987049,972.6660507480166,972.56069999627,972.77572207912,0.0036726241501914,0.2150220828499414,0.0602984071820267,-0.0020780320285114,-1.1051791356123697,0.46,0.54,0.098213294646623,lift up
-0.7398278808561,-0.74633789062,-0.73266601562,1.5802472227497413e-05,0.0039553062467048,0.6763403320275999,0.654296875,0.68530273437,4.138464276674322e-05,0.006400843408417,-0.2090246581986,-0.22729492187,-0.18493652343,0.0002153359443864,0.0146007734364515,1.0240673822390003,1.00857994519,1.03676215068,2.8929513266963277e-05,0.0053516556442183,972.451803733869,972.34785879945,972.56069999627,0.0040758585286174,0.2128411968200225,0.063522436534907,-0.0021939168201168,-1.1824945659037946,0.54,0.46,0.0279963727028339,lift up
-0.7394946289021002,-0.75122070312,-0.73278808593,2.3390253393650492e-05,0.0048121046185337,0.6736572265591998,0.63000488281,0.69030761718,0.0002015467845906,0.0141255554490706,-0.1962292480431,-0.2119140625,-0.17602539062,7.175029378036273e-05,0.0084280953270925,1.0195076684424,0.99495798321,1.03032872923,7.082556171717019e-05,0.0083736077111361,972.2376818882202,972.13160076594,972.34785879945,0.003855120976486,0.2162580335100301,0.0617783923934672,-0.0021320952440661,-1.184417981787304,0.47,0.53,-0.05212616116246,lift up
-0.7420385742144999,-0.7470703125,-0.73657226562,7.82132751416817e-06,0.0027826451874118,0.6871154785121999,0.63208007812,0.72998046875,0.000417486999696,0.0203300794316956,-0.1601684570280999,-0.20959472656,-0.12487792968,0.0006105446755247,0.0245853458135025,1.0243464787857997,0.99693283941,1.0531323659,0.0001440878106994,0.0119434891297513,972.0207079210364,971.92224658763,972.13160076594,0.0035896542284364,0.2093541783100363,0.0596134019005133,-0.0020526324401555,-1.0876978005569111,0.47,0.53,-0.0684984515176776,lift up
-0.7410534667934999,-0.74499511718,-0.73706054687,3.700995385851466e-06,0.0019141539729062,0.6916394042930998,0.67736816406,0.70422363281,3.32112550054456e-05,0.0057340336984875,-0.1605053710898999,-0.17651367187,-0.14526367187,6.387601597863363e-05,0.0079521856001257,1.0263364457778,1.01509069179,1.0340335876,2.076850517775494e-05,0.0045344040541153,971.823272350514,971.72755654116,971.92224658763,0.0035483253199826,0.1946900464699865,0.059269233728662,-0.0020353343319673,-1.4041453754163835,0.55,0.45,0.0428511627315834,lift up
-0.7383374023403999,-0.7490234375,-0.73156738281,1.9680195384713465e-05,0.0044139997089789,0.6890588378868,0.67883300781,0.69921875,1.991754078630966e-05,0.0044405366092902,-0.1645397949188999,-0.17712402343,-0.15234375,4.658286469266127e-05,0.0067909525138771,1.0232714863496002,1.01401293534,1.03068579064,1.851504709207929e-05,0.004281342852559,971.6261134197036,971.51633313636,971.72755654116,0.0037627325547983,0.2112234047999663,0.0610336401441887,-0.0021065486675959,-1.1983043331959244,0.47,0.53,-0.1088140028878508,lift up
-0.7228735351519998,-0.73791503906,-0.70178222656,0.0001436615170824,0.0119258082288637,0.6699719238246999,0.63256835937,0.69677734375,0.0003873278682289,0.0195819965669157,-0.1676721191365,-0.1845703125,-0.15380859375,6.039072015706951e-05,0.0077321932823422,0.9998421871787,0.9652812213,1.02846042153,0.0004278112269377,0.0205799201812925,971.4178795748828,971.3282022376,971.51633313636,0.0030413821420348,0.1881308987600505,0.0548722910093473,-0.0018912595902104,-1.029278359279855,0.47,0.53,0.0909530937351096,lift up
-0.3720751953112001,-0.77612304687,0.06164550781,0.1212484715904271,0.3464621001993189,0.3094140624992,-0.35900878906,1.205078125,0.2705114074636808,0.51750004192178,-0.5245629882777,-0.97436523437,-0.16125488281,0.1194279758559643,0.3438512703152407,0.9934204130485996,0.58115046376,1.36196397465,0.0288234353616968,0.1689236543769992,971.3339929186886,971.30344669423,971.39696038362,0.0008114186032328,0.0935136893899653,0.0283426254464988,0.0006908190183763,-0.1535104282089356,0.69,0.31,1.0106143272772707,lift up
-0.0501184082031,-0.29016113281,0.11987304687,0.021494150237316,0.145873948102267,0.6883447265592,-0.37023925781,1.01611328125,0.1802845168819543,0.4224709122686848,-0.5694580078084999,-0.93725585937,-0.09497070312,0.0485070985975242,0.2191392881515064,1.0221633791277998,0.86442584974,1.10818090782,0.0036138126366592,0.0598136649127325,971.2111689208572,971.10472273399,971.37264826573,0.0027468212320444,0.2679255317400475,0.0521474162324845,7.57810798406944e-05,0.1357731846752359,0.48,0.52,0.35246372651109,lift up
-0.1585095214843,-0.82214355468,0.21545410156,0.1112756351298801,0.3319079372033475,0.8400939941355,0.50231933593,1.02905273437,0.0240389642615415,0.1542678664496471,0.3262915039035,-0.09497070312,0.68115234375,0.0483958233420543,0.2188877911365404,1.0091469646726998,0.91521019083,1.04809471501,0.0008535910129923,0.0290698314900936,971.2409555898043,971.19470577357,971.29077572207,0.0005412540402808,0.0960699484999167,0.0231482504712129,0.00036207850412,0.2605765396199486,0.37,0.63,0.1440965663735754,lift up
-0.6673010253870999,-0.69226074218,-0.63818359375,0.0003988575619178,0.0198713106336411,0.7427539062462,0.70190429687,0.77563476562,0.0004674218880923,0.0215115705891372,-0.0797106933555999,-0.09497070312,-0.06176757812,6.98787681351316e-05,0.0083174503577586,1.0017280114614002,0.95164102972,1.03262510518,0.0008036424775532,0.0282064895507711,971.1620334461848,971.15451781547,971.16915846575,1.0017892974112878e-05,0.0146406502800573,0.003149240232877,-5.2135221176336165e-05,-0.0615670250598636,0.28,0.72,-0.8593522524406976,lift down
-0.6632873535122,-0.70141601562,-0.63732910156,0.0003063430012206,0.0174149238071392,0.7409179687452999,0.71545410156,0.78930664062,0.0003530937011594,0.0186965976623527,-0.0673754882774999,-0.09594726562,-0.01928710937,0.0004590863591745,0.0213188999618367,0.997083058552,0.96763363472,1.03868231594,0.0003855740824719,0.0195376135095171,971.2330562389784,971.16291648723,971.32016021479,0.0025571590552541,0.1572437275600577,0.0503148831331402,0.0017291422937299,-1.3133115456559803,0.49,0.51,0.1795620010615932,lift down
-0.7146826171832,-0.76745605468,-0.62866210937,0.001198177048618,0.0344411857828943,0.7601708984337999,0.71057128906,0.93688964843,0.0016732248633324,0.0407000321215981,-0.0009912109396,-0.19750976562,0.06420898437,0.0030687160199334,0.0551183169167393,1.0450618334371,0.96183843944,1.22176856579,0.0023823249265125,0.0485644075146335,971.4598073292934,971.32016021479,971.57164932416,0.0060492016125535,0.2514891093700271,0.07738675336534,0.0026574427004395,-1.4015218713281707,0.57,0.43,-0.0258715275625934,lift down
0.6138513183573999,-0.75891113281,0.96301269531,0.2422691625925701,0.4897412285755044,0.5044335937460999,-0.00952148437,1.52490234375,0.1651603564107549,0.4043621555569306,-0.1757958984341,-0.388671875,0.19006347656,0.0206222399552003,0.1428846302288959,1.0096747937637,0.24341818158,1.60354433951,0.0671706481408828,0.2578738871221241,971.6014936514669,971.57164932416,971.61938788821,0.0001511240288072,0.0477385640499505,0.0122316306565887,0.0002904636113173,-0.7836675140463516,0.45,0.55,-0.3050214194634899,lift down
-0.3678222656235999,-0.91296386718,0.93408203125,0.3665959642355496,0.6024367224806222,0.6779016113237999,0.21752929687,1.2431640625,0.091779692803708,0.3014330703086026,0.0780432128884999,-0.1806640625,0.28662109375,0.0207283229096545,0.1432516655420035,1.0228058431543,0.59720695661,1.3446286733,0.029409802181917,0.1706332445923064,971.6536270046876,971.60997052589,971.70305104702,0.0006883005959293,0.0930805211299912,0.0261039765164251,0.0006121170305521,-0.8665230869823599,0.49,0.51,-0.2060172810306846,lift down
-0.5211791992142,-0.64038085937,-0.44079589843,0.0027966913250309,0.0526186698024633,0.8452416992148,0.720703125,1.10668945312,0.0065127772454721,0.0802972569457851,0.2576635742147,0.15881347656,0.35192871093,0.0024834328167041,0.0495842564584475,1.0291151080208,0.89374889493,1.25346940295,0.0050998707898855,0.0710554155711349,971.675032212688,971.62112528655,971.70845465001,0.0006926993733568,0.0873293634600713,0.0261872560537234,-0.0001523532871149,-0.8414238550394741,0.4,0.6,-0.4080330250392882,lift down
-0.6148498535119999,-0.720703125,-0.39758300781,0.0065271726085735,0.0803859495340314,0.7779833984339,0.66088867187,0.92431640625,0.0053045012494604,0.0724669320239643,0.2497375488245,0.18969726562,0.36059570312,0.0022523666195122,0.0472212129589779,1.0290977747527998,0.99296933255,1.07733528958,0.0005740646155261,0.0238395463331598,971.6694935013178,971.62224284499,971.69449499768,0.0002701369434665,0.0722521526899981,0.0163534575558781,0.0001754615873523,1.7020034510576163,0.44,0.56,-1.0767806575993513,lift down
-0.8240441894494,-0.92785644531,-0.79736328125,0.0011303961442333,0.033452835198097,0.5400634765589999,0.42883300781,0.67065429687,0.0035907809781918,0.0596227571352578,0.0915624999974,0.03771972656,0.18078613281,0.0020582705073504,0.0451407554464587,0.9920802417425004,0.91272433867,1.05839368471,0.0011835415622761,0.0342301934942444,971.6626237823784,971.60220556809,971.73677944126,0.0013162331214991,0.1345738731699839,0.0360980718360995,0.0007590433423295,-0.3792956149017317,0.6,0.4,0.5226715528691905,lift down
-0.8220800781207999,-0.88342285156,-0.78601074218,0.0007430039512172,0.0271214658841498,0.5591308593708,0.51647949218,0.63708496093,0.0008931015477504,0.0297350051668562,0.0989648437471999,0.0615234375,0.13220214843,0.0006041665510473,0.0244565918626639,0.9996042221039998,0.94540640467,1.06918864171,0.0012588702265346,0.0353027127041158,971.6841269301876,971.58488656502,971.776321885,0.004377851585388,0.1914353199799734,0.0658336773204578,0.0020273710427395,-1.3548468108200495,0.53,0.47,-0.1730824996354158,lift down
-0.8090527343711998,-0.82629394531,-0.79174804687,9.18372472149197e-05,0.0095351389472188,0.5769531249972001,0.53918457031,0.64184570312,0.0006053833046335,0.0244812064977859,0.2402685546823999,0.13903808593,0.27282714843,0.0009773614671553,0.0311060742055923,1.0230992731967998,0.98962827714,1.04142692986,9.689615232929406e-05,0.0097942427377516,971.9102177124186,971.776321885,972.00506213701,0.0032523472867125,0.2287402520099704,0.0567434913787068,0.0019195753486608,-0.8531067932316252,0.53,0.47,-0.0270560531675337,lift down
-0.8548876953087998,-0.865234375,-0.82861328125,6.740777179016436e-05,0.0081690693516619,0.5530175781223998,0.52941894531,0.58361816406,0.0001361727955451,0.0116108168355947,0.2917480468712,0.2783203125,0.29821777343,2.26232740551018e-05,0.0047325512479582,1.0592180028335998,1.03577252163,1.06883361723,6.010144557555279e-05,0.0077136522555659,972.112780269234,972.00506213701,972.1700975263,0.0023104988400498,0.1650353892899829,0.0478267064687648,0.0016198841990513,-1.0155641541375422,0.45,0.55,-0.4646128610912837,lift down
-0.823378761211881,-0.84448242187,-0.81396484375,5.519011233561576e-05,0.0073921360633999,0.5329384378833661,0.52502441406,0.54162597656,2.1486004979665613e-05,0.0046122957686053,0.28403948793,0.27490234375,0.29772949218,3.249567333436581e-05,0.0056722071536943,1.021131968329901,1.01324643595,1.04255905391,5.2507709100383294e-05,0.0072102587188296,972.1888559290928,972.16940862921,972.20028789394,6.181711695405914e-05,0.0308792647299469,0.0078233666852032,0.0002455481919074,-0.4566796958168262,0.29,0.71,-0.4539833929993017,lift down
-0.8230859374955999,-0.84460449218,-0.80822753906,6.639779214926806e-05,0.0081076392512108,0.5301611328088,0.51550292968,0.54382324218,5.1112993796730985e-05,0.0071134987073003,0.2911328124963999,0.27648925781,0.3076171875,9.146781883112278e-05,0.0095159413955116,1.021487043886,1.00247300103,1.03945506001,7.14239904200332e-05,0.0084089089967624,972.2038001749964,972.19487169431,972.21609291419,3.340204677983843e-05,0.0212212198799761,0.005750480528794,5.504202740832237e-06,-0.7070924660231359,0.64,0.36,0.4026246735878214,lift down
-0.1096875000008,-0.89709472656,0.31774902343,0.1428859451541279,0.3761078112756855,0.0212255859372,-0.39001464843,0.41455078125,0.0419998835054669,0.2039114628225011,0.9575830078088,0.67541503906,1.29431152343,0.0149814891332893,0.1217853613615219,1.053885407424,0.85178879697,1.29978653961,0.0168093763976516,0.1290010954747097,972.052170433142,972.03768766397,972.07261910425,9.434631704015622e-05,0.0349314402799336,0.0096645151906215,-0.0002839073719398,-1.0115161056849586,0.47,0.53,0.1654474106926911,stairs up
0.1464550781216,0.06042480468,0.22241210937,0.0016900208020575,0.0409037968168843,0.6633203124968,0.30603027343,1.03833007812,0.0521286761160057,0.227172598160178,0.7087011718715999,0.26989746093,1.07385253906,0.0481094660424701,0.21823925261521,1.0191758722188,0.79286947709,1.32448153293,0.0261512128351963,0.1609027678657033,972.0339582453904,971.95689786869,972.1717047228,0.0034237731554765,0.2148068541099519,0.0582197167969904,-0.0007079904937089,0.2976210539188555,0.55,0.45,0.7580860028226507,stairs up
-0.0115722656236,-0.51013183593,0.26110839843,0.0387729984330278,0.1959215875004528,0.736762695308,0.25415039062,1.18151855468,0.0775885932136401,0.2771510549889783,0.4525683593719999,-0.55859375,1.1689453125,0.2020540707986062,0.447251081709838,1.0111194990455998,0.69497167613,1.39165284179,0.0410506776851526,0.2015940745862862,972.0284670337728,971.92941195212,972.21634701223,0.0093814212002062,0.2869350601100677,0.0963722314165452,0.0024647159225316,-0.8148944195307486,0.65,0.35,0.8275285456633847,stairs up
-0.5268945312467997,-0.69494628906,-0.35986328125,0.013853555640503,0.1171111441498974,0.752832031246,0.53454589843,1.01635742187,0.0141387720299502,0.1183105418365191,-0.3868408203071999,-0.53698730468,-0.08776855468,0.0102906708765737,0.1009344548100796,1.0078603083591997,0.80599906661,1.26002684258,0.0163005070548199,0.1270334679691605,971.8582269788257,971.77848651723,972.04410604389,0.0026544622953376,0.2656195266599752,0.0512632194890668,-0.0005793398486172,0.7074419425408283,0.43,0.57,0.7124388165496686,stairs up
-0.9299169921836,-1.29077148437,-0.70080566406,0.033581282538569,0.1823334026260229,0.3843212890591998,0.23352050781,0.578125,0.0074764801757782,0.0860332225016617,0.284897460934,0.00463867187,0.54028320312,0.0179041892831408,0.1331358230917186,1.0542829455748,0.81076211484,1.4633783411,0.0408836686565233,0.2011835777839685,971.8330247428626,971.80302619685,971.8926146423,0.0004866389369206,0.0895884454499764,0.0219493177012726,-3.565202710803964e-05,1.7334168901759526,0.63,0.37,1.5405901460357356,stairs up
-0.9342041015588,-1.21752929687,-0.71997070312,0.0244504791316838,0.1555826929332662,0.3788525390579998,0.24499511718,0.62866210937,0.0099606478815792,0.0993027764101461,0.255219726558,0.09790039062,0.42211914062,0.0079201860621658,0.0885493320220101,1.0481938475079997,0.84340373634,1.36310233551,0.0248498146833016,0.156848068322401,971.7616210086494,971.72482868983,971.90325156709,0.0014894822125046,0.1784228772600045,0.0384003566439115,-0.0002527611822945,5.002212551217648,0.68,0.32,2.1585941426382345,stairs up
-0.8605712890583999,-1.14318847656,-0.732421875,0.0095396716184645,0.0971816592896,0.3938574218707998,0.12780761718,0.89282226562,0.0294732567277583,0.1708172244256439,0.4784570312467998,0.13220214843,0.78625488281,0.0412887866088628,0.2021778888572493,1.0876331221439997,0.83372949283,1.40181452825,0.0213945782686369,0.1455356742724977,971.7323837994248,971.61614706754,971.83347970009,0.002571465366244,0.2173326325499829,0.05045543293424,-0.000336863584256,0.7110222010646909,0.52,0.48,-0.2413045641917226,stairs up
-0.9936376953083998,-1.38781738281,-0.73059082031,0.0347041100203213,0.1853565993433146,0.3000585937460001,0.17272949218,0.53857421875,0.0061058009755539,0.0777479450905194,0.1801123046839999,-0.169921875,0.39929199218,0.0178009248981442,0.1327513301220097,1.0659124006168,0.7912217425,1.45882923062,0.0319666194618238,0.1778959057066957,971.6630191044557,971.63418965705,971.67893898226,0.0001247004578539,0.0447493252099775,0.011110960951933,-0.000114819344309,0.151692943617772,0.4,0.6,-0.9022217411562136,stairs up
-1.0046826171836,-1.39318847656,-0.751953125,0.0287676373875033,0.1687600693695884,0.224545898434,-0.16564941406,0.5048828125,0.0205608282666263,0.1426717210380533,0.2169189453087999,0.08715820312,0.38928222656,0.0050019965027586,0.070370281637429,1.0622272524535998,0.81775233075,1.47501983487,0.032648759885901,0.1797839600382694,971.6091167238244,971.5821871843,971.64841011513,0.0003264998987051,0.0662229308300084,0.017978734652864,-0.0006070529058648,-1.0633543269896593,0.52,0.48,0.2394422082446599,stairs up
-0.9970605468707998,-1.14184570312,-0.88940429687,0.0035050733160831,0.0589068975835791,0.3994140624963999,0.19799804687,0.60021972656,0.0100756510340459,0.0998743937338568,0.1582812499992,-0.17639160156,0.47131347656,0.0360904003384681,0.1890224757405411,1.1058428211704,0.95474434697,1.24605240349,0.0050508584407808,0.0707131519335199,971.5827731613664,971.56204440733,971.60944021952,0.0001256724404761,0.047395812190075,0.0111541793096325,5.25052120619914e-05,0.7823295229434644,0.68,0.32,1.0331233322190416,stairs up
-0.9588476562463998,-1.08508300781,-0.84509277343,0.0037170194857095,0.0606617613563306,0.3461865234335999,0.21801757812,0.50158691406,0.0048999816238748,0.0696489899972434,0.0750341796855999,-0.14050292968,0.228515625,0.0113605173182656,0.1060514598913328,1.0296311473508004,0.92106697263,1.20136441184,0.0045469784520228,0.0670932833262957,971.5532326841112,971.54713890345,971.56204440733,1.4071496096548088e-05,0.0149055038799588,0.003732396165412,-7.178449704635465e-05,0.1334104661188808,0.56,0.44,0.6679021937309761,stairs up
-0.087109375,-1.09912109375,0.98266601562,0.6107039535854492,0.7775583026690633,0.5201562499967999,0.32165527343,0.89697265625,0.0278196663809786,0.1659562283168935,0.3952294921831999,0.16687011718,0.64599609375,0.0275374958251609,0.1651124491578675,1.0300360116352,0.57341729889,1.29553316972,0.0331143823056126,0.1810614218505877,971.6787802761288,971.38666786248,972.30131081417,0.0574838954751646,0.914642951690098,0.2385561915365287,0.004905385662208,1.6532039146681037,0.68,0.32,1.659723147323069,stairs up
-0.0029785156252,-1.07727050781,0.9931640625,0.7041037335489742,0.8349028064472441,0.4645605468719999,0.01477050781,1.05859375,0.1077803345888491,0.326653533951434,-0.0835400390623999,-0.40563964843,0.23645019531,0.0541797489574147,0.231598686239453,1.0151699289096,0.64753414332,1.50134047078,0.050138894699726,0.2227947615019903,971.4049350472816,971.22740348956,971.48427633143,0.0046654310921392,0.256872841870063,0.0679615831276599,0.0017492104218815,0.1506935270790341,0.4,0.6,-0.952649447151152,stairs up
-0.9642871093708,-1.2587890625,-0.68041992187,0.0259724410860854,0.1603518527339944,0.3968945312463999,0.29809570312,0.64794921875,0.0056707195322042,0.0749267131060895,0.1323974609344,0.05603027343,0.2265625,0.003492431207161,0.0588005688330429,1.055289404298,0.77912343516,1.34093958802,0.0263156514939301,0.1614078529037259,971.5119818836736,971.36981401112,971.99615743821,0.0121575609014015,0.6263434270900916,0.1097086381849102,0.0001244895957012,12.49345264567162,0.72,0.28,3.195891249024667,stairs up
-0.9722216796840002,-1.1982421875,-0.84582519531,0.0104189028403396,0.1015613795295053,0.415288085934,0.31237792968,0.52172851562,0.0037139599733583,0.0606367905946939,0.2027783203088,0.0380859375,0.4287109375,0.0148932701169312,0.1214262632866629,1.0844677370047997,0.95842428225,1.32360376576,0.0115796312649379,0.1070692997655656,971.4351760796254,971.37767152394,971.47313666814,0.0004784515595624,0.095465144200034,0.0217638931252389,0.0002994289370063,0.964570862464312,0.52,0.48,-0.9578230792226892,stairs up
-0.9657714843712,-1.21850585937,-0.74060058593,0.0144437864573775,0.1195798837296798,0.3849755859352,0.26025390625,0.56103515625,0.004690942764322,0.0681471447434066,0.1316113281223999,-0.005859375,0.2412109375,0.0050567384680022,0.0707543008114859,1.0532606882824,0.83979958706,1.28090601467,0.0129634131436458,0.1132862701840316,971.398489324358,971.35063182203,971.43504966182,0.0008347327938562,0.084417839790035,0.028746920981518,-0.0007799896988755,-1.5993230389429764,0.48,0.52,-0.0798805047880127,stairs up
-0.9572070312463998,-1.2099609375,-0.76196289062,0.0183849612633763,0.1349114956211758,0.4309521484347998,0.3359375,0.59777832031,0.0070662665609253,0.0836397267769097,0.0920654296844,-0.01281738281,0.19067382812,0.0030855891679701,0.0552696415429882,1.0582821083144,0.85311738943,1.28274328158,0.0189207336299807,0.1368631663146843,971.31437791798,971.26966656485,971.34913281709,0.0006042582493313,0.0794662522399676,0.0244584477601923,-0.000768457213153,-1.0354153230916376,0.48,0.52,-0.3112889987928608,stairs up
-0.8851806640587998,-1.16650390625,-0.69177246093,0.0179282727867437,0.1332253356493287,0.4534228515591998,0.29516601562,0.80871582031,0.0146420219691576,0.1203976816615089,0.147944335934,-0.01049804687,0.2822265625,0.0073907790520095,0.0855387120635416,1.0137970796832,0.8307046478,1.27537764444,0.0230318799714714,0.1510018581731919,971.232664621539,971.17544926213,971.34626887456,0.0014768728426354,0.1708196124300229,0.038237470028875,-0.0009397384913724,1.0322438666880132,0.64,0.36,1.010919106988171,stairs up
-0.9326425684526736,-1.23791503906,-0.74133300781,0.0180969835272017,0.1338574072379896,0.4253292272537623,0.26489257812,0.74633789062,0.0153667272759212,0.1233474015182652,0.1780232344482178,0.01184082031,0.32470703125,0.0083907364973219,0.0911463652502858,1.050304859238614,0.84734586667,1.37964928359,0.0209263248765738,0.1439414239931027,971.1692365579178,971.07603824727,971.546660699,0.0138189258676719,0.4706224517299233,0.1169705297050379,-0.0013050502297318,5.648813438494061,0.72,0.28,2.569671686745258,stairs up
-0.9442028808553,-1.16845703125,-0.71252441406,0.0178172952886799,0.1328123576170272,0.4752087402307999,0.279296875,0.91430664062,0.0248337966305621,0.1567975084759211,0.1941369628866,0.0595703125,0.43579101562,0.0085770507818945,0.0921481430853361,1.0844303116348002,0.80203761655,1.41765093328,0.0300589372239432,0.1725060806224053,971.0741102380512,971.03726046148,971.1018314735,0.0002534448265541,0.0645710120201101,0.0158401508290994,-0.0004064748290393,-0.1573343004935541,0.53,0.47,-0.4990716752065564,stairs up
-0.9323083496044998,-1.05383300781,-0.78747558593,0.0044216481889789,0.0661621622008314,0.5430102539034999,0.34838867187,0.91918945312,0.0319765728588599,0.1779235991381449,0.2879541015587,0.05590820312,1.17431640625,0.0860734918144687,0.2919122417719477,1.1534383073338998,0.97871655744,1.73799698894,0.0381854809107384,0.1944315460557548,971.0390105394451,970.98745828555,971.07345805165,0.0005824556402515,0.0859997661000306,0.024013143980933,-0.0005256334970265,0.0903678245769539,0.33,0.67,-0.9038073278894152,stairs up
-0.4341442871079,-0.99975585937,0.18334960937,0.1509984537473823,0.3866373872375879,0.7985571289024,-0.41027832031,1.61340332031,0.1759933105553068,0.4174127183612806,0.0375463867179,-0.25170898437,1.08447265625,0.0807900624976476,0.2828111770646117,1.0494927492819002,0.20551402677,1.78542074251,0.1311651101450614,0.3603518545028051,971.043315119004,970.99895209943,971.13827159564,0.0013328593550868,0.1393194962100779,0.0363253459933415,-0.0006862363779659,0.1114680812705399,0.6,0.4,0.9104326555051808,stairs up
-0.8380768130483838,-1.13647460937,-0.63195800781,0.0150658416333281,0.122121502671764,0.7255366161577778,0.44372558593,1.08068847656,0.0303811187401047,0.1734192571568423,0.1149853022387878,-0.10668945312,0.33764648437,0.0111822157238298,0.1052105700481268,1.1341271703915152,0.94516936708,1.32297075591,0.0119309862972967,0.1086759922162791,971.0299060358049,971.0049481271,971.04428141625,6.852602981917732e-05,0.0393332891500222,0.0082361306266833,0.0001109881470454,0.8730843852683035,0.56,0.44,-0.360082027185691,stairs up
-0.9588818359344,-1.14013671875,-0.81909179687,0.0057372681782485,0.0753650814135172,0.4872021484336,0.40087890625,0.70092773437,0.0054861459828166,0.073697249086981,0.1750732421843999,-0.03894042968,0.39721679687,0.0142636130550994,0.1188317168290876,1.0975075644496,0.9492015523,1.32885191042,0.008262880577595,0.0904447443018059,971.0361703122804,971.01591089609,971.05137068381,8.054463277841908e-05,0.0354597877200149,0.0089296800866903,9.324768611059784e-05,-0.4956386414546077,0.56,0.44,0.1458163479547647,stairs up
-0.9601562499968,-1.21826171875,-0.67260742187,0.015798672281223,0.1250627264951903,0.5216601562463999,0.33618164062,0.71350097656,0.0083800531156106,0.0910837668547722,0.2315673828088,0.08752441406,0.37463378906,0.0051812005765024,0.0716197498650855,1.1236084420756,0.86896689746,1.3468693025,0.0143668600153163,0.1192610221956998,971.0258180980538,970.98058720151,971.04293615948,0.0002031528531072,0.0623489579699025,0.0141817250211748,-0.0003023233448222,3.06209538522603,0.28,0.72,-1.8291499731258865,stairs up
-0.931279296872,-1.2197265625,-0.70324707031,0.0151658605808553,0.1225324527423116,0.4707226562464,0.28857421875,0.64807128906,0.0118596285039553,0.1083560437581391,0.2390039062476,-0.05407714843,0.60900878906,0.0270886335945832,0.1637612507849075,1.0902657165996,0.90584661286,1.30726299089,0.0109873371191371,0.1042950801713375,970.956595547057,970.92636976558,970.99058494321,0.0005031508036709,0.0642151776299897,0.0223185863269665,-0.0006949817836289,-1.5524340378977846,0.52,0.48,0.0197221406365093,stairs up
-0.9597119140583998,-1.22607421875,-0.80041503906,0.0144985631017409,0.1198064166508768,0.4768212890595998,0.22692871093,0.58166503906,0.0070589555875944,0.0835964474826443,0.1143749999956,0.01049804687,0.19348144531,0.0026234502504275,0.0509628859850307,1.085185135092,0.95139830163,1.27590820302,0.0078783051867635,0.0883149032434273,970.8842662292122,970.84498629542,970.92636976558,0.0006180134237415,0.0813834701600626,0.0247352640880204,-0.0008509865037466,-1.2487606333328247,0.52,0.48,0.0234195203603789,stairs up
-0.9696794264349504,-1.20141601562,-0.82690429687,0.01094844847024,0.1041155511455261,0.4154415319426732,0.28356933593,0.513671875,0.0053367178276011,0.0726902953442125,0.0912288250268316,0.0126953125,0.15600585937,0.0016848461137647,0.0408431691849936,1.064171449723564,0.9242295246,1.24543811925,0.0065890098416725,0.0807698713659235,970.8040910084284,970.76541751167,970.84954472538,0.0005847253251031,0.0841272137100759,0.0240610882016727,-0.000812159871763,-0.982751553528498,0.49,0.51,0.202004554296099,stairs up
-0.9376806640583,-1.24377441406,-0.71472167968,0.0141872801202351,0.1185133212724747,0.4628137206989999,0.34838867187,0.60778808593,0.004136679345485,0.0639946290873713,0.0682104492158,-0.06604003906,0.30651855468,0.0051648760020082,0.0715068335335031,1.0531769554003,0.83720079671,1.35977238842,0.0122893746724328,0.1103017720877978,970.7294044284354,970.68684724836,970.77000322005,0.0007092496470638,0.0831559716899619,0.0264982480664888,-0.0008942509020168,-1.2488238681429478,0.49,0.51,-0.0267882092099056,stairs up
-0.9640991210893,-1.27575683593,-0.77026367187,0.0194209987164348,0.1386606964113137,0.4784423828093998,0.29211425781,0.79943847656,0.0174867191698204,0.1315745111262902,0.0941198730446,-0.12670898437,0.30651855468,0.0199075782094526,0.140386973852128,1.0957635619258002,0.86381860122,1.38174719643,0.0230324635811924,0.1510037712952246,970.6518500548048,970.61958917229,970.69154090917,0.0004958444421127,0.0719517368800097,0.0221559472307468,-0.0007395320511973,-0.8988571146128863,0.53,0.47,0.3353196180241435,stairs up
-1.0233752441364998,-1.45349121093,-0.75146484375,0.0364473885041737,0.189955033150301,0.3878784179650999,0.1494140625,1.14782714843,0.0578834172143828,0.2393837568471156,0.1653271484346,-0.04602050781,0.36389160156,0.01304766732038,0.1136538193250724,1.1302120427407,0.79407897987,1.6456370634,0.0545505557545054,0.2323898668121318,970.5943143369972,970.56269793924,970.65659442097,0.000690159625125,0.0938964817299847,0.026139204824818,-0.000656315765184,-0.7109364510508529,0.57,0.43,0.4064012813663795,stairs up
-0.6608227539023999,-1.35400390625,-0.07849121093,0.1208663954340209,0.3459157866875704,0.6122143554645,0.08947753906,1.22692871093,0.0902233655460804,0.2988664114460165,0.3036254882772,0.07800292968,0.59912109375,0.0167207836806798,0.1286607004639454,1.0411452396838003,0.67402838343,1.53193307257,0.0456874700452242,0.212674858280832,970.6000543268508,970.40292359806,970.92858769166,0.0196771528360802,0.5256640935999712,0.1395721365735993,0.0013332769791014,0.1470909729043605,0.59,0.41,0.9036676305943582,stairs down
-0.4040185546840999,-1.03100585937,-0.03991699218,0.0927970289224965,0.303099090452729,0.9500720214809,0.34313964843,1.41430664062,0.0750534599164812,0.2725856293301547,0.1301135253896,-0.22570800781,0.42639160156,0.0342931190196206,0.1842557674251322,1.1089319533013002,0.68447011086,1.51469107985,0.05372673004665,0.2306284083676241,970.7187182789636,970.60472131312,970.861977559,0.006359750083946,0.2572562458800576,0.0793482991821917,0.0019548834739615,-0.9806194719950144,0.51,0.49,0.3191689541079466,stairs down
-0.6791516113237,-1.17004394531,-0.10412597656,0.1293300299619955,0.3578222039817759,0.6353381347620999,0.1826171875,1.44372558593,0.091381084946865,0.3007777819211326,-0.2030603027306,-0.47497558593,0.095703125,0.0193116401346724,0.1382697498852361,1.0447537321356002,0.56616213569,1.49622628244,0.0527748584591144,0.2285762670850219,970.7655612216004,970.61673242829,970.92216545985,0.0059364555381931,0.3054330315600282,0.0766621874382098,-0.0007058173119729,-0.117498517553273,0.6,0.4,0.1491354143130389,stairs down
-0.6282263183546999,-1.30432128906,-0.17333984375,0.0928815245794552,0.3032370513866349,0.7884094238248,0.44787597656,1.42456054687,0.0592495189096259,0.2421921215079666,-0.1099914550755,-0.35437011718,0.22729492187,0.0205323534699113,0.142572893409695,1.0719143523446,0.60730137503,1.49180127183,0.0508002334015474,0.224259294272349,970.81196079657,970.61673242829,970.91437015923,0.0045303389785474,0.2976377309399822,0.0669704083066693,-4.222645528357146e-06,0.2385404683337091,0.43,0.57,-0.7252981624021939,stairs down
-0.8394738769478,-1.45336914062,-0.52502441406,0.0562044491834723,0.235886423288068,0.5478601074179,0.35668945312,0.85119628906,0.0199681614550841,0.1406004261747925,0.058516845702,-0.11633300781,0.33874511718,0.0169672323757401,0.1296054013225633,1.0314023993722,0.70224492838,1.5381452664,0.0370796401693667,0.1915955212620407,970.9171929668004,970.8063732634,971.06514799176,0.0084148348903888,0.258774728359981,0.0912725946902189,0.0009870428582995,-1.4678433939380722,0.52,0.48,0.3480786252246092,stairs down
-0.8185131835891,-1.19177246093,-0.1767578125,0.068698156548116,0.2607895223789386,0.6238793945276,0.35693359375,1.23791503906,0.0460941804716289,0.2136193780229514,0.2372558593716999,-0.04663085937,0.49682617187,0.0207213193476561,0.1432274629887004,1.1011844156197,0.76320942489,1.37349438055,0.0374051273094153,0.1924346019725173,970.9259882711395,970.82007284165,971.0438996606,0.0026171949262995,0.2238268189499876,0.0509020920693492,0.0012360121848718,0.302907161883732,0.51,0.49,0.5599823977015633,stairs down
-1.0401965331988,-1.49072265625,-0.81555175781,0.0243152672881674,0.1551519081909266,0.4082226562456999,0.18310546875,0.57360839843,0.0080205336723991,0.0891085199948647,0.0681457519496999,-0.21411132812,0.25061035156,0.010151674161561,0.100250473415069,1.1283216782874996,0.88253215119,1.51711084347,0.0224759585264807,0.1491683577077122,970.9907508381664,970.96269958697,971.08961244306,0.0010343132132425,0.1269128560900299,0.0319995325139306,-0.0003852609001249,4.412276023415135,0.6,0.4,2.2145627065933358,stairs down
-0.9738559915516162,-1.11901855468,-0.83923339843,0.0046576839442294,0.0679016688429782,0.3625488281212121,0.271484375,0.49792480468,0.0053812265395619,0.0729854144054142,0.1490071614540404,0.0146484375,0.23022460937,0.0034063890271538,0.0580687614572813,1.0534120875390909,0.91379156743,1.17832364575,0.0057306265669955,0.0753176038529987,970.9795900970872,970.95383302109,971.02085094502,0.0003417612020344,0.0670179239300523,0.0183931799502038,2.942558747932733e-06,-0.2700462893638549,0.6,0.4,0.7237179817674055,stairs down
-0.9720166015581,-1.18518066406,-0.81042480468,0.0099600382283676,0.0992997373918179,0.3745898437463998,0.27722167968,0.5166015625,0.0032280031841382,0.0565307275054624,0.1194897460907,-0.0400390625,0.275390625,0.0042837283285608,0.0651221240844864,1.0515927172483,0.90336758876,1.27060499706,0.0099817714013604,0.0994080162127123,970.9868714860728,970.95456760073,971.01506558548,0.0003395873668254,0.0604979847499862,0.0183355254398981,-2.6145692257421245e-05,-1.0313467641830878,0.48,0.52,-0.1155796080788065,stairs down
-0.4976685778898018,-1.00817871093,-0.27490234375,0.0430854670719881,0.2065402582769209,0.7309292330563367,0.361328125,1.01416015625,0.0213064026478131,0.1452427215599859,0.3835110805963366,0.1044921875,0.69775390625,0.022831804787649,0.1503520778522998,1.0018417901283172,0.80329156365,1.25037832495,0.0118022614948139,0.1080990629959754,970.99605708896,970.94602252671,971.05438712871,0.0009893187920245,0.1083646020000514,0.0312973410445675,0.0003517261322532,-0.8878394931806612,0.59,0.41,0.499013981219898,stairs down
-0.8138415527308999,-1.32507324218,-0.32604980468,0.0711329394203434,0.2653707030290647,0.5414819335901998,0.28125,0.8203125,0.0246298531028782,0.1561523441125668,0.3499035644501,0.12536621093,0.60083007812,0.0208096212495458,0.1435323135640556,1.0627066018762,0.51311472858,1.48432875109,0.0646814441765547,0.2530506465804606,971.0402290044404,970.88912032206,971.40130928569,0.0160156385706748,0.5121889636300239,0.1259185537757169,0.002848923729128,2.700659232274956,0.64,0.36,1.6924709518415406,stairs down
-0.9297827148404,-1.39050292968,-0.62939453125,0.0450502042755264,0.2111864158339052,0.3514709472623998,0.22131347656,0.50427246093,0.0050563139068767,0.0707513305020336,0.1786535644499,0.0322265625,0.46728515625,0.0134379627291608,0.1153411596173247,1.0204205892829,0.7317647402,1.45402552788,0.042015835096002,0.2039501820176731,971.072056969759,970.99428086387,971.18240768665,0.002489495007794,0.1881268227799637,0.0496447384696111,0.0012183271716836,-0.0848178907431695,0.55,0.45,0.4237423536650875,stairs down
-0.9322619628870998,-1.42028808593,-0.60437011718,0.0544088714940999,0.2320878772774635,0.4303308105428999,0.22131347656,0.70397949218,0.01014898607656,0.1002371997603407,0.1701513671832999,0.05688476562,0.33264160156,0.0048397837504039,0.069219837567708,1.0498905540481005,0.68141615486,1.49749165656,0.0501837890216616,0.2228944843001842,971.1535414615724,971.07731737816,971.23477028661,0.0012073862041414,0.1574529084499545,0.0345732894312938,0.0007260147586868,-0.0611143612505422,0.43,0.57,-0.3958767307370975,stairs down
-0.939995117184,-1.18334960937,-0.66723632812,0.02351822405159,0.1525878167190099,0.3944262695275,0.2548828125,0.64526367187,0.0124530054764537,0.111033667964673,0.1437316894478,0.01538085937,0.26745605468,0.0042398609221379,0.0647878253448637,1.0356890426713,0.73715843114,1.28386600274,0.0272514014269538,0.1642525111305284,971.2601129145874,971.18239931954,971.39877915048,0.0034498819183853,0.2163798309400135,0.0584412790688354,0.001254759452062,0.2598940335285395,0.67,0.33,1.0986226964083818,stairs down
-0.3093725585928999,-1.32568359375,0.29504394531,0.212899408789901,0.4590973913038518,0.4698144531215,0.07080078125,0.83874511718,0.042081673964047,0.2041099145666534,0.6426086425738999,0.080078125,1.37622070312,0.1315852844275347,0.3609285685329707,1.0351273177505,0.76088693634,1.41092275356,0.041000634181814,0.2014711588292376,971.34680890665,971.25270035112,971.5139085635,0.0022090256438386,0.2612082123799837,0.0467646809825566,0.0012971246343678,0.6462597526745619,0.48,0.52,0.0714710026472338,stairs down
0.5346960449183998,0.18896484375,0.77600097656,0.0274172045532828,0.1647514264209874,0.5335009765580999,0.13354492187,0.83435058593,0.0250101891189435,0.1573533832739358,0.6535131835897999,0.38757324218,1.37622070312,0.0490113494315193,0.2202753638907542,1.0332839836290002,0.7669031121,1.399900944,0.0282022236081147,0.1670933911680338,971.428259781752,971.26191431944,971.57058892271,0.0067054037085275,0.3086746032699921,0.0814760680902208,-0.0008716450014227,-0.4114991542494435,0.52,0.48,-0.1215409726385207,stairs down
0.5710180664023999,0.40026855468,0.67614746093,0.0065628033033694,0.0806050573496215,0.6202954101522,0.41564941406,0.84777832031,0.014626970321062,0.1203357827823934,0.5801684570275999,0.39807128906,0.80224609375,0.0107157963756465,0.1029982447029562,1.0343839652504,0.89854521727,1.18244692823,0.0091513063431123,0.0951829463700362,971.4293035930012,971.37313708029,971.47930827012,0.001291519373305,0.106171189829979,0.0357575751355143,-0.0004193367142971,-1.5734019604663596,0.48,0.52,-0.0850835857249382,stairs down
0.5288891601529999,0.3837890625,0.68737792968,0.0056576323086511,0.0748402030032295,0.82871582031,0.68273925781,1.03076171875,0.0111218289654765,0.1049314570365904,0.2002832031222,-0.04870605468,0.39807128906,0.0186504137873105,0.1358819695523929,1.0162337433876,0.86403852363,1.18143615214,0.009041991033498,0.0946127429216754,971.5982506259388,971.02159367878,971.98445500198,0.03062239885921,0.9628613231999452,0.1741154067583279,0.002131957630281,0.0971937712213621,0.68,0.32,0.2113800269654853,stairs down
-0.6205290206725252,-1.04077148437,0.50451660156,0.2670834774800145,0.514184465514251,0.6036364622755556,0.35888671875,1.00939941406,0.042619573977129,0.2053997887776062,0.1163330078097979,-0.10595703125,0.28332519531,0.0089138375249376,0.0939350773782591,1.034030798469596,0.81443248695,1.1772049367,0.0092387781687318,0.0956318836849324,971.338253349838,971.02159367878,971.48356899868,0.0145715680573072,0.4619753198999206,0.1201015424595905,0.003920370737929,0.2201511427746303,0.47,0.53,-0.9146066005407996,stairs down
-0.9504805460978216,-1.10510253906,-0.62341308593,0.0147528506151368,0.1208585238502612,0.332025206911881,0.19201660156,0.52490234375,0.0069891912866429,0.0831864855184654,0.104292765699901,-0.23620605468,0.28332519531,0.0125125329854931,0.1113042969533984,1.0213467243052472,0.68708410471,1.23347526063,0.0154502497150663,0.1236821609837499,971.4853040242922,971.45570053133,971.53481986456,0.0003214397320711,0.0791193332299826,0.0178397634644209,4.756262936636589e-05,0.8434536619983963,0.63,0.37,1.1704835305160235,stairs down
-0.9585485839808,-1.39611816406,-0.65869140625,0.0336115014838877,0.1824154227828582,0.4224133300751,0.19592285156,0.62390136718,0.0119328863377529,0.1086901903318575,0.1308374023393,0.04626464843,0.24487304687,0.0022964641241648,0.0476812277833027,1.0620006175063998,0.71348693155,1.46203491486,0.0342262292652381,0.1840759815200935,971.544427563696,971.48225953077,971.84234841852,0.0044428004199503,0.3600888877500665,0.0663202262944785,0.0003116457584651,13.37153251086512,0.76,0.24,3.5557324527396075,stairs down
-0.8742272949183999,-1.49291992187,-0.26867675781,0.1057928463591091,0.323627745867869,0.3845214843725999,-0.03735351562,1.04992675781,0.0746710682753048,0.2718903411166932,0.2586010742158999,-0.06481933593,0.75720214843,0.0354649383667393,0.1873773972043371,1.0563112796847998,0.6403486656,1.61706138432,0.0643345259213497,0.2523711169332502,971.6104235245584,971.53552248951,971.66203265542,0.0009292393987185,0.1265101659100764,0.0303306281624929,0.000561347728484,-0.5312147997550185,0.59,0.41,-0.1100818741797502,stairs down
-0.913542480464,-1.60046386718,-0.24890136718,0.1620853825105472,0.4005802400087175,0.4655053710908,0.07275390625,1.02038574218,0.063686392578042,0.251096652013247,0.3421679687457999,-0.08520507812,0.91137695312,0.0541742696659721,0.2315869749560894,1.1562901857372,0.56130165032,1.67164534479,0.1095693168072422,0.3293533416244169,971.6971981214894,971.63048762599,971.92225357051,0.0054221768076766,0.291765944519966,0.0732663295081706,0.0002771935086508,4.25645260513372,0.59,0.41,2.1724798317128338,stairs down
-0.9287597656212,-1.31579589843,-0.49182128906,0.0616933649233248,0.2471364628582589,0.3781860351525999,0.16577148437,0.62023925781,0.0156639201775362,0.1245282336490841,0.1128588867156,-0.06506347656,0.306640625,0.0098111913718701,0.0985549565377178,1.0211577883438,0.5559619983,1.40416257956,0.0625152229769289,0.2487771507738595,971.788015009222,971.69743929605,971.91985152181,0.0048931091656749,0.2224122257599674,0.0696001298419638,-8.796529191021051e-05,-0.835386810037849,0.55,0.45,0.4256878936163302,stairs down
-0.9655224609331998,-1.44262695312,-0.52429199218,0.0719343671654716,0.2668614312594028,0.402807617184,0.17614746093,0.70471191406,0.0246988384412152,0.1563708734285356,0.1500219726519999,-0.02685546875,0.29235839843,0.0066558270080455,0.0811743108253162,1.0732659940358005,0.58192696373,1.50578872475,0.068030747115492,0.2595196324834348,971.8579706626545,971.70880865532,972.32767662761,0.0154711093931012,0.6188679722899906,0.1237594372125625,0.0012724993439927,6.000090853058351,0.55,0.45,2.15534829834582,stairs down
-0.9429565429632,-1.43530273437,-0.63024902343,0.0425687957593037,0.2052878656952491,0.3549853515577999,0.25231933593,0.48962402343,0.0017151001486746,0.0412061785074513,0.1292895507772,0.00317382812,0.28979492187,0.0042954773674172,0.0652113685927771,1.0205515973397998,0.7490538152,1.51889362539,0.0388539862537302,0.1961260981898965,971.9359412178288,971.88228002846,972.03404052916,0.0007126688965811,0.1517605007001066,0.0265620444923822,0.0005810660844754,3.8132824585143936,0.51,0.49,1.3860937192607306,stairs down
-1.034067382809,-1.61157226562,-0.36376953125,0.0785021148789384,0.2787778573168054,0.4778857421837999,-0.16027832031,1.24938964843,0.1066140040948046,0.3248813076399697,0.2234912109336,0.001953125,0.94873046875,0.0586785850861667,0.2410224040111315,1.2292939528424,0.5997438311,1.68885387752,0.0785975663266714,0.2789472901166182,972.0132794147672,971.93094708906,972.41499451689,0.0040353108361168,0.484047427829978,0.0632056779708572,0.0011521296844876,15.048024935296986,0.52,0.48,2.8613233229811823,stairs down
0.8241723632783998,-0.36376953125,1.12451171875,0.1171826412510326,0.3406036036781206,0.2928344726534,0.08801269531,0.98132324218,0.0218469038454183,0.1470660899288622,-0.1896728515595999,-0.39013671875,0.35632324218,0.0206334879900157,0.142923591859831,0.958855127017,0.39059039916,1.16449613622,0.0400516682146235,0.1991259690057461,972.058015345851,971.95322342063,972.41499451689,0.0179919612026954,0.4617710962600085,0.133461760780639,-0.0033401681562482,1.262186417172603,0.73,0.27,1.586563328242751,stairs down
0.9395507812463,0.79516601562,1.13659667968,0.0110374123158756,0.1045324743451377,0.2865576171836999,0.10498046875,0.45593261718,0.0085333719637012,0.0919132103892812,-0.2406396484334,-0.44226074218,-0.05822753906,0.0096667547057929,0.0978268222868095,1.0198203785306,0.86575660703,1.19634111563,0.0118080182161722,0.1081200168054489,972.0568560880243,971.97382601851,972.13798250984,0.0019750122154548,0.1641564913300044,0.0442183456644443,0.0010280627454509,-0.6427053260246609,0.52,0.48,0.03907078951415,stairs down
0.9049682617154,0.81262207031,1.08068847656,0.0067736700628906,0.0818897634766503,0.288374023434,0.10046386718,0.46142578125,0.0134825416044483,0.1155323166408595,-0.3045605468714,-0.43225097656,-0.19226074218,0.0043900157224731,0.0659250753905402,1.0063590811089995,0.90233081131,1.18710447299,0.0065913371706932,0.0807800953142932,972.0315233217548,971.99928005706,972.09537786668,0.0006792460115116,0.0960978096200051,0.0259317093805347,-0.0001757681057967,0.4195865315559928,0.56,0.44,1.00976265611644,stairs down
0.7711694335902,0.32958984375,1.14880371093,0.0448939806818438,0.2108199252324726,0.047934570313,-0.6923828125,0.53308105468,0.1485061268824568,0.3834332609641895,-0.3916772460899999,-1.02966308593,-0.05969238281,0.0616286667245277,0.2470068421264529,0.9944329178316004,0.7641089279,1.32992258156,0.0141340827475231,0.1182909206999754,972.0241943643734,971.97597988606,972.19090089394,0.001489258494613,0.2149210078799797,0.0383974726989546,0.0006842763333006,1.7408852088975415,0.63,0.37,0.9265437382258136,stairs down
0.2856616210916001,-1.05615234375,1.09020996093,0.312488287991563,0.5562044634050031,-0.0401611328108,-0.91552734375,1.25,0.53024368153162,0.7245282911773038,-0.3368969726542001,-1.03356933593,0.28137207031,0.1426959916843846,0.3758577280934114,1.0650883629603998,0.62209724835,1.47911339874,0.0382580901196745,0.1946163128272597,972.0903974429372,971.95666425549,972.30434289288,0.0084594428874263,0.347678637390004,0.0915141981254934,0.0012601260122628,0.1778349924777824,0.56,0.44,0.7649587416671003,stairs down
-0.8803344726517998,-1.21997070312,-0.62707519531,0.0295376062693631,0.1710035970576919,0.5376245117152,0.28430175781,1.03515625,0.0390779197155383,0.196690468804116,0.1452099609336,0.0048828125,0.26184082031,0.0031833029515102,0.056137954380215,1.0557644984814,0.74174768567,1.50822424331,0.0419767641293784,0.2038553322532541,972.1855139491124,972.13041569355,972.29008279056,0.0012492456236602,0.1596670970099012,0.0351675015806304,0.001131381110441,-0.6490756394039869,0.55,0.45,0.3826670300360962,stairs down
-0.9459350585904,-1.3291015625,-0.60717773437,0.0476643462675199,0.2172273067660802,0.4545703124957999,0.30139160156,0.68542480468,0.0121556799579167,0.10970015113179,0.1202392578092,-0.03271484375,0.25415039062,0.0066666338177345,0.0812401838966233,1.0642032446604,0.69361457963,1.40637877192,0.0496747784737443,0.2217612019470649,972.307205207524,972.23996233891,972.3612081437,0.0012515124250997,0.1212458047899645,0.0351993934727395,0.0009018211962141,-0.898953463653883,0.39,0.61,-0.2755761448642898,stairs down
-0.957832031246,-1.29089355468,-0.65075683593,0.0415277596435837,0.2027621316891985,0.4167114257775999,0.2978515625,0.62670898437,0.0082082665628491,0.0901453487276002,0.1377514648404,-0.06335449218,0.30676269531,0.0061199672353432,0.0778380855557859,1.0599008262382,0.72346734588,1.35887422326,0.0423977278455776,0.2048749632510568,972.4027338997794,972.33898662716,972.45051406692,0.0009130418909577,0.1115274397600387,0.0300651205227614,0.0007978854005004,-0.3679353973146742,0.47,0.53,-0.4255152059677314,stairs down
-0.9580371093708,-1.50561523437,-0.48889160156,0.0751902374113735,0.2728338964228232,0.4744067382775999,0.25573730468,0.87194824218,0.0261496929265749,0.1608980919629229,0.1070727539029999,-0.11828613281,0.326171875,0.0119345019618917,0.1086975480048781,1.090571270477,0.65771047113,1.5797705852,0.0779367907817174,0.2777722500069081,972.502201353146,972.40825699627,972.59682594347,0.002302402220025,0.1885689471999967,0.0477428339944831,0.0011016560532594,-0.4849856061827311,0.51,0.49,0.153529655324228,stairs down
-0.7306518554637997,-1.31115722656,-0.27185058593,0.064821873199044,0.2533251950893429,0.6975708007771999,0.38037109375,1.29309082031,0.0570370502239682,0.2376271864112533,0.2399584960905999,-0.1474609375,0.67138671875,0.0454003629116893,0.2120055642726682,1.0798334636788,0.61268184307,1.57805419989,0.0783672929596205,0.2785383636593428,972.5519275559906,972.40706107001,972.90148722646,0.0128455698776517,0.4944261564500039,0.1127701830222652,-0.0007122554927771,1.6752550521450829,0.6,0.4,1.1237766900699204,stairs down
-0.8061376953088,-1.1416015625,-0.35888671875,0.0468974454475405,0.2154726687843846,0.6262622070275999,0.18505859375,1.16918945312,0.0967357330911623,0.3094646599536863,0.1576782226546,-0.14953613281,0.41943359375,0.0264343054903069,0.1617713276059879,1.1004738353626002,0.87275262435,1.42363781173,0.024493842948862,0.1557205976079384,972.6180571708824,972.55245212316,972.7789666126,0.0045666300757293,0.2265144894399782,0.0672381125179167,-0.0005594796032417,0.5232783690741996,0.8,0.2,1.35133662460106,stairs down
-0.9678417968704,-1.28015136718,-0.78271484375,0.0209308508429336,0.1439497910193144,0.3769091796838,0.28308105468,0.53515625,0.0054607094900503,0.0735262020993185,0.1231958007774,0.01599121093,0.20776367187,0.003196210144792,0.0562516492499921,1.050556442958,0.86342699883,1.32705675809,0.0197762947095853,0.1399233067165348,972.471306261504,972.42015403457,972.51685316275,0.0007463730599017,0.0966991281799209,0.0271828866992223,-0.000798077445502,-0.7417228083421494,0.54,0.46,-0.0694139125885615,stairs up
-0.9785253906207998,-1.21789550781,-0.83435058593,0.0103378493617724,0.1011655616707323,0.3958276367147998,0.28759765625,0.61791992187,0.006475326322502,0.0800660543506239,0.1266845703087999,0.04235839843,0.27026367187,0.0027028147621127,0.0517280060942965,1.0678350442988,0.91934069114,1.26910086158,0.009383421355103,0.0963825043332656,972.4110625400928,972.35610121742,972.46337823711,0.0008102957331202,0.1072770196899455,0.0283230078873888,-0.0007145161971999,-0.5357957600975198,0.46,0.54,-0.2018169790333557,stairs up
-0.120153808592,-1.14050292968,0.908203125,0.6226077370222115,0.7850997768767926,0.5490698242157999,0.13537597656,1.08703613281,0.0801372139682241,0.281666188649866,0.1687133789052,-0.23791503906,0.80151367187,0.0752629747582728,0.2729658312146231,1.018306257808,0.54200530165,1.48018911836,0.0784434602098841,0.2786736901965905,972.2989151668896,972.20930200765,972.40213278086,0.0024541226212183,0.192830773210062,0.0492907840778189,-0.0009169432474525,-0.6781670381935228,0.42,0.58,-0.2210741235673807,stairs up
-0.9819946289022,-1.22888183593,-0.79833984375,0.0102449699182309,0.1007100800270194,0.3463574218713999,0.15563964843,0.4853515625,0.0088699013056407,0.0937080695169008,0.2276293945276,-0.01403808593,0.37255859375,0.0123511473394674,0.1105786410934441,1.0763636148036,0.89523488485,1.28542460738,0.0087725083209209,0.0931921844239725,972.2424804424676,972.20818412049,972.27665301119,0.0004169228968243,0.0684688906999326,0.020316339922734,-0.0001733523981365,-1.062040639405021,0.5,0.5,-0.109430419490482,stairs up
-0.9942089843713998,-1.3447265625,-0.72045898437,0.027853210863628,0.1660562517793044,0.3400561523403999,0.109375,0.62475585937,0.0156314684948194,0.1243991712587799,0.1664721679654,0.01489257812,0.287109375,0.0051688105230442,0.0715340647371154,1.0720791885092,0.79166836592,1.42258503236,0.0309250935401368,0.1749738340573683,972.1795140380408,972.12303381577,972.22804473058,0.0009841219785695,0.1050109148100091,0.0312134707904113,-0.0006771041249035,-1.0013206028007038,0.48,0.52,-0.220539181951644,stairs up
-0.8916772460908,-1.06921386718,-0.70861816406,0.0102171578129238,0.100573287879012,0.4509912109335999,0.33569335937,0.67504882812,0.0099710089029555,0.0993544101382819,0.1427148437448,0.03308105468,0.22351074218,0.0036775786706798,0.060339065985256,1.0152598840306,0.79384541088,1.22870620559,0.0118417838129365,0.1082744936483528,972.1305129203045,972.11470090847,972.18075510445,0.0002531855539013,0.0660541959799729,0.0158320465626616,-0.0003224663165925,0.390484484308923,0.66,0.34,1.1754660797232173,stairs up
-0.9609374999957998,-1.06884765625,-0.82653808593,0.0033165493397085,0.0573008188973894,0.4160400390589999,0.255859375,0.54467773437,0.0058005765230173,0.0757797516345043,0.1330419921852,-0.03002929687,0.28259277343,0.0090440220540647,0.0946233683268785,1.0625098078512,0.95630355728,1.16448348708,0.0032755649917274,0.0569456700883408,972.1211991668632,972.09419370769,972.16493215117,0.0003923395370097,0.0707384434799678,0.0197082759682244,1.956719053981036e-05,-0.3000883876312401,0.52,0.48,0.6409730763253474,stairs up
-0.9609277343712,-1.08984375,-0.84716796875,0.0045632417995809,0.0672131637522378,0.4008862304653999,0.29553222656,0.5263671875,0.0043968843752163,0.0659766286761012,0.116586914058,0.00573730468,0.19287109375,0.0029240622905837,0.0538035469804543,1.0510195416762,0.94210767929,1.2164010618,0.0048562207923818,0.0693372813460262,972.1180507921026,972.10718822371,972.14602398852,0.0001123461511098,0.0388357648100736,0.0105462168382216,-1.3008346606075474e-05,1.4567619148764726,0.6,0.4,1.4538069758664625,stairs up
-0.9666845703098,-1.14465332031,-0.82849121093,0.0041139769072768,0.0638187835844911,0.4199780273404,0.27990722656,0.53686523437,0.0062497235368814,0.0786589238517326,0.133381347654,-0.0673828125,0.29150390625,0.0137177071242423,0.1165355312898168,1.071572635501,0.9326358254,1.20380289623,0.0042665314772179,0.0649912775874254,972.1058047316192,972.07895066314,972.16977400608,0.0006725949935995,0.0908233429400979,0.0258044384489088,-7.407184416590675e-06,0.579167181538264,0.58,0.42,1.1668715723852832,stairs up
-0.9650390624966,-1.24487304687,-0.80187988281,0.0143240395216676,0.1190831605494703,0.3972045898399999,0.29541015625,0.52490234375,0.0045550882515262,0.0671530890503999,0.1175219726524,-0.00512695312,0.2265625,0.0038105188053426,0.0614199773468633,1.054012898287,0.88631328269,1.29800879083,0.0145483361116791,0.1200118858720351,972.0840365379776,972.05443569909,972.13121971547,0.0003585005226166,0.0767840163799746,0.0188392016123436,-0.0003289007802152,0.8931858024386452,0.58,0.42,0.8365796774416525,stairs up
-0.9747583007776,-1.24841308593,-0.7275390625,0.0219569605346745,0.1474360570868871,0.3559472656215999,0.22766113281,0.51708984375,0.0057463711198814,0.0754248460965126,0.1437377929653999,-0.00415039062,0.30126953125,0.0042439393623224,0.0648189784607812,1.0530071145012,0.82946831237,1.30461230603,0.0205217869498146,0.1425362027006351,972.0552355957258,971.90844934609,972.42116738976,0.0132855989190108,0.5127180436699064,0.1146854085305569,0.000496151807216,5.456140776722917,0.72,0.28,2.442666157698796,stairs up
-0.9735424804639998,-1.24096679687,-0.74035644531,0.0194229464396238,0.138667649346297,0.3678710937465999,0.20849609375,0.62683105468,0.015070094604511,0.1221449698451226,0.1666821289046,-0.15930175781,0.36193847656,0.0181915941920864,0.1342001425117186,1.0698479657378,0.84863742173,1.37178672493,0.0186668222955361,0.1359417304310224,971.9822243541488,971.9212635291,972.17070031517,0.0045427694494432,0.2494367860700777,0.0670622230092977,0.0010910367527834,2.2809828762612314,0.64,0.36,1.7462645901603862,stairs up
-0.5874072265592,-1.18432617187,0.11596679687,0.1793669215102163,0.4213944141717047,0.6805834960901999,0.13928222656,1.64562988281,0.1227627984262951,0.3486189473365327,0.0421240234368,-0.48278808593,0.47119140625,0.0726564808547259,0.268197531767499,1.0284779818526,0.33347681305,1.70627854117,0.1245322807518098,0.3511224258635323,971.8928869287334,971.61957679944,972.63061433764,0.0526831756278309,1.0110375382000711,0.2283776343505481,-0.002559653469961,1.967312595011979,0.5,0.5,1.2805848799369104,stairs up
-0.9866748046828,-1.25671386718,-0.7822265625,0.0175100958465982,0.1316624277769942,0.382192382808,0.26647949218,0.53515625,0.0042119747702275,0.0645744146123315,0.093610839841,-0.1123046875,0.22839355468,0.0082739013672412,0.0905050404870844,1.0686612178431998,0.86683992345,1.30366618904,0.0161822128806664,0.1265716822668473,971.7928442209655,971.72616256233,971.84035122922,0.0007937346571653,0.1141886668899587,0.0280320764588306,0.0001129677568394,0.1549258589596531,0.44,0.56,-0.8515340121704238,stairs up
-0.9692651367148,-1.29248046875,-0.69177246093,0.0294094087442781,0.1706321032421371,0.3626464843711999,0.27099609375,0.48950195312,0.0029089234091885,0.0536640864554372,0.0840624999966,0.00415039062,0.20983886718,0.0038858656691275,0.0620242453596681,1.0429039778962,0.77928351866,1.3368077093,0.0265124550685008,0.1620102790498673,971.7566420359803,971.73021705531,971.79245789482,0.0003534246583406,0.0622408395099682,0.0187053578355834,-0.0004914727227936,-0.9332877814715136,0.54,0.46,0.2050290345596638,stairs up
-0.7670581054642,-1.30358886718,-0.18249511718,0.0844255401685395,0.2891042800908595,0.5699096679653999,0.24609375,0.99890136718,0.0516572909220793,0.2261431361170586,0.122277832027,-0.06762695312,0.25427246093,0.0072319767990582,0.0846147565798521,1.0235012191783996,0.70313654996,1.36626897747,0.0226807567240175,0.1498464185650675,971.730687817092,971.64658087445,971.79191119791,0.0016576098081556,0.1453303234600298,0.0405096742775605,0.0001353718168139,-0.5181699141922662,0.42,0.58,-0.4915371559507662,stairs up
-0.7648828124957998,-1.20068359375,-0.32861328125,0.0612119025893513,0.2461702328947549,0.6520410156215999,0.31970214843,1.36267089843,0.0891006722831357,0.2970011204697794,0.098081054686,-0.08666992187,0.26220703125,0.0103691992371458,0.1013188395352729,1.0709396563250002,0.77679436405,1.49360023649,0.0323093990636074,0.178847155618901,971.587524000009,971.43613596918,971.73328115943,0.0076927909412775,0.2971451902500348,0.087268912173034,-0.0019073178992573,-1.044880392041425,0.54,0.46,-0.1094839850211518,stairs up
-0.946945800777,-1.24548339843,-0.70483398437,0.0257096085221082,0.1595384356100034,0.4318212890593999,0.27124023437,0.96923828125,0.0284934448717776,0.1679538937418834,0.2015014648388,0.00756835937,0.67028808593,0.0249991990400234,0.1573188070436054,1.0746124943586,0.77584721648,1.62290431565,0.047875790409098,0.2177085953861423,971.5280472650986,971.43591884562,971.587546404,0.0010288531157859,0.1516275583800279,0.0319149586342838,0.0001353199080042,1.3380664771949364,0.28,0.72,-0.793395506659038,stairs up
-0.2644970703108,-0.8330078125,0.08728027343,0.0467119196206915,0.2150460425687592,0.5998730468706,0.35815429687,0.93933105468,0.0238438834805198,0.1536406347478252,0.7120751953084001,0.27062988281,1.06896972656,0.0423157964331068,0.2046769123979932,1.0206700895398004,0.85911539664,1.18060134708,0.0069019274738357,0.0826614069508702,971.5224074304718,971.45394481143,971.59350989002,0.0021593189891429,0.1395650785899533,0.0462355469228115,-0.0007553548054417,-1.3162926977652727,0.54,0.46,0.1333223766221213,stairs up
-0.1677563476556,-0.8134765625,0.29968261718,0.0878887909875084,0.2949744108861536,0.86303710937,0.47985839843,1.38525390625,0.0454121460821367,0.2120330743570808,-0.3314794921848001,-0.77124023437,0.29187011718,0.0833581717554508,0.2872709348992625,1.0203236511412,0.56714873483,1.62561773974,0.0568546088155009,0.2372468392357335,971.5855300320555,971.43707378816,971.7793994592,0.0079566134459553,0.3423256710400437,0.0887527312903428,-0.001782923447309,-0.8872707725752207,0.46,0.54,-0.0257484968069432,stairs down
-0.6287451171831999,-1.20727539062,-0.1015625,0.144728475411009,0.378525019855886,0.8363159179652,0.49475097656,1.33154296875,0.0686975309647688,0.2607883349675002,0.1047656249992,-0.14514160156,0.49743652343,0.0372208456552249,0.1919599885358214,1.1210370384188002,0.5687419351,1.86492992932,0.0981180961720533,0.3116679566627484,971.6969069362646,971.57575496707,971.890093893,0.0059533810709128,0.3143389259299738,0.0767713961069077,0.0013503804695159,0.3174421672622576,0.58,0.42,0.8384026185579853,stairs down
-0.0023242187496,-0.73767089843,0.64379882812,0.1476540806053096,0.3823317143518917,0.8338891601513998,0.32214355468,1.51953125,0.111196401919931,0.3317897495413801,-0.0653710937502,-0.7001953125,0.68225097656,0.2162821107651525,0.4627302558267623,1.0490806069034004,0.67586642483,1.63644378646,0.0701626877672102,0.2635546639495081,971.743560925518,971.61342520711,971.88203366776,0.0065861309633929,0.2686084606499435,0.0807481866902225,-0.0006027801012773,-1.0064290385330212,0.56,0.44,0.0812406672403837,stairs down
-0.6158557128877998,-1.724609375,0.09826660156,0.2866338067268195,0.5326982904605113,0.8630676269493001,0.20104980468,1.55859375,0.1380941510730175,0.3697474943286125,0.1105114746072,-0.09887695312,0.34265136718,0.017441881031914,0.1314057160917854,1.1781509990693,0.25471198543,1.95846817046,0.1879647854946345,0.4313758658521455,971.8609760950812,971.78984193187,971.93502183792,0.0010196159673047,0.1451799060499752,0.0317713677330976,0.0001038599747444,-0.2054030254263592,0.46,0.54,0.1976342643205642,stairs down
-0.4684667968716999,-1.60339355468,0.15002441406,0.1594395236767486,0.3972972796785565,0.8118664550752999,-0.07592773437,1.5634765625,0.2392012912498816,0.4866305357634093,0.2381225585893999,0.0341796875,0.52136230468,0.0182580795851355,0.134445151601998,1.052239415807,0.19234179529,2.04837567521,0.2432452029744779,0.4907267579261733,971.9585918462476,971.90149987709,972.04027665647,0.0018342851943127,0.1387767793800094,0.0426138749982865,0.0003465899874747,-1.1878378037088888,0.58,0.42,0.5159719745878509,stairs down
-0.9225024414025998,-1.60339355468,-0.60974121093,0.0403591081410318,0.1998887617141631,0.611835937496,0.33947753906,1.22082519531,0.0500272273775872,0.2225465234592789,0.1585253906216,-0.23327636718,0.36682128906,0.0250546593610123,0.1574932149884629,1.148976120845,0.87521081326,2.04837567521,0.0450754817562848,0.21124565543159,972.0223284531104,971.977682938,972.1386237092,0.0018769334238876,0.1609407711999892,0.0431064274748991,0.0004774243975352,0.2379303660714757,0.64,0.36,1.1223529740591092,stairs down
-0.8696777343716,-1.09545898437,-0.55114746093,0.0195761732381831,0.1392135464162926,0.4551611328081999,0.25903320312,0.65270996093,0.0075327100416535,0.0863561401478611,0.2386035156215999,0.03002929687,1.05627441406,0.0623035682329227,0.2483556573758559,1.0494379777436,0.91974261535,1.3118936296,0.0077180949657172,0.0874123218777542,972.0469691747908,972.01523927633,972.06714422208,0.0001540549897677,0.0519049457499249,0.0123496736746372,7.363442679808343e-05,-0.5040566585544002,0.56,0.44,-0.2621279867889427,stairs down
-0.5389941406216,-1.67053222656,-0.14794921875,0.1845250166792504,0.4274105362674836,0.4302685546841998,-0.67846679687,0.91198730468,0.1363401253760389,0.3673917855944503,0.6213867187478,0.30285644531,1.05627441406,0.0483562621204119,0.2187983078070025,1.0834392988982,0.73806527425,1.85241845622,0.053995598734627,0.2312047636777424,972.0459218346814,972.01051586017,972.09477589911,0.0008334645885716,0.0842600389399876,0.0287250751554438,-0.0006731621068626,-1.234865537652717,0.56,0.44,0.2927834098425379,stairs down
-0.9943310546840002,-1.18481445312,-0.84326171875,0.0062132183709731,0.0784288606780912,0.3382250976533999,-0.29211425781,0.52307128906,0.0316141830604821,0.1769125242312632,0.1002270507782,-0.29638671875,0.30285644531,0.0142600972299351,0.1188170705649478,1.076844404051,0.94666289984,1.25577112365,0.0051602806425456,0.0714750154677855,972.0444944084472,972.01813889257,972.13817868498,0.0005568857102696,0.1200397924098979,0.0234801374179745,-0.0003247398724532,7.458926855900408,0.7,0.3,2.4516497167617985,stairs down
-0.7772998046846001,-1.06860351562,0.39453125,0.1544538771003531,0.3910362365936814,0.4001977539026001,-0.14099121093,1.01696777343,0.0608189684501227,0.2453788474290754,0.1761108398404,-0.26135253906,0.63647460937,0.0301532205003376,0.1727764112815584,0.9948807467976,0.31338896671,1.45053866139,0.0490427894378724,0.2203460041468727,972.0432789985128,972.0099019794,972.07214242681,0.0002716555510951,0.0622404474100903,0.0163993596089661,-0.0002947280312707,0.0399161468421493,0.58,0.42,-0.2011191958506453,stairs down
0.0668237304676999,-1.1611328125,0.83947753906,0.3363139834576505,0.5770189283057134,0.0810852050800999,-0.72534179687,1.33166503906,0.3855612757715924,0.61782332669937,-0.2387121582016999,-1.00146484375,0.76928710937,0.3273473422466089,0.5692748622802019,0.9974273332368,0.37621278154,1.65050159058,0.1150745481473666,0.3375260029477624,972.0763509614266,971.92140557307,972.48213569216,0.0180753831124169,0.5607301190899534,0.1337708087786449,-0.0001275824614048,3.99969986060184,0.6,0.4,2.016991151276009,stairs down
-0.8077624511668998,-1.47766113281,-0.51940917968,0.0641592619680606,0.2520271202636335,0.4741467285124999,-0.20886230468,1.14733886718,0.1162096446485922,0.3391865979105104,0.1950231933567,-0.16687011718,0.50537109375,0.0254774318357958,0.158816427101978,1.0054102839182,0.54201073142,1.84387617568,0.1093609895827553,0.3290400882672624,972.1531094925944,972.01391443804,972.44378313328,0.0133100384130039,0.4298686952399748,0.1147908447084256,0.003202341176332,0.9843510704103298,0.7,0.3,1.418578486615787,stairs down
-0.2717370605456,-0.86413574218,0.71740722656,0.222983187872621,0.4698439698388124,0.4809655761681999,0.05651855468,0.98010253906,0.0502933324757555,0.2231376237907851,0.4391333007777999,0.00231933593,1.1162109375,0.0915233970835104,0.3010118986230865,0.9040469795748,0.54280614819,1.23960466393,0.042280755922988,0.2045921512760403,972.2171339621163,972.04259327026,972.34586048731,0.0068110749138238,0.3032672170500063,0.0821155537318333,0.0023848615107194,-0.4198018758463662,0.6,0.4,-0.2969366754708837,stairs down
0.2129272460891,0.02404785156,0.81335449218,0.0465639957573417,0.2147052765997341,0.6801867675739999,0.07385253906,1.251953125,0.1357459055944418,0.3665902979328523,0.3019934082006,-0.07214355468,0.84436035156,0.0818736334198406,0.2847014174282283,0.8843386263433999,0.34935542425,1.2580885673,0.0794736998878451,0.2804977056750495,972.329320304567,972.22557350924,972.50066139279,0.0049473545063193,0.2750878835499861,0.0699848623722029,0.0011454526138536,-0.0770814240973702,0.56,0.44,0.5588236357634715,stairs down
-0.6470288085914,-1.27746582031,0.29614257812,0.2327900548214346,0.4800647396687454,0.7358886718700001,0.11633300781,1.46374511718,0.1069504209230352,0.3253934798268165,0.2155395507774,-0.05920410156,0.66284179687,0.0347004034601698,0.1853467006061024,1.1478030379042,0.5203869878,1.61675578265,0.0604852233101031,0.2447046609221045,972.4162094189528,972.30628532581,972.48545197914,0.0032777207428349,0.1791666533299576,0.0569644058637197,0.0014619257739262,-0.9678475994663828,0.42,0.58,-0.5644610422570084,stairs down
-0.4853881835899999,-1.15661621093,-0.10546875,0.0672838460615185,0.2580910839236864,0.7095117187465999,-0.06506347656,1.41052246093,0.2105378655710235,0.4565440689739746,0.2388842773405999,-0.07019042968,0.56176757812,0.0225948723932636,0.1495624407039783,0.9737342774296002,0.30679662344,1.63343281803,0.1467962029431633,0.3812194130861277,972.512469280387,972.44125036515,972.60887287913,0.0018019575345306,0.1676225139799498,0.0422366897280709,0.0010893177470565,-0.0236416759982582,0.62,0.38,0.6351513948432872,stairs down
0.1841027831991,0.08703613281,0.28833007812,0.0032779195258154,0.0569661331894428,1.0263269042937,0.95483398437,1.05419921875,0.0007457173397535,0.0271709434204262,0.1369873046847,0.01428222656,0.26574707031,0.0025429093476206,0.0501744980457651,1.0544026139818,0.98509581983,1.10077972195,0.0007497770526007,0.0272448028452162,972.5220728771584,972.01097309509,973.10832174232,0.0972847401092874,1.0973486472299785,0.3103415742503647,-0.0038866273454222,-0.5192110133008172,0.4,0.6,0.2742130355468926,lift up
-0.3993664550762999,-1.12036132812,0.11437988281,0.2016358402303378,0.4467879607017567,0.7966101074182999,0.22875976562,1.07153320312,0.0738475994200098,0.270386988270164,0.0839929199197999,-0.03991699218,0.18334960937,0.0045795224695006,0.0673329580874447,1.0319066910967,0.75832924479,1.25502313207,0.0137039925715407,0.1164772623554713,972.5237634950142,972.45780031543,972.59229632977,0.0023008918555903,0.1344960143400158,0.047727171894367,-0.001473775024679,-1.633240690825881,0.51,0.49,0.0838032220364322,lift up
-0.9456225585887,-1.12036132812,-0.88146972656,0.0018636672845942,0.0429538195245576,0.1806274414041,-0.21960449218,0.52600097656,0.0529177091025241,0.228885412404327,0.2157495117170999,-0.06323242187,0.47448730468,0.0296866897312315,0.1714346022071368,1.0275028872912997,0.97833491653,1.15694661677,0.0012498482565574,0.0351759829143671,972.3382639061938,972.23093750933,972.50793605386,0.0076442307318446,0.276998544529988,0.0869930366438957,-0.0026644167882426,-0.6068030759982022,0.67,0.33,0.989955452195251,lift up
-0.3727795410120998,-1.09912109375,-0.04736328125,0.1187217632018254,0.3428331162093405,0.5951953124978999,0.34533691406,0.72717285156,0.0135741729690208,0.1159242478488887,0.5740185546843999,-0.04931640625,0.77844238281,0.0705985708423171,0.2643720581564813,1.0054067778791,0.67481591619,1.20986813735,0.0128708285597763,0.1128810005013179,972.095206089584,971.92143026658,972.23093750933,0.0105985830762826,0.3095072427499872,0.1024333795474882,-0.0034077266609286,-1.2053510297268144,0.47,0.53,-0.3236724884569734,lift up
-0.4113146972618999,-0.60302734375,-0.13830566406,0.0192903417211959,0.1381934814091604,0.1875048828103,-0.27014160156,0.76696777343,0.1346600199930173,0.3651211029139334,0.8244201660116,0.58447265625,0.97192382812,0.0146055165489737,0.1202475005290504,1.0247297920349,0.9864219923,1.09232620482,0.0008137820079652,0.0283838719678199,971.8298405153632,971.72787283426,971.96836123485,0.0044183529499846,0.2404884005900385,0.0661375038876192,-0.001481084470922,-0.2617210064484911,0.67,0.33,0.5638818467549971,lift up
-0.2228442382773,-0.28100585937,-0.1806640625,0.0006815440184757,0.0259755380751009,-0.2441394042929,-0.26293945312,-0.22424316406,0.0001294250123949,0.0113194859543619,0.945727539058,0.92346191406,0.96667480468,0.0001463227801723,0.0120357613955487,1.0022646177047,0.98879722273,1.01823797083,7.831958322269566e-05,0.0088054748532074,971.5865047827472,971.44754504732,971.72787283426,0.0053813981394058,0.2803277869400062,0.072990301807924,-0.0024818553516365,-0.7603622520216131,0.51,0.49,-0.0580776645327323,lift up
-0.2341186523402,-0.24401855468,-0.22290039062,3.511902659081846e-05,0.0058964257245309,-0.2415991210904,-0.26477050781,-0.22180175781,0.0001066797851137,0.0102768179541441,0.948481445308,0.94006347656,0.95776367187,2.053106674038233e-05,0.0045084094837291,1.0064486771221,0.9959605558,1.01518959836,2.0704726822306984e-05,0.0045274363114332,971.3438523093522,971.23771616643,971.44754504732,0.0039126211595051,0.2098288808899724,0.0622374079465887,-0.0021381406864766,-1.2745650541986342,0.51,0.49,-0.2060222707301175,lift up
-0.2192260742155,-0.23315429687,-0.21240234375,3.648451483057197e-05,0.0060099641997491,-0.2351696777304999,-0.27160644531,-0.22595214843,7.567366415180199e-05,0.0086554565165728,0.9072436523406,0.88500976562,0.95251464843,0.0002955833528821,0.0171063590326321,0.9625856482039,0.94153541058,1.00917562812,0.000291341049516,0.0169831575103361,971.124771165208,971.05624000809,971.23771616643,0.0030859650975014,0.1814761583400468,0.0552730082999505,-0.0018885247821683,-1.2055824047464232,0.51,0.49,0.3204556119416212,lift up
-0.2544641113232,-0.32739257812,-0.22058105468,0.0009940980826379,0.0313712782941909,-0.2112207031202999,-0.27160644531,-0.12768554687,0.0012377310521654,0.0350050530872877,0.9388720703086,0.88708496093,0.96862792968,0.0004215737544855,0.0204293420584378,0.9965876415790998,0.95415367054,1.02019162915,0.0002897730299596,0.0169373935320651,971.0181486522456,971.00631104686,971.056742239,0.0001785512538594,0.0504311921399676,0.0132953278004286,-0.000341611966784,1.2260005323812289,0.63,0.37,1.3646589958594184,lift up
-0.2189172363234,-0.30688476562,-0.13159179687,0.00128923842851,0.0357259855598829,-0.3090551757772,-0.5966796875,-0.16088867187,0.0188323715660986,0.1365432087305613,0.9207958984337,0.79968261718,0.98779296875,0.0032823906764014,0.0570049714466858,1.0070786548282,0.98365319748,1.04383903797,0.0002701901621326,0.0163550683432177,971.0236177656096,971.0055660418,971.05037293456,0.0001536012109565,0.0448068927599933,0.0123314718848538,0.0002057447420694,-0.6619527678187307,0.61,0.39,0.5458466883339381,lift up
-0.9085058593712,-0.94165039062,-0.82666015625,0.0004789144342202,0.0217744182443086,0.3766076660121999,0.3427734375,0.57458496093,0.0026229767650733,0.0509582868375953,0.1664001464805,0.14123535156,0.24487304687,0.0005345935698393,0.023005382721027,0.9991516672447998,0.98123482491,1.0360876895,0.0002033385089131,0.0141882036855992,971.027126542186,971.00419128794,971.04129831486,8.143629188124127e-05,0.0371070269200117,0.0089789714868925,-5.974207862605147e-05,1.4797716967043213,0.37,0.63,-1.4175119568660393,lift down
-0.5173425292927999,-0.82666015625,-0.37316894531,0.015170076656327,0.1225494834332801,0.5416760253872999,0.39050292968,0.76489257812,0.009316701207226,0.0960392325831155,0.6004589843716999,0.24487304687,0.80969238281,0.0303713841628585,0.1734003181116747,0.987559343261,0.9377620728,1.04481244093,0.0006498231870667,0.0253638513478556,971.1021631131558,971.00740096458,971.25429151515,0.0050053518751391,0.2468905505700149,0.0703938801060697,0.0022230684829954,-0.699881310632831,0.49,0.51,0.4316078878941226,lift down
-0.4094628906211999,-0.42834472656,-0.39074707031,0.0001039573881245,0.0101448417554582,0.8346289062471999,0.72973632812,0.90893554687,0.0027778094705707,0.0524407415647899,0.3853015136679999,0.26416015625,0.58483886718,0.0098166658103686,0.0985824485000495,1.0125090870579,0.9874178315,1.02914775079,0.0001205286264347,0.0109235223334978,971.2808786797576,971.19859038218,971.39304573858,0.0027484862749238,0.1944553563999989,0.0521632189590958,0.0016528780303348,-0.4064572625578027,0.65,0.35,0.4698854219791957,lift down
-0.4563867187456999,-0.47570800781,-0.42297363281,0.0001197234789563,0.0108869758963087,0.7242602539023,0.70544433593,0.73962402343,8.846985571309787e-05,0.0093586942014346,0.5552697753865999,0.52856445312,0.58483886718,9.510157536681417e-05,0.0097031211274077,1.0204964411519,1.00243115686,1.03377169016,5.4092372000250174e-05,0.0073178855060903,971.5237041346372,971.39304573858,971.69794005651,0.0055931538936855,0.3048943179300067,0.0744125147723731,0.0025221550776299,-0.4854164090780584,0.49,0.51,0.302457543041348,lift down
-0.2153308105454,-0.49072265625,0.15942382812,0.0671396630251182,0.2578144030012037,0.8217858886678999,0.67883300781,1.15979003906,0.0108747853337245,0.1037595175412229,0.4323327636680998,0.22741699218,0.73022460937,0.014150726089467,0.1183605459119396,0.9959593910543,0.77432017581,1.22592752871,0.0079994317190448,0.0889912209257429,971.7740312495796,971.6965917857,971.92118209922,0.0040713132134861,0.2245903135200251,0.0634870071853392,0.0018891735111044,-0.7760149047930169,0.53,0.47,0.5643806771457164,lift down
-0.3234777831994,-0.36206054687,-0.18969726562,0.0008425162462082,0.0288806350994247,0.9381420898398,0.87622070312,1.15979003906,0.0031298509209304,0.0556646423838433,0.3206005859335,0.16333007812,0.42797851562,0.006214870804418,0.0784392892393466,1.0468801673983,0.99531966405,1.22592752871,0.0016772458134556,0.0407489061855783,971.9953728437206,971.90852662826,972.14916663092,0.0047646994825172,0.2406400026600295,0.06868080144911,0.0022969034437369,-0.9265286601652633,0.49,0.51,0.4083257557295714,lift down
-0.3126232910119999,-0.33996582031,-0.24816894531,0.0007089958934457,0.026493507402971,0.9047729492143,0.8369140625,0.98071289062,0.0020927586639301,0.045517371159711,0.3097949218713,0.05676269531,0.49133300781,0.0215667392030832,0.1461200595779115,1.0178932052120997,0.98808761629,1.06181704085,0.0003419565027149,0.0183993732960602,972.2505359151994,972.14916663092,972.3622123205,0.0035713907784682,0.2130456895799852,0.059461557923448,0.0014547215212362,-0.9252335239784552,0.53,0.47,0.3920199167885226,lift down
-0.3870312499953999,-0.4228515625,-0.3359375,0.0004633256642733,0.0214171054914193,0.8323242187459,0.68322753906,0.90075683593,0.0019448267088602,0.0438791344692628,0.5217822265587999,0.33728027343,0.71423339843,0.0062107282215053,0.0784131426438852,1.0596671031061002,1.00566767375,1.09743175722,0.0004563716408557,0.0212557739084507,972.4737389391954,972.3622123205,972.57970347724,0.0047368964116689,0.2174911567399249,0.0684801244709168,0.0019486395901333,-1.3521097673454394,0.45,0.55,0.0852061257576152,lift down
-0.3476342773396999,-0.42932128906,-0.30029296875,0.0015494914909562,0.0391662683446703,0.6949450683564998,0.59814453125,0.77978515625,0.0029098528487381,0.0536726589638599,0.6750842285116999,0.59057617187,0.7451171875,0.0027929214200109,0.0525831931876604,1.0326270807541,1.00414508546,1.08244006149,0.0004020298955026,0.019950177857543,972.5583487911608,972.48998454692,972.60683204584,0.0009774604356073,0.1168474989199239,0.0311076490794666,0.0007964389478469,-0.7004699721736705,0.57,0.43,-0.365447176236344,lift down
-0.4863256835905,-0.939453125,-0.318359375,0.0485688249209863,0.2192786735452777,0.6481518554652999,0.37890625,0.74328613281,0.0099851531873748,0.0994248543147087,0.5788769531220999,0.35290527343,0.69787597656,0.0118101175145709,0.1081296274821345,1.0296959304793,0.97220250925,1.09507253252,0.001109869233169,0.0331477079273574,972.592249243134,972.56885684753,972.63565406514,0.0002827095301013,0.0667972176099738,0.0167296872296017,-0.0004030777467443,-0.0149740336713457,0.51,0.49,0.6606902337500031,lift down
-0.9156628417938,-0.96008300781,-0.88317871093,0.0004344467848849,0.020738908289398,0.3892041015593,0.33068847656,0.51281738281,0.0018216279780943,0.0424665950873551,0.2382116699176,0.13635253906,0.38061523437,0.0032380913408938,0.0566189935223589,1.0252966575243003,0.95439890637,1.08213219016,0.0008778390994718,0.0294798356250014,972.5940268333502,972.54359997057,972.63701586882,0.0004923767268993,0.0934158982499866,0.0220783368855164,-0.000159916821007,0.5496469235437265,0.28,0.72,-0.480143080192551,lift down
-0.905043945308,-1.03833007812,-0.78784179687,0.0068866042416864,0.0825695960948675,0.3678564453095999,0.12524414062,0.572265625,0.0153110691032574,0.1231176608461387,0.2812353515575999,0.03662109375,0.47729492187,0.0096523705394651,0.0977540118566522,1.0311982037828,0.93061515463,1.08665127932,0.0016949881046807,0.040963864852257,972.5945174673324,972.51565687407,973.04501926595,0.0094968365017587,0.5293623918799994,0.0969632308493335,0.002260320590319,11.199088076453627,0.57,0.43,2.9802245825407776,lift up
-0.9216113281224,-1.03820800781,-0.89770507812,0.0008238188907662,0.0285583735856686,0.2919384765592001,0.17639160156,0.32678222656,0.0007623146037774,0.0274716482530569,0.4378564453083999,0.37719726562,0.46899414062,0.000235701955936,0.0152756321105438,1.0619835638648,1.04268977545,1.11860075173,0.0003114223155261,0.0175587041768725,972.9181836749304,972.26748969049,975.72186006595,0.81503202193066,3.4543703754599164,0.8982659415292074,-0.0150121300835766,4.769839240166383,0.83,0.17,2.4530612083130365,lift up
-0.8907373046824,-0.91223144531,-0.87231445312,0.0001913139555357,0.0137622969006029,0.2905957031208001,0.28039550781,0.29858398437,2.985419649583037e-05,0.0054365112462747,0.4262499999956,0.41455078125,0.43688964843,4.6433439162103466e-05,0.0067800519740251,1.029382068322,1.01277748149,1.05209072585,0.0001872263832205,0.0136144819728241,972.3477227265264,972.16220888347,972.55748608633,0.0169513177952501,0.3952772028599156,0.1295446047402116,-0.00030416290199,-1.4025957383681331,0.52,0.48,0.2179182505956668,lift up
-0.8620117187459999,-0.8798828125,-0.83935546875,0.0001859231428807,0.0135670155690908,0.3076562499956,0.29992675781,0.31665039062,2.469163952274403e-05,0.0049441605078634,0.4348876953079998,0.40356445312,0.48022460937,0.00073440147166,0.0269640029844134,1.0137887146971998,1.00884375927,1.01999132145,1.2007063785563274e-05,0.0034477518976439,972.064921361834,971.6499577083,972.43234000025,0.0476508121498638,0.7823822919499435,0.2171964641249143,-0.0015024497054479,-0.748750817754428,0.52,0.48,-0.2494763588802023,lift up
-0.6712646484344,-1.35620117187,0.04016113281,0.173881062352133,0.414900291309384,0.4277587890587999,0.15441894531,1.01354980468,0.0615553566904425,0.2468598856103157,-0.0797265625007999,-0.97424316406,0.47265625,0.2939337748682865,0.539439002223239,1.0600059682307998,0.79007890598,1.64940252576,0.0408019938497827,0.2009825214074223,971.5616466949848,971.01216546354,972.46328631022,0.1328142263241734,1.4511208466800554,0.3626100992263338,-0.0020756334006895,0.2884508578021045,0.48,0.52,0.66703517229477,lift up
-0.6470166015597999,-1.04846191406,0.07788085937,0.1496955543200108,0.3849657111702426,0.4778588867151998,0.099609375,1.16259765625,0.088644104105705,0.2962391990683339,-0.0504528808588,-0.98657226562,0.45751953125,0.2573693751935918,0.5047729008590456,1.0509742926833,0.64805050297,1.52636811005,0.0369414194757524,0.191238085330812,971.6654357030096,971.51559054188,972.1618463731,0.0311024084722175,0.6462558312200599,0.1754747400268637,0.003481547046446,2.606719739168484,0.81,0.19,1.8959166708959176,lift up
-0.8413330078083997,-0.84838867187,-0.8310546875,2.6542731004286028e-05,0.0051261392581789,0.4485791015595999,0.43615722656,0.4638671875,5.750015528221769e-05,0.0075448759916512,0.3747070312459999,0.36560058593,0.38708496093,3.196494747726287e-05,0.0056254153626634,1.0244883650364,1.01944170299,1.03237774625,8.320517821626949e-06,0.0028700718881956,971.440139776094,971.29727466133,971.83434193489,0.0283807680327074,0.5370672735599555,0.1676214793884732,-0.00477574920071,0.8534302191888905,0.75,0.25,1.491349863212729,lift up
-0.8391699218712,-0.84875488281,-0.83142089843,1.5109620920218793e-05,0.0038676252030175,0.4442968749959999,0.43591308593,0.45629882812,2.40546525086115e-05,0.0048799698752682,0.373334960934,0.36303710937,0.38500976562,2.849810050923296e-05,0.005311602348081,1.0203102413876,1.01298265785,1.0284752652,1.9051547617909648e-05,0.0043429289818888,971.1842537964254,971.07970409128,971.29727466133,0.0048635986088323,0.217570570050043,0.069389931710184,-0.0023870705023236,-1.237576262015287,0.51,0.49,0.1310159233550523,lift up
-0.8428417968712,-0.84936523437,-0.8349609375,1.9992337079887743e-05,0.0044488665645407,0.4410449218703999,0.43237304687,0.44873046875,1.5590503961510613e-05,0.0039286892116704,0.3746728515587999,0.36547851562,0.38171386718,1.9963004369669345e-05,0.0044456016832339,1.0224068993032,1.01206410526,1.0310481553,2.2006063057987392e-05,0.0046675477959424,970.952920810223,970.80642626603,971.07970409128,0.0046956154867275,0.2732778252499201,0.0681810775205279,-0.0023093494232617,-0.6396642624311459,0.47,0.53,-0.0199910924424633,lift up
-0.8182470703079997,-0.84606933593,-0.78881835937,0.0003973762434962,0.0198343762458331,0.435405273434,0.42431640625,0.447265625,4.778086538592466e-05,0.006877721769021,0.3693408203091999,0.35595703125,0.38439941406,0.0001036890588412,0.0101317406329247,0.9977740662671998,0.96693087333,1.02927489139,0.0005140728704152,0.0225595244123422,970.6983007153908,970.55737093577,970.81691147341,0.0054623266704709,0.259540537639964,0.0735370886272104,-0.0025164828152478,-1.1560922918543146,0.51,0.49,-0.1051305471942805,lift up
-0.8171044921835999,-0.84973144531,-0.791015625,0.0003367415823169,0.0182585368114157,0.4219482421839998,0.4033203125,0.44506835937,0.0001114763394759,0.0105053118031404,0.3710546874955999,0.35583496093,0.38366699218,6.118172346065438e-05,0.0077826670381076,0.9916769016044,0.96150943359,1.03307118862,0.0004675553716227,0.0215146419423274,970.5496966977912,970.48186341162,970.66064342174,0.0028538849118634,0.1787800101200218,0.0531539844484385,-0.0011723554290105,-1.0087745998227626,0.51,0.49,0.3431599136776508,lift up
-0.8998144531215999,-1.15246582031,-0.837890625,0.0087371685527957,0.093004284133946,0.3849023437468,0.11779785156,1.05908203125,0.0338596855994883,0.1830876531705332,0.3838183593715999,0.15625,0.47082519531,0.0063872099885186,0.0795194183117144,1.0662461449848,0.99951995562,1.55399013578,0.0169149283466019,0.1294054831262413,970.3780768244192,970.25192352563,970.51002752877,0.0071027650886738,0.2581040031400334,0.0838554556232751,-0.0009733487572208,-1.106405957908642,0.56,0.44,0.1529077446012541,lift up
