avg_accX,min_accX,max_accX,var_accX,std_accX,avg_accY,min_accY,max_accY,var_accY,std_accY,avg_accZ,min_accZ,max_accZ,var_accZ,std_accZ,avg_magnitude,min_magnitude,max_magnitude,var_magnitude,std_magnitude,avg_pressure,min_pressure,max_pressure,var_pressure,range_pressure,std_pressure,slope_pressure,kurtosis_pressure,Pressure_below_avg,Pressure_above_avg,skew_pressure,Label
-0.8332926432233334,-0.83374023437,-0.83276367187,1.693117444378397e-07,0.00040281147999975917,0.31154378254875,0.31018066406,0.31298828125,1.3316023207070172e-06,0.0011296543235333357,-0.4290262858025,-0.43872070312,-0.4130859375,6.440141495771104e-05,0.007856081890344984,0.9877002607716667,0.98064644407,0.99156450251,1.1543870908528692e-05,0.0033260902404083983,984.1990273529817,984.19671614727,984.21092428953,1.3777338292861824e-05,0.014208142260031309,0.0036336321402502,0.0004111735627122937,2.173050232457385,0.67,0.33,1.5705515601892786,Lift down
-0.8531141772676291,-0.873046875,-0.83337402343,0.0001686087108059605,0.01295143211154467,0.2990426918862887,0.2587890625,0.31945800781,0.0003044132442830312,0.017402416609441994,-0.4333294740614433,-0.44873046875,-0.4130859375,7.133600637761993e-05,0.008424268217746835,1.0026865240456702,0.98064644407,1.02162642794,0.0001394240444412529,0.011777324135804497,984.2950502732738,984.21092428953,984.39760049448,0.0032432354853786207,0.18667620495000392,0.0568024451647207,0.0010082269783126359,-1.2326335915654005,0.52,0.48,0.17870775027546063,Lift down
-0.9299206023482979,-0.95727539062,-0.87353515625,0.0006779376088544744,0.025967894749932007,0.2657438237582979,0.24536132812,0.29418945312,0.0002111605197777438,0.014492664541884866,-0.3968992841973404,-0.42883300781,-0.37353515625,0.00023316676283897939,0.015229133727841323,1.045688681258032,1.00558381981,1.07742753481,0.000555580837308714,0.023507990558297127,984.524333831526,984.41217508384,984.62910890892,0.004786978214714815,0.21693382507999104,0.06900373587449121,0.00126597973543491,-1.2279732354445032,0.49,0.51,-0.12337710264105088,Lift down
-0.9167371355585475,-0.95434570312,-0.89172363281,0.000441680511231658,0.02095740972405931,0.27582366772446926,0.26318359375,0.29736328125,0.00010658954187158252,0.01029534212984804,-0.40614702448173184,-0.42834472656,-0.38598632812,0.00013546307603852186,0.011606304281614058,1.039975216369218,1.00752308112,1.08396760394,0.0005757561313548775,0.023927800079710022,984.6729459751813,984.63460354151,984.69010999593,0.0002518309881294649,0.055506454419969486,0.01582479418826067,0.00029191825638883557,-0.5313571270024169,0.44,0.56,-0.760194987534708,Lift down
-0.8965544267100001,-0.91833496093,-0.88269042968,5.9797171170025294e-05,0.007710863409220147,0.27528866854130685,0.26342773437,0.28784179687,3.7467157970558515e-05,0.006103628133428538,-0.4052394520114772,-0.41442871093,-0.39599609375,2.891245551987936e-05,0.005361732947884061,1.021701035400966,1.01073839859,1.04293876776,6.553101540552568e-05,0.00807209267109351,984.6985539360874,984.69334318256,984.70545862195,1.4806375777100162e-05,0.012115439389958738,0.003836958253878064,4.51173160138009e-05,-1.2182889255457219,0.56,0.44,0.355868733964678,Lift down
-0.9355801669004195,-1.20141601562,-0.66088867187,0.02938207001398771,0.17081159501892976,0.36570899802888107,0.28356933593,0.43566894531,0.001917114372249509,0.04363150212905778,-0.38887504097007,-0.56896972656,-0.18395996093,0.015621477437794674,0.12454812859626224,1.0843670115847555,0.77779237462,1.37910596141,0.03123628246353945,0.17611884317652207,984.6510216961028,984.59165668799,984.72066039372,0.000830128741156752,0.1290037057299287,0.028711036990410967,-0.0005455960182706138,-0.2284216377320356,0.48,0.52,0.2475030514014607,Stairs up
-0.9456458125525531,-1.26953125,-0.65148925781,0.03312471144516127,0.1813554091104958,0.3399675518024823,0.255859375,0.44677734375,0.0027254374933031026,0.05202026671768386,-0.3654620664300709,-0.55029296875,-0.05834960937,0.020494448547019494,0.14265026410106804,1.0807689155078724,0.74527040958,1.44481250774,0.031493359922087294,0.17683326259366278,984.5668302645214,984.49094849301,984.61693353535,0.0011576358265543449,0.12598504233994845,0.03390318043174258,-0.00043537600053797295,-0.9001974997594786,0.4,0.6,-0.3600234330115791,Stairs up
-0.9293010903743166,-1.25549316406,-0.62609863281,0.04262118853472282,0.20570503464688786,0.36279033413424466,0.27673339843,0.42614746093,0.0022679652570850944,0.04745154328651,-0.426537383370072,-0.60266113281,-0.138671875,0.019274280744442138,0.13833154685101426,1.094486228198489,0.74527040958,1.45065620368,0.04326446102186406,0.20725155224171146,984.476573725329,984.40523479355,984.56358776625,0.0010376592948027868,0.15835297269995863,0.03209663720734671,-0.0005262901431516783,-0.15886611882894153,0.49,0.51,0.5461456392250372,Stairs up
-0.9106445312463504,-1.19714355468,-0.63647460937,0.034872517208372,0.18605905860006658,0.3317140453886861,0.26000976562,0.44201660156,0.0027560704463829157,0.05230633942319586,-0.42128514198912415,-0.62390136718,-0.19323730468,0.01706234860281536,0.130145326125389,1.064721739910365,0.75154886649,1.41293662652,0.03772354430342103,0.19351534813921054,984.397227967224,984.35149423419,984.46973500037,0.0009238468818693307,0.1182407661799516,0.030283716317065088,-0.00043343507126996934,0.41851121170638983,0.53,0.47,0.7792175846438119,Stairs up
-0.8726897737838059,-1.19714355468,-0.57873535156,0.04177864481289584,0.2036341422292841,0.3387551378802239,0.23913574218,0.41711425781,0.0018474970654009807,0.04282183758163745,-0.4605931523987313,-0.63366699218,-0.21643066406,0.014301839146140017,0.11914322894423492,1.0514396305966416,0.70521857851,1.41293662652,0.040763125041814854,0.20114403450296425,984.3150914860751,984.26180794628,984.38279001826,0.0008864727053231335,0.12098207198005184,0.029662387587194677,-0.000558315308227513,-0.34222804730675627,0.49,0.51,0.11148239793637714,Stairs up
-0.8651031264651879,-1.27331542968,-0.5146484375,0.044275313305073644,0.2096244647281283,0.4024685737739098,0.27331542968,0.55224609375,0.006259343494554065,0.07881802307538743,-0.46960908129248125,-0.68127441406,-0.09729003906,0.02578821787481158,0.15998225370275604,1.082656353959173,0.78161370394,1.41848661881,0.034782824229952936,0.18579908297874553,984.245970791027,984.20261088428,984.29668664598,0.0005988539589899488,0.09407576169996901,0.024379321107121904,-0.00043814573506548393,-0.4283732027542384,0.53,0.47,0.2338299570127957,Stairs up
-0.9654578288965647,-1.26574707031,-0.64819335937,0.04245735749390126,0.20526386805353483,0.2834864026680153,0.0517578125,0.46301269531,0.011790394385692238,0.10816834738089713,-0.41966748419259536,-0.56506347656,-0.16979980468,0.01703474247401789,0.13001809978586115,1.1040297562028243,0.72941628792,1.39228890025,0.0407619678184567,0.201123861733942,984.1892141784226,984.12793330667,984.26354624918,0.0012473529839857314,0.13561294250996525,0.035182825433470004,-0.0006764462912921427,-0.8933500375259453,0.49,0.51,-0.1478611655711958,Stairs up
-0.8738927841149219,-1.17175292968,-0.55822753906,0.03601467613730387,0.1890325672469725,0.3553066253621875,0.19873046875,0.46411132812,0.004622042439437331,0.0677195151553762,-0.41935539245171877,-0.6474609375,-0.17663574218,0.01703308199702096,0.13000004247660552,1.0401087545435157,0.67908036311,1.37503833067,0.041507653860710404,0.20293687519749484,984.1235946439388,984.07780123995,984.19349152154,0.001314414548302827,0.11569028158999117,0.03611295729574374,-0.0005973071981363137,-0.7716636503956282,0.6,0.4,0.7086891634586715,Stairs up
-0.8823728561360156,-1.08898925781,-0.64123535156,0.013530121623846226,0.11586378877224725,0.34028530120335937,0.19738769531,0.48803710937,0.006470497227332126,0.08012456844029547,-0.4305505752525781,-0.62658691406,-0.14196777343,0.02346495689904914,0.15258321311099501,1.0509706128895313,0.80179971267,1.30381566459,0.018480895091772927,0.13541238163058963,984.0963192674938,984.06663434569,984.12858153145,0.00031462432497318633,0.061947185760004686,0.017668229182188386,8.763323982701047e-05,-0.7897891710635925,0.44,0.56,0.08659514844248911,Stairs up
-0.9317991022447368,-1.26635742187,-0.68371582031,0.026148232719896306,0.160993360911067,0.32405813116421056,0.19738769531,0.4560546875,0.004457053968267555,0.06646771399434186,-0.43707168310999994,-0.62280273437,-0.10546875,0.028448888750596608,0.16792658245462397,1.0913243264864034,0.81438593964,1.46143571752,0.03212405623844006,0.17844401438948912,984.0896052732727,984.05190204478,984.12567557468,0.00043726047580984625,0.07377352989999508,0.020818858220396908,-2.856754464914043e-05,-1.064662747080239,0.49,0.51,0.0056792305748708406,Stairs up
-0.9196362304639999,-1.21154785156,-0.68371582031,0.02165961633435418,0.1464343544767096,0.332548828121,0.25573730468,0.43469238281,0.0030805381621773786,0.05522438574176814,-0.3884216308555001,-0.56628417968,-0.15661621093,0.019717223227143643,0.1397141760698327,1.0622207505186,0.83305559099,1.39881362332,0.023121983738967677,0.1512969394983851,984.0856998608014,984.05166921331,984.11079815972,0.0002509033027172748,0.059128946410055505,0.015760528851853358,-8.100679253320349e-06,-0.14517631021047928,0.51,0.49,-0.6124984972781171,Stairs up
-0.9759704589799,-1.21838378906,-0.69494628906,0.024985855087621155,0.15727681500063811,0.29808227538669996,0.19812011718,0.40808105468,0.0033247097258131517,0.057371270062244746,-0.3477050781219,-0.53649902343,-0.083984375,0.017611613779205088,0.13204354448973654,1.0890039842644,0.87136379897,1.34057517703,0.022023717292866687,0.14766001530522072,984.0884999746534,984.04453644239,984.13522261754,0.000573301350739604,0.09068617514992638,0.0238236927706896,-0.0005257085272157158,-0.6943728841040882,0.45,0.55,0.13465250573610857,Stairs up
-0.9672180175738998,-1.24768066406,-0.67077636718,0.033099127350343406,0.1810197118460859,0.2783117675742,0.00366210937,0.50512695312,0.01184943326030713,0.10830945908693321,-0.27416503905859996,-0.42858886718,-0.05822753906,0.014441523262839788,0.11957051488645264,1.0543565730854,0.74715246609,1.3632677236,0.03561919389889861,0.18778445611900263,984.0194585876108,983.96250646044,984.07094918953,0.0008978270947728874,0.10844272909002939,0.029813567780880543,-0.0007881894178708746,-1.1784885168157122,0.57,0.43,0.02018625211154361,Stairs up
-0.8989257812450998,-1.20336914062,-0.59265136718,0.03902450414588841,0.1965559948320822,0.3271081542928,0.23132324218,0.42065429687,0.0020404714089474517,0.0449451520729208,-0.4196704101526999,-0.58605957031,-0.15979003906,0.016795049357850547,0.1289461083719553,1.0549565132481,0.77172817772,1.3825718999,0.035897714923854476,0.18851720816576914,983.9461605991685,983.88349527557,984.02303775745,0.001200087856038968,0.1395424818799711,0.03446863759243435,-0.0008837018466884957,-0.6652475669601561,0.53,0.47,0.055774154576832054,Stairs up
-0.920836181638,-1.23034667968,-0.6611328125,0.033058064301195594,0.180907389727959,0.3193823242146,0.19189453125,0.40686035156,0.003629752716620444,0.05994543510105035,-0.40888671874689986,-0.59875488281,-0.17126464843,0.012259663355613093,0.1101683562646596,1.0658050985756002,0.7913403445,1.33688684941,0.029949685478375624,0.1721923012901328,983.8778044452966,983.81201841749,983.93115715835,0.0010932473204186778,0.11913874085996667,0.03289855387725259,-0.0006674136629535993,-0.9339475266331609,0.61,0.39,0.10419191937182092,Stairs up
-0.9376916503871999,-1.20458984375,-0.71069335937,0.023638520955795612,0.15297756615346467,0.31510009765299996,0.24182128906,0.40100097656,0.002136261023690201,0.04598802467440082,-0.34037475585470006,-0.51440429687,-0.14086914062,0.014628883977997024,0.1203436543329853,1.0550224373661001,0.7913403445,1.36983584984,0.0215514779018476,0.14606835085955178,983.8018117683679,983.73628678729,983.85378299224,0.0008373443633382479,0.11749620494992996,0.028791855093148574,-0.0007187889808997126,-0.7185286026150797,0.45,0.55,0.24365560453737684,Stairs up
-0.9381164550747997,-1.4033203125,-0.61950683593,0.049995468233443606,0.22247587184031703,0.3162695312472,0.07849121093,0.55480957031,0.013762958507391064,0.1167275842391898,-0.3216796874959001,-0.59008789062,-0.07177734375,0.02125219564247114,0.14505059009203108,1.0543265811768001,0.70179966951,1.52224122053,0.05668959334122988,0.2369022950665898,983.7347087693191,983.67398208227,983.82602391427,0.0013362824230173723,0.15204183200000898,0.03637196171211004,-0.0007086601768143462,0.8963674994749615,0.53,0.47,0.8066710477089875,Stairs up
-0.8720239257781999,-1.18115234375,-0.56201171875,0.03825775324099769,0.194615455985869,0.39059326171489983,0.12780761718,0.79370117187,0.02663250180811426,0.16237665100017648,-0.3778015136679999,-0.66076660156,-0.08862304687,0.02751453397688384,0.16504359617117836,1.0415139760736003,0.64744073022,1.46123999253,0.06308301589455367,0.24990435317458584,983.6717713071307,983.62777350739,983.73711469569,0.0010553682703945476,0.10934118830004991,0.03232359181295609,-0.0005120484784357212,-0.48924336072601005,0.61,0.39,0.639794694732381,Stairs up
-0.9023327636678999,-1.20202636718,-0.70483398437,0.017152429257965562,0.13031080141487084,0.33372924804239995,0.2236328125,0.43872070312,0.003454884222960167,0.05848363344330245,-0.4199926757769999,-0.62048339843,-0.12316894531,0.026583877229856084,0.16222835281650838,1.0622886387155999,0.80545324168,1.40670140756,0.0204400019760458,0.14225189614302278,983.6484402357225,983.62256946422,983.68143468621,0.0002608918597553792,0.0588652219900041,0.016071183564312412,-4.438702154125368e-06,-0.7989413803311907,0.59,0.41,0.2552105705986299,Stairs up
-0.9001232910117,-1.13684082031,-0.68505859375,0.018353426003351603,0.13479574082039122,0.3592907714809999,0.24658203125,0.45678710937,0.0026952313337370703,0.051655387138223055,-0.41152832030919995,-0.58605957031,-0.18505859375,0.01762056504843449,0.13207709641701754,1.0602981226151,0.78270206928,1.32406231566,0.022947249748397177,0.1507241760664599,983.6575636612599,983.63293023522,983.69877039658,0.0003353221620830416,0.06584016136002901,0.018220014831558485,0.00024728310094275263,-0.2112895927133036,0.54,0.46,0.6893840391864551,Stairs up
-0.9084484863245998,-1.18615722656,-0.68505859375,0.01862527640614618,0.13579036652901677,0.3399414062469998,0.25012207031,0.41003417968,0.0021956761678485533,0.04662316383698202,-0.39418090820060003,-0.55639648437,-0.16967773437,0.017207952055976868,0.13052154050353948,1.0544773684069,0.78916162869,1.36987793098,0.022165146947292342,0.14813337057469333,983.6709449532078,983.64097795982,983.70418335774,0.0003991096766308077,0.0632053979200009,0.01987758989074127,3.225274585208471e-05,-1.0154571978684674,0.63,0.37,0.19560270869751906,Stairs up
-0.9123107910118999,-1.22045898437,-0.66918945312,0.02838840730721113,0.16764403727582744,0.3207897949181,0.20788574218,0.44360351562,0.003461630385078682,0.05854070448182098,-0.39795532226179986,-0.55004882812,-0.08361816406,0.02264495852466001,0.14972811672966907,1.0572446685084997,0.70570744883,1.37610091222,0.0300699672757484,0.1725377280567671,983.6745784790993,983.64368890007,983.736868684,0.0003134006222450151,0.09317978393005433,0.017614386620673595,-9.399364710313919e-05,0.4560811154639177,0.52,0.48,0.2160069490577569,Stairs up
-0.8974755859344,-1.29248046875,-0.58471679687,0.04236770196405481,0.204802404635332,0.32911865234019994,0.18896484375,0.69128417968,0.016351635715016063,0.1272325404834231,-0.3559851074182,-0.53979492187,-0.15246582031,0.012859276405211296,0.1128303312108902,1.030595090126,0.69103521962,1.4236524811,0.04974090860818472,0.22190876395965725,983.6319018362462,983.58194580971,983.736868684,0.0017530050685483287,0.15492287429003682,0.0416590328483853,-0.0010425974098881195,0.40884862783933773,0.6,0.4,0.9244322462715752,Stairs up
-0.9880798339808998,-1.28796386718,-0.64965820312,0.030798252295303655,0.17461463218284606,0.30084106444940006,0.21740722656,0.40112304687,0.0029356023563226383,0.053909612619266814,-0.3829650878873,-0.60656738281,-0.06164550781,0.033407704208767305,0.18186156044277094,1.1193580548020998,0.81228423004,1.42699122885,0.027249546811326436,0.16424692186830525,983.566610316881,983.50142276301,983.64312156435,0.001327557517940844,0.14169880133999868,0.036253026670354516,-0.001043317737934859,-0.2775510951790361,0.53,0.47,0.14069282026357743,Stairs up
-0.9386596679656001,-1.26049804687,-0.66442871093,0.02872897925420812,0.1686466408253246,0.32859619140310004,0.25085449218,0.42700195312,0.00261881225646758,0.05091781745030814,-0.40300292968409984,-0.57104492187,-0.19104003906,0.014214423569734631,0.11862663838294199,1.0798567147188,0.80269177177,1.44173543422,0.030792787080910235,0.1745991386293218,983.4854808298378,983.42411510955,983.54626781684,0.0010634987759017842,0.1221527072899562,0.032447862612855816,-0.0008684010583816643,-0.6199968017212312,0.57,0.43,0.09460331699993138,Stairs up
-0.9288757324183001,-1.18664550781,-0.66137695312,0.029435195819016127,0.17070689459077498,0.33140991210500004,0.26843261718,0.41833496093,0.0021377910553802065,0.04600449048545592,-0.4108166503874,-0.57458496093,-0.22094726562,0.012483683227057221,0.11117034854126638,1.0748465160662,0.7782623097,1.38321349693,0.03003439055697318,0.172435630457871,983.4028469617956,983.34435251287,983.44790016135,0.0008597999255138101,0.10354764848000286,0.029175365057847555,-0.000694607522130489,-0.8012415504025032,0.49,0.51,-0.25004769653041586,Stairs up
-0.9162854003861,-1.27966308593,-0.58837890625,0.04613882011070176,0.21372279220896107,0.3357604980428999,0.25268554687,0.45202636718,0.0022371156574311985,0.047061072032592785,-0.3684289550737999,-0.55541992187,-0.07165527343,0.021657015354352382,0.146425561978805,1.0546809340467,0.72683374407,1.4282459068,0.04548958678332407,0.2122137858752132,983.3308744396147,983.28107510206,983.38609406793,0.0009433793165151397,0.10501896587004467,0.030560522301655582,-0.0006516737627082686,-0.9915894601937025,0.49,0.51,0.20364901238157218,Stairs up
-0.8860131835897002,-1.26062011718,-0.60632324218,0.04704386525106855,0.21580877321962116,0.3182080078086,0.13195800781,0.46643066406,0.00747202897328287,0.0860076082887441,-0.3639770507782999,-0.55163574218,-0.0927734375,0.014068286677497672,0.11801526939647554,1.0214091006497001,0.69957546107,1.41528997309,0.043814928713016864,0.2082709279421559,983.2661208472355,983.21221525236,983.350565696,0.0016057603259025742,0.13835044363997895,0.03987107626643089,-0.0010019705861931496,-0.5418832389821899,0.57,0.43,0.4999682593671048,Stairs up
-0.8959997558551,-1.32153320312,-0.59387207031,0.038767841565329,0.19590855813280775,0.37201904296530003,0.279296875,0.45849609375,0.002790287642792633,0.05255839387162346,-0.3807678222613999,-0.61743164062,-0.12280273437,0.02075168652224052,0.14333237476933855,1.0507860586428,0.69143398681,1.48905155942,0.044174991746810825,0.20912494310660962,983.2231147858223,983.18685149028,983.2795950621,0.000630108436868907,0.09274357182005133,0.02497613565986976,-0.0003964430903422546,-0.22870777632439276,0.63,0.37,0.6889606712266793,Stairs up
-0.9056506347619,-1.14428710937,-0.69311523437,0.017495628888885856,0.13160802635096766,0.3545288085899999,0.25817871093,0.47045898437,0.003324768007439584,0.05737177291460661,-0.43977783202829995,-0.560546875,-0.17529296875,0.015080420121934527,0.12218680747410983,1.0759007057531997,0.8707574272,1.34340772594,0.017452293048181373,0.1314449318828975,983.2159293714318,983.18888155917,983.2392960538,0.00020957051943290873,0.05041449462999026,0.014403986053817867,-8.39939391579392e-05,-1.3698081334697492,0.49,0.51,0.08936137574816466,Stairs up
-0.8735742187462,-1.0947265625,-0.65771484375,0.01773202505992324,0.1324941689634831,0.3386181640587999,0.25,0.41625976562,0.002600565679100343,0.05074012241125695,-0.4486596679655,-0.60424804687,-0.19995117187,0.016506097286464443,0.12783206293258276,1.0465211314415,0.8060213626,1.30598515376,0.02055908781790857,0.14266568241777516,983.214782938859,983.18888155917,983.2406169272,0.00029199458623733646,0.05173536802999479,0.017002195163418256,0.0001586860649337598,-1.414067282412842,0.56,0.44,0.16979461653032732,Stairs up
-0.8933044433556,-1.16943359375,-0.69592285156,0.01691418385728429,0.1294026352850337,0.33628417968429986,0.25744628906,0.44445800781,0.0028498391672093105,0.0531162948212431,-0.4005114746058,-0.54443359375,-0.15832519531,0.017568058586811503,0.1318801653052626,1.0447081141824,0.83670239793,1.33709758449,0.017205087147345588,0.13051067494987578,983.2135014717248,983.18893058116,983.24331687527,0.0002794602552705901,0.054386294110031486,0.01663326945365475,0.00012878209376573883,-1.1383302722856985,0.59,0.41,0.3387867213041789,Stairs up
-0.9487780761683,-1.22814941406,-0.61474609375,0.030875581350959802,0.1748337082414321,0.3225036621061,0.1923828125,0.43566894531,0.0034535127983268982,0.058472024681411786,-0.3757958984338,-0.53063964843,-0.15393066406,0.013284037955928456,0.11467867097402712,1.0770009827023999,0.78388812011,1.35156557049,0.03294635475864052,0.18060147067799343,983.2026972165914,983.15519120873,983.24457921657,0.0006936566568198742,0.08938800783994338,0.02620534468866371,-0.0004713097421584086,-0.7963308932995621,0.57,0.43,-0.10004282038930616,Stairs up
-0.9331335449182001,-1.25854492187,-0.58972167968,0.0427275754153127,0.20567036651194934,0.31987792968409995,0.19970703125,0.48486328125,0.005745432087872041,0.07541868314279507,-0.3166113281205,-0.56823730468,0.03479003906,0.02301838207709162,0.15095760416859003,1.0478524883959,0.72872294935,1.41528830955,0.04654997362918043,0.21467294634603734,983.1494430285474,983.11474437282,983.23399424167,0.0010640705891881116,0.11924986884991995,0.032456584590745685,-0.0005261030982933472,1.0998291729653058,0.57,0.43,1.2725849582200053,Stairs up
-0.8913073730432001,-1.19409179687,-0.58227539062,0.03939185301966623,0.19747894695250318,0.32846069335500006,0.20690917968,0.39672851562,0.0023726743806165356,0.048465943061188545,-0.43133056640199996,-0.61352539062,-0.16491699218,0.021539873974674887,0.14602902189266398,1.0555768294192,0.7535508855,1.38322512079,0.03716185089856569,0.19180780064840958,983.0734954115982,983.01839310598,983.15097678982,0.0011195248587105976,0.13258368384003916,0.03329158467426103,-0.0007903956261396411,-0.594895925757903,0.57,0.43,0.25882240914539695,Stairs up
-0.8916210937468999,-1.19177246093,-0.58459472656,0.041598739262550886,0.2029353391352166,0.3276660156208,0.25769042968,0.41760253906,0.0021557967831874925,0.04619782262569977,-0.42121582030840005,-0.5927734375,-0.21813964843,0.013456011059364607,0.11541859013508596,1.0463736554374,0.69470610589,1.37603145622,0.04193593406684709,0.20375616487895187,982.9954408681281,982.93797518885,983.07248973757,0.0011994915444912694,0.13451454871994883,0.03446007296925467,-0.0008285806635319004,-0.7482884731892003,0.53,0.47,0.029088167408078208,Stairs up
-0.9213073730435998,-1.2412109375,-0.61645507812,0.03856336991433155,0.1953912388393815,0.3375598144492999,0.24267578125,0.40441894531,0.0020005920604952063,0.0445037766924365,-0.41716674804180004,-0.59655761718,-0.20349121093,0.015376660334611781,0.12338109146569284,1.0757205453465,0.70318417829,1.42011662109,0.04380657638337786,0.20825107591449338,982.9241770255034,982.85085048823,983.00048126606,0.0012542308371475271,0.1496307778299979,0.03523760106443189,-0.0008567289907953997,-0.51651143690105,0.53,0.47,0.46494044762826825,Stairs up
-0.920490722653,-1.3173828125,-0.59814453125,0.041527034423457405,0.2027603612129916,0.3502514648391999,0.09729003906,0.79064941406,0.02585305036316748,0.15998287364444921,-0.35881591796519985,-0.59167480468,-0.10729980468,0.025947304741256498,0.16027423902125987,1.0639730761625998,0.67784885022,1.49298570664,0.0596803342742894,0.24307104091509235,982.8410760078935,982.79001156876,982.91446944939,0.0012715546916183989,0.12445788063007512,0.035480123234033656,-0.00046695273435255904,-0.9030641309397871,0.57,0.43,0.4164109133489346,Stairs up
-0.8973706054647999,-1.24890136718,-0.59936523437,0.03900146894389396,0.19649797519174345,0.3341357421829999,0.19580078125,0.64318847656,0.010867227544595461,0.10372345573277775,-0.36635253905879994,-0.57458496093,-0.08911132812,0.025751429591345815,0.1596681411410315,1.0388180000473997,0.73930668133,1.4927951065,0.047329260837904785,0.21646239449272878,982.7654937906372,982.72568289762,982.83101332969,0.00077578995861631,0.10533043206999082,0.027713391330368552,-0.00042157083155403664,0.24623442885979419,0.6,0.4,0.8565246219955358,Stairs up
-0.8889379882776001,-0.91479492187,-0.87731933593,6.079173449745735e-05,0.007757822964755175,0.35329345702739984,0.30590820312,0.37194824218,0.00025437377318249775,0.01586915358330975,-0.3555273437465999,-0.37927246093,-0.33569335937,0.00010782855926646395,0.010332002403880833,1.0206767680961997,1.00178640216,1.04048516104,6.505568704166947e-05,0.008025280691119331,982.7580639220366,982.75327804463,982.76271406462,4.099078945864504e-06,0.00943601999006205,0.0020144696960753368,-3.84869037695015e-05,1.1480287670250453,0.61,0.39,0.22096501725079476,Lift down
-0.521782226559,-0.9091796875,-0.14636230468,0.0988836590454397,0.31288148308103075,0.1696533203124,-0.38879394531,1.08264160156,0.19833062513591768,0.44311095550049145,-0.34719482421579995,-0.873046875,0.70666503906,0.22888557916153976,0.4760217677479932,0.9406312082554001,0.48042701912,1.51108256218,0.05821715330769337,0.24007286763525867,982.7467576654506,982.61454444863,982.87180836484,0.004334074970395438,0.25726391621003586,0.06550369623686501,-0.0008589516104046832,-0.03826088102885139,0.49,0.51,0.06347412434376418,Lift down
-0.8528417968715999,-1.00378417968,-0.81396484375,0.00215768647908649,0.04621806588657324,0.36210693358959994,0.17224121093,0.49230957031,0.0036882588900057677,0.06042661914343471,-0.39738281249599994,-0.56799316406,-0.2822265625,0.006459971726654197,0.07997106982770491,1.0120684816392003,0.93007377005,1.16240186456,0.004317078698585382,0.06537513221095256,982.7723151540554,982.726499618,982.85466185653,0.001364093442885792,0.128162238529967,0.03674850348595075,0.0012240967658443546,-1.0052173409800278,0.55,0.45,0.47681111665072357,Lift down
-0.8973559570267998,-0.91479492187,-0.86791992187,0.0001150634613825475,0.010672995210751386,0.35177978515219993,0.31481933593,0.376953125,0.0002644419008072723,0.016180157038768184,-0.34114501952759996,-0.3642578125,-0.31323242187,0.0002231896586061596,0.014864648062436528,1.0226738744946002,1.00499070073,1.04912726968,0.00011259565772537913,0.01055792125127505,982.9610573085258,982.85466185653,983.08685916611,0.004268049691814708,0.23219730957998763,0.06500283989870413,0.0022431157611824655,-1.0930004115636496,0.51,0.49,0.03182332763019888,Lift down
-0.8951855468712,-0.90795898437,-0.88256835937,4.342093611758897e-05,0.0065564263708527285,0.3518188476516,0.32958984375,0.37854003906,0.00016519171423201194,0.012788267947212079,-0.3379663085909999,-0.35192871093,-0.3251953125,6.383831451868972e-05,0.007949838449522281,1.019601636864,1.00740215907,1.02842763284,3.7494136059082116e-05,0.006092552396039881,983.1957949260792,983.08685916611,983.31478837849,0.004846272773308531,0.22792921237999053,0.06926622586495851,0.0023923111863104777,-1.2381674361388373,0.47,0.53,0.014624099668162055,Lift down
-0.8954882812463998,-0.90307617187,-0.88745117187,2.082029978010673e-05,0.00454005471137801,0.34932128905919996,0.3359375,0.36364746093,7.334788639087704e-05,0.008521408775957662,-0.3444726562455999,-0.35229492187,-0.32849121093,4.1998299679657405e-05,0.0064481250517387486,1.021126195018,1.01242189017,1.0304469681,2.235799022055764e-05,0.004704722129770478,983.4281762742887,983.31478837849,983.53743566442,0.004335510179913231,0.22264728592995198,0.06551454096697999,0.0022628161497844474,-1.1883618373733835,0.54,0.46,0.044576557870187605,Lift down
-0.8980615234333998,-0.90441894531,-0.890625,1.650497166947108e-05,0.00404226693240023,0.3501245117149998,0.33422851562,0.36096191406,5.797261541707047e-05,0.007575809479052372,-0.3372607421838,-0.34753417968,-0.32592773437,3.577504494578549e-05,0.005951243105127502,1.0212352504284,1.01052740643,1.03104150716,3.454058864547233e-05,0.005847664726967305,983.6521035780289,983.53743566442,983.75671818882,0.00416241697806651,0.2192825244000005,0.06419340159460195,0.002216462851308421,-1.1940779579187166,0.5,0.5,-0.04458031452788902,Lift down
-0.8943115234337998,-0.90100097656,-0.88586425781,1.4432752972804213e-05,0.0037800033654847675,0.34770996093379997,0.337890625,0.36303710937,5.2004245793759856e-05,0.007175249357048315,-0.34180664062119986,-0.35559082031,-0.32922363281,4.514951899649671e-05,0.0066856580683229486,1.0186343713718002,1.0064563202,1.02637645742,2.1803599592300693e-05,0.004646026646111459,983.8702137373917,983.75671818882,983.97063186733,0.0039862599552133865,0.21391367851003906,0.06282035781226698,0.002168900441346828,-1.237064037440394,0.5,0.5,0.009002169584195724,Lift down
-0.9336889648387999,-0.95251464843,-0.89758300781,0.0002505889384434737,0.01575065233757126,0.3609838867155999,0.34436035156,0.37548828125,5.734309404645317e-05,0.007534564559812905,-0.35198730468339995,-0.37951660156,-0.33374023437,0.0001256521542893826,0.01115327901320902,1.0611905023772,1.02337682704,1.08455480739,0.00028634161705202586,0.016836810888095927,984.0795360081739,983.97063186733,984.15573511027,0.002873945361279244,0.18510324294004477,0.05334047157334149,0.0018259217228038074,-1.092088061296118,0.42,0.58,-0.3453830809737397,Lift down
-0.9236645507765999,-1.06530761718,-0.87194824218,0.003152914486766365,0.055869359598072196,0.33929687499619987,0.28784179687,0.36437988281,0.00042494814805598113,0.020510940168003543,-0.33484863280839994,-0.37951660156,-0.24670410156,0.0008757655307132922,0.029444997459775052,1.0406181060555997,0.98255905043,1.14349649804,0.001944674620725782,0.04387741873126226,984.1631877284308,984.15290364885,984.17932501674,5.447164511148407e-05,0.026421367889952307,0.007343495670344555,0.00019355535838576636,-0.10015897266612672,0.48,0.52,0.7561173939322047,Lift down
-0.8750170898395999,-1.01062011718,-0.765625,0.0046764678485965465,0.06804192215179243,0.3608691406211999,0.28784179687,0.44702148437,0.002625105693997325,0.050978962691068476,-0.37244873046559995,-0.60546875,-0.20544433593,0.01775413405444746,0.13257674273379544,1.0274569208234001,0.92625043544,1.13272560049,0.0037746741059546986,0.06113041276562061,984.1590603149579,984.13346508884,984.18989163168,0.0002515154742385746,0.05642654283997217,0.015779743961680394,-0.0002214079327914955,-0.6867944790999831,0.6,0.4,0.6467268544769875,Lift down
-0.8691528320265999,-0.92529296875,-0.82897949218,0.0006322645479230236,0.0250188309567772,0.3529614257775999,0.30493164062,0.40319824218,0.0006107833710925519,0.0245901512273029,-0.4023925781217999,-0.5341796875,-0.29895019531,0.002406948142582842,0.048814738155161845,1.0220310875418002,0.97399529813,1.09005439937,0.0010041945815381782,0.031530186103523025,984.1347303784154,984.12778456179,984.14251196285,2.8752875950691625e-05,0.014727401059985823,0.005335292605957494,-4.221128605466266e-05,-1.5507902558325344,0.48,0.52,0.06462901901684752,Lift down
-0.9824731445266,-1.30163574218,-0.55285644531,0.04837231388539397,0.2188346196252778,0.31988769530860006,0.23510742187,0.39880371093,0.002633838484936395,0.051063686706768745,-0.35045410155899986,-0.54711914062,-0.02392578125,0.031699399659283735,0.17715079921550142,1.1103146820538001,0.7841219661,1.39917792,0.039878280760939806,0.19869448395295328,984.0746016117002,984.0049678839,984.17083912817,0.002162612552352766,0.16587124426996525,0.04627079453423334,-0.0007442129434004342,-1.0680656025650932,0.58,0.42,0.32154742037130035,Stairs up
-0.9553881835912,-1.23095703125,-0.5986328125,0.038388153044040425,0.19494684278951535,0.32358398437139996,0.21374511718,0.40649414062,0.0034606155723833996,0.05853212294680218,-0.3843627929656,-0.56921386718,-0.14807128906,0.017925709335136528,0.13321581078004652,1.0913202474474,0.81075749246,1.37276099798,0.03374220563993632,0.18276975565868922,984.0180567856079,983.94924274852,984.12211433886,0.0024070533395812075,0.17287159034003707,0.04881580488105666,-0.0009070446581916789,-0.42950363136524405,0.54,0.46,0.5046739383559242,Stairs up
-0.9370166015585998,-1.21154785156,-0.58996582031,0.037287361067803,0.19213143276706435,0.31902832030899997,0.22045898437,0.38537597656,0.0024105293822988755,0.048851039789096475,-0.38386718749579996,-0.54504394531,-0.19592285156,0.012577133805079748,0.1115856732158253,1.0683515377460002,0.7948509672,1.38326994554,0.03788935777945321,0.19367618387829383,983.9503485406645,983.89840594946,984.01866661186,0.0012935393297841048,0.1202606624000282,0.03578552691363177,-0.0005660752921836925,-0.6348325116507927,0.52,0.48,0.4570164258859933,Stairs up
-0.8956152343716,-1.21508789062,-0.60473632812,0.04116439315980875,0.20187310179469345,0.34145751952799985,0.27978515625,0.4111328125,0.0015113740798063716,0.03868152451763384,-0.40642578124639983,-0.56091308593,-0.18518066406,0.015666683009013065,0.12453921542599718,1.0484325984434,0.72475799928,1.39184271613,0.04287870061779432,0.20603376813429486,983.8887305605748,983.82245932387,983.97804212619,0.0014526386176657888,0.15558280231994104,0.03792245023055777,-0.0007217949138371842,-0.407172029729749,0.58,0.42,0.09353717791134522,Stairs up
-0.923520507809,-1.24755859375,-0.57458496093,0.04275780569426774,0.20574311078946256,0.3660888671842,0.27697753906,0.45629882812,0.0020468939433669086,0.045015830592506446,-0.37375488280759994,-0.49951171875,-0.15441894531,0.012426800800176588,0.11091678318529989,1.0705298051126002,0.694447204,1.41306525309,0.0376050719613926,0.192948234616901,983.8088937428148,983.74452796986,983.88301618618,0.0013805880368517637,0.13848821632007002,0.03697001699327775,-0.0006365859174384628,-0.8951467158499589,0.62,0.38,0.22205299185916777,Stairs up
-0.9499389648393998,-1.29028320312,-0.57458496093,0.04046087990522679,0.20014062832462207,0.3128149414028,0.17602539062,0.47729492187,0.005720371604008311,0.07525402240391026,-0.3271264648408,-0.51599121093,-0.03771972656,0.017432019981447406,0.13136856466306135,1.0644462093058003,0.694447204,1.42649364179,0.037555913894328996,0.19282208057010924,983.7490415977709,983.69289540745,983.86245277514,0.0016593085278310236,0.16955736769000396,0.04053042613337187,-0.0005343794434636941,0.2949684772963268,0.5,0.5,0.6017896641098649,Stairs up
-0.9637329101521999,-1.21252441406,-0.68237304687,0.027484351487085976,0.16495304778092196,0.3043408203086,0.21313476562,0.37939453125,0.0024645264462606845,0.04939515342417794,-0.3672412109333999,-0.52526855468,-0.10559082031,0.017441331232644425,0.13140364500392668,1.0835316035807998,0.76624223585,1.32289133523,0.029440540550305334,0.17072239204276127,983.5943553067863,983.53283407129,983.64409126604,0.0012875819137338573,0.11125719475001006,0.03570302640668601,-0.0007052552871165254,-1.5342075906929769,0.54,0.46,0.16479623618556044,Stairs up
-0.919208984371,-1.16687011718,-0.63830566406,0.02311001062400097,0.15125776184302397,0.31362060546440007,0.11743164062,0.43725585937,0.010410357418713675,0.10151972145611186,-0.37382080077739993,-0.53479003906,-0.15368652343,0.008606094067905351,0.09230402552015973,1.0485894372142,0.7638372647,1.330054542,0.025465072594025546,0.15877790106965545,983.5425752425035,983.52512915275,983.59207915953,0.0003774582415302673,0.06695000678007546,0.019330899076736307,1.853916523514695e-05,1.5274821458478884,0.78,0.22,1.637630800148422,Stairs up
-0.9207666015575998,-1.20190429687,-0.62866210937,0.029314791216820964,0.17035739873763261,0.28413085937120003,0.1875,0.39916992187,0.0030899240513375167,0.05530845153160718,-0.38068603515159993,-0.53881835937,-0.15026855468,0.01319323169483667,0.11428604192064884,1.0461795583686,0.83968196463,1.31679605547,0.024357208382832955,0.15528566031351584,983.5067083089099,983.45953555343,983.59594087181,0.0010305109887541561,0.13640531837995695,0.031940661841399196,-0.000602561106113356,0.4640179029061118,0.56,0.44,0.7591321138361794,Stairs up
-0.9205102539024,-1.20983886718,-0.60107421875,0.037233949122860446,0.1919937749814609,0.3113208007778001,0.20776367187,0.39916992187,0.0023373555714832615,0.04810386695234001,-0.3931030273403999,-0.61193847656,-0.2158203125,0.011524091013621965,0.10681221888663181,1.055102499299,0.78929109378,1.36027412714,0.03649789531961419,0.1900866022801661,983.4532039753503,983.38999971591,983.52988749242,0.001395737280488961,0.13988777651002238,0.03717230027431813,-0.0006356459882027788,-0.4659197441291836,0.5,0.5,0.5265918456586643,Stairs up
-0.9218164062469998,-1.21203613281,-0.60107421875,0.03481272931024219,0.18564644358871993,0.3100195312468,0.23986816406,0.3798828125,0.0018671518865932466,0.04299395733969268,-0.4093896484343999,-0.55822753906,-0.216796875,0.011391965451778958,0.10619814403868445,1.0618324847860001,0.75760385256,1.31748091641,0.03389937703100655,0.18319493240997822,983.396344855657,983.33193155527,983.47573708055,0.001675051051848915,0.1438055252799586,0.04072223644804428,-0.0006010042484382587,-0.7867780541313998,0.64,0.36,0.28218191853021407,Stairs up
-0.8773681640589999,-1.19396972656,-0.56103515625,0.042055907875920735,0.2040474180115042,0.3145068359334,0.21801757812,0.39538574218,0.0019092416281947658,0.0434758463047336,-0.39791015624679993,-0.55065917968,-0.14099121093,0.012069500118720558,0.10931059014355998,1.0222051806508003,0.72146448377,1.36147866312,0.03797253472312029,0.1938886520038991,983.3167129190676,983.26297282252,983.40563632686,0.0018175119341727458,0.14266350433990738,0.04241859043899288,-0.0003296545815696205,-0.45492753300331756,0.62,0.38,0.8200019460863442,Stairs up
-0.9093286132771999,-1.23852539062,-0.54943847656,0.03473159296945145,0.18542997880536183,0.2919067382776,0.11633300781,0.41821289062,0.005378020682647446,0.07296739323712319,-0.38905273437139987,-0.67785644531,-0.138671875,0.022192011963303535,0.14822311507882469,1.0440100030318,0.73857504433,1.37352576661,0.0355270947758145,0.18754152560981355,983.2696834229246,983.20331198477,983.35961298843,0.0016850225678822885,0.1563010036599053,0.040843265567330256,-0.0006996396747432246,-0.0990329714558773,0.48,0.52,0.4874795397886035,Stairs up
0.4034020996067001,-0.79858398437,0.87658691406,0.34428378308736746,0.5838158487541202,0.3129211425742,0.06762695312,0.77502441406,0.049136835329072585,0.22055717393860003,-0.6373632812462999,-0.9091796875,-0.49768066406,0.012084299892095095,0.10937758862387735,1.0213787289315999,0.66503217248,1.35004512967,0.025373948416147946,0.1584935611688578,983.1280856737856,982.96315997679,983.19915383726,0.00208615236501242,0.23599386046998916,0.04544547107647027,0.0014054608352362448,1.808003434351349,0.34,0.66,-1.1728616887122918,Lift down
-0.7923706054643,-0.87939453125,-0.72009277343,0.0017998804047237651,0.04221233943619481,0.49792236327899986,0.390625,0.60375976562,0.002867193529063287,0.05327777767299097,-0.2774133300750001,-0.59387207031,-0.0380859375,0.010665285543535444,0.10275520759601475,0.9819125731556,0.88223560861,1.1370902028,0.003800754062534108,0.061341230195593295,983.2272428816174,983.07943276359,983.41482551534,0.008584922736489649,0.3353927517499642,0.09219041983375904,-0.0012462141180681187,-0.8966923569416156,0.46,0.54,0.06844557486416608,Lift down
-0.8657067871055999,-0.94360351562,-0.71496582031,0.002282411659284707,0.04753511904573144,0.3584997558557001,0.29333496093,0.5791015625,0.005588431266571309,0.07438109271787822,-0.3961645507769999,-0.51257324218,-0.3056640625,0.002433671427454225,0.04908497441355839,1.0196850174779002,0.86653864702,1.13120621549,0.002776095042758362,0.05242455619583993,983.3971421533365,983.29327088795,983.50323992802,0.0038421307365132944,0.2099690400699501,0.06167422013408975,0.002064987970190523,-1.2384656985802205,0.46,0.54,0.057086038258333124,Lift down
-0.8605480956998,-0.88537597656,-0.84484863281,0.00016921514663002088,0.012943067455735549,0.3461828613246999,0.32263183593,0.36120605468,0.00018402580510996363,0.01349761264294038,-0.4309899902304,-0.45202636718,-0.3896484375,0.0003764563301752166,0.01930522641342143,1.0231514744636998,1.01525597837,1.03284621248,2.1647252731736277e-05,0.004629339067774029,983.6167703576156,983.50323992802,983.72359919842,0.003915325696287136,0.2203592703999675,0.06225891453699032,0.002149047936944898,-1.176066068564636,0.5,0.5,-0.016675114508000827,Lift down
-0.8539880371057998,-0.8642578125,-0.84216308593,3.815830807969393e-05,0.006146277328505197,0.35091674804309997,0.33996582031,0.36340332031,3.4159871965357214e-05,0.005815348076057326,-0.4357666015594999,-0.44384765625,-0.41955566406,4.0583538293765276e-05,0.006338588400490099,1.0209918775583997,1.01374238197,1.03083987461,1.8203307456098878e-05,0.004245147156641085,983.8281083192122,983.72359919842,983.94326672037,0.004084301618962537,0.2196675219501003,0.06358819546718487,0.0021928437410309956,-1.2475558471162098,0.5,0.5,-0.012024705257768626,Lift down
-0.8569641113245998,-0.8662109375,-0.84704589843,1.7627434001286822e-05,0.004177458517002168,0.344172363278,0.33459472656,0.35217285156,2.2714011596428763e-05,0.004742032420857588,-0.43281249999649996,-0.44165039062,-0.42419433593,2.0693648952131182e-05,0.004526224968183737,1.0199012236695,1.00856827335,1.02851528916,3.099252592455561e-05,0.005539187726130074,984.0458526603376,983.94326672037,984.15586901964,0.0038869879179549414,0.21260229926997454,0.06203320110050256,0.00214176897392955,-1.2152796788760647,0.5,0.5,0.0066883470474030276,Lift down
-0.8547729492146999,-0.86645507812,-0.84606933593,3.1651119997855144e-05,0.005597732469301887,0.34824829101169996,0.33679199218,0.35852050781,3.888371467993118e-05,0.006204424029120823,-0.4321655273396,-0.44152832031,-0.41625976562,5.9673731982849126e-05,0.007686156039466063,1.0192068058136,1.00938443011,1.02882876238,2.7377161814747374e-05,0.005206091643123458,984.2631289679941,984.15586901964,984.37289955522,0.004297906486362043,0.21703053557996554,0.06522980470228638,0.0022523029434387792,-1.2483782129670689,0.46,0.54,-0.04136918205672303,Lift down
-0.8584252929653,-0.86950683593,-0.84716796875,3.863391851986577e-05,0.006184462736136997,0.33594116210619984,0.32177734375,0.35852050781,0.00015096666085171592,0.012225260497968899,-0.4312182617158999,-0.44091796875,-0.42541503906,1.664216470957783e-05,0.004059032281527464,1.0177801119832004,1.00569395167,1.02975886362,2.7738590380627714e-05,0.005240343927341166,984.4774759813897,984.37289955522,984.58668592505,0.0037809674853785825,0.21378636983001797,0.06118135182001781,0.0021108129556531123,-1.267253569534212,0.54,0.46,0.064723725418644,Lift down
-0.8559277343717,-0.86486816406,-0.845703125,1.957173299436208e-05,0.004401819585628023,0.34512084960519984,0.32507324218,0.35388183593,5.5209511168707866e-05,0.007393065403269525,-0.4366564941355999,-0.44323730468,-0.42724609375,2.6129139501052792e-05,0.005086044445936573,1.0210122519267002,1.01250125567,1.02815669135,2.370087613894432e-05,0.004843951628325254,984.6922310847079,984.58668592505,984.7928994613,0.0038228198107690377,0.20621353624994754,0.06151903455566698,0.0021229959592420204,-1.1444655056122064,0.5,0.5,-0.021664730888202047,Lift down
-0.8680212402297,-0.90881347656,-0.80163574218,0.0005331051635872832,0.022973334802579497,0.31763061522990005,0.22021484375,0.35034179687,0.000841817005396058,0.028868647965259776,-0.4240502929652999,-0.47009277343,-0.36486816406,0.0005384124830208374,0.023087406917855217,1.0176775600228,0.9615928617,1.06217748291,0.0003993104270903424,0.01988258843358779,984.9047243091331,984.7928994613,985.00885890116,0.0036411370031383277,0.2159594398600575,0.06003936736098195,0.0020626002900989613,-1.0910833838306957,0.5,0.5,-0.04727605047108283,Lift down
-0.8665820312467,-0.9326171875,-0.83679199218,0.0004404421767899162,0.02088151706706237,0.3619396972614998,0.22021484375,0.43383789062,0.0035874519971709124,0.0595951128633817,-0.4751037597622,-0.52795410156,-0.36486816406,0.0009271882925994364,0.03029713533774179,1.0544357985369002,0.98095615779,1.09041018788,0.0007666891731718795,0.027550359007464144,985.1177976607003,985.00885890116,985.19483500679,0.002914663703624506,0.1859761056299476,0.05371700909943014,0.0018244112469280112,-1.1333401872039717,0.58,0.42,-0.17724644499039546,Lift down
-0.8329089355421999,-0.85278320312,-0.82055664062,4.2905318315617154e-05,0.006517381769733993,0.39177612304270004,0.36584472656,0.43005371093,0.0004921225149289385,0.022072636674843563,-0.4859008789022999,-0.53771972656,-0.455078125,0.0005277219143620194,0.022857049136281768,1.041132608977,1.01897157822,1.0815792379,0.0004247498880637878,0.020506154909761848,985.2237212464056,985.19253787478,985.24315278862,0.00028138514575354844,0.050614913840036024,0.016690455185405007,0.0005165570031739716,-1.332498614662872,0.42,0.58,-0.43893435580197804,Lift down
-0.8186962890585998,-0.8408203125,-0.80517578125,8.43692066652768e-05,0.009139229431337416,0.37397216796529986,0.36499023437,0.38928222656,4.035872041338395e-05,0.006321007293877307,-0.4891613769488999,-0.51232910156,-0.45385742187,0.00015220566679528667,0.012275325255459987,1.0245151016154004,1.0129709779,1.04273984304,4.102995084610247e-05,0.0063733547945835755,985.2419686274915,985.23374427223,985.25379901821,2.996339866256492e-05,0.020054745980019106,0.005446445141185145,0.00013086044653237266,-0.20147287628343147,0.62,0.38,0.8647052414798848,Lift down
-0.8356506347608998,-0.84643554687,-0.81823730468,4.923475359805156e-05,0.00698157618751461,0.3653124999961,0.3564453125,0.38012695312,3.6166629403716367e-05,0.005983724852437586,-0.46429077148039993,-0.51232910156,-0.45239257812,0.00013454287193371463,0.011541119669008613,1.0234903427126,1.01787523995,1.03754031034,1.6555253133343862e-05,0.0040484195190234945,985.2593067845647,985.24888874629,985.26796893567,2.385079156731815e-05,0.019080189379906187,0.004859247230965406,0.00011724039909417746,0.26726999405303387,0.42,0.58,-0.5749943003694202,Lift down
-0.8807934570278999,-0.92272949218,-0.81616210937,0.0014238253447022293,0.037544468184477015,0.29609008788669994,0.23388671875,0.37854003906,0.0024257561939860723,0.04900508781796245,-0.4205468749970999,-0.51965332031,-0.3759765625,0.0016763304459704216,0.04073778518170468,1.0225684721476003,0.99824889913,1.04339897197,0.0001520210038234226,0.012267876498611665,985.268094929456,985.24656835374,985.28557095402,9.791683857033912e-05,0.03900260028001412,0.00984569297635447,0.0002522145425647377,-0.12814445279190334,0.49,0.51,-0.3740187687087949,Lift down
-0.8264416503874,-0.900390625,-0.73303222656,0.0019808349269941354,0.04428347973820705,0.4402954101530998,0.30725097656,0.54504394531,0.005566422234861054,0.0742344799437057,-0.39196289062169987,-0.49230957031,-0.34484863281,0.0014842302871650637,0.038332596889506625,1.0191767095379998,0.96269786677,1.0676684752,0.0007280450814706846,0.026847060000230523,985.2812892956415,985.270343759,985.29608727192,4.384486106292241e-05,0.025743512920030298,0.006588354305309725,8.072957634742382e-06,-0.8982942825082079,0.48,0.52,0.16759346542148024,Lift down
-0.8290673828084999,-1.30151367187,-0.51501464843,0.05411436343420931,0.23145889440647385,0.4600268554646999,0.28088378906,0.79602050781,0.016998953114980314,0.12972649530389121,-0.33907836913729994,-0.70068359375,-0.16235351562,0.01629130944319774,0.1269976233981005,1.02500431637,0.66082596525,1.44281580991,0.05035182278648478,0.22326733876368915,985.2008100137442,985.1319567122,985.32543325834,0.0025366672395431247,0.19347654614000476,0.0501128782564691,-0.0009878906698711292,0.6793482470790653,0.43,0.57,0.7923097546684639,Stairs up
-0.8345703124956998,-1.26135253906,-0.53454589843,0.04787015373101382,0.217695778998362,0.5138708496062999,0.31494140625,0.7265625,0.01198918279216462,0.10894627558683671,-0.2593115234333,-0.50842285156,-0.10131835937,0.007425822417006101,0.08574126306998306,1.0279242347107997,0.71173592681,1.40660568083,0.03817918970020707,0.19441552870901285,985.1191213626734,985.05493849638,985.19661280934,0.001394933288519835,0.14167431295993538,0.03716159247979878,-0.0004530592197915951,-0.5952149045727415,0.47,0.53,0.09549220757577956,Stairs up
-0.7797875976522001,-1.25842285156,-0.47131347656,0.051123832807527976,0.2249724304874993,0.49999023437229995,0.27294921875,0.75219726562,0.016974218469445856,0.12963208046140198,-0.33388183593329984,-0.54760742187,-0.20983886718,0.006824115526668694,0.08219412613685972,0.9946044242040003,0.62825358626,1.44791678273,0.05502120886551368,0.2333902242529848,985.0542671788603,984.97287308489,985.11814609187,0.0015873271067408357,0.14527300698000545,0.03964156701838901,-0.00044842266047222457,-0.8489009067435891,0.55,0.45,0.08292054629570345,Stairs up
-0.7899365234332001,-1.25012207031,-0.48352050781,0.04625431417200087,0.21399011900151105,0.5093457031216,0.2353515625,0.78234863281,0.023789350528777693,0.15346483969786015,-0.29358642577859995,-0.52844238281,-0.18896484375,0.007467486587290297,0.08598146149849625,0.9947220929002002,0.60546324942,1.4073212411,0.057464387289092686,0.23851570895058832,984.9743447483723,984.90272253522,985.11065313817,0.0032982770116938664,0.20793060295000032,0.05714275318513212,-0.0009202112571563665,0.19783401835662184,0.63,0.37,0.9037463018870489,Stairs up
-0.8240747070274,-1.25805664062,-0.4755859375,0.05078823228638522,0.22423280304969068,0.5598229980440999,0.31677246093,0.92553710937,0.028975687019464267,0.16936921251889206,-0.3273144531209,-0.59143066406,-0.14440917968,0.012040117027892483,0.10917745123244799,1.0645911333062,0.64792600243,1.39857740075,0.05774482624416073,0.23909700538007397,984.9038179428536,984.8300077532,985.0804841446,0.00430002479525425,0.2504763913999568,0.06524587762687929,-0.0010798709137989392,1.6993134903069969,0.71,0.29,1.604794009152679,Stairs up
-0.8383081054653002,-1.28466796875,-0.50317382812,0.04989450422804835,0.22225111740049333,0.5243029785115,0.35729980468,0.71594238281,0.010718356808895388,0.10301054917243396,-0.2535156249968999,-0.53662109375,-0.0751953125,0.009416801158794001,0.09655378370217328,1.0329507068830004,0.69138786593,1.48878190237,0.04471360384606014,0.21039597859179615,984.8227848519094,984.75837704067,984.90076071426,0.0017717518615903707,0.1423836735899613,0.041881193189479055,-0.000863759718880663,-0.8516097848724753,0.59,0.41,0.3562014502470627,Stairs up
-0.8833325195266,-1.240234375,-0.54272460937,0.03885034106605541,0.1961168979343566,0.3807409667931999,0.24682617187,0.58813476562,0.00982456570155977,0.09862210728099544,-0.2462805175744,-0.45385742187,0.017578125,0.016266389162637375,0.12690045417968765,1.0095115399559003,0.75280745883,1.35956919587,0.0313863139917816,0.17627379513661065,984.7403147840447,984.66143755453,984.87156051749,0.0026927541186660556,0.21012296295998567,0.051631643180121575,-0.0008841057462625071,1.0630702469469124,0.51,0.49,0.9510890213754991,Stairs up
-0.8972961425743,-1.13244628906,-0.61108398437,0.027357899593134564,0.16457314664672124,0.3387060546836,0.24682617187,0.42175292968,0.0016291017725244266,0.040159815173867304,-0.37442138671549996,-0.54125976562,-0.099609375,0.013056742609106442,0.11369333834053506,1.0360074846738,0.72933093105,1.32411187789,0.02865185053022064,0.16842010576210442,984.67405926284,984.63139158527,984.72293000738,0.0006847922531742839,0.09153842211003393,0.02603736412624252,-0.00037836614206508305,-1.1202389734461544,0.51,0.49,0.2370688229271576,Stairs up
-0.9041455078078999,-1.10083007812,-0.67907714843,0.015702951773293936,0.12468328779576274,0.3372167968708,0.24755859375,0.44189453125,0.003114897939909081,0.055531513220062625,-0.40683837890269986,-0.60437011718,-0.09301757812,0.02654516708369982,0.162110195277357,1.0609993661356,0.85233275548,1.28696785294,0.016062086485042815,0.12610101355735562,984.668561776137,984.62569645458,984.73072281889,0.000708793611372926,0.10502636430999246,0.026489727730937454,-0.00012418839977989946,0.017129020711523335,0.6,0.4,0.7660564061740343,Stairs up
-0.9324426269488001,-1.21569824218,-0.68017578125,0.02484853377702619,0.15684402583221307,0.33370971679319994,0.19287109375,0.45300292968,0.005149382044129053,0.07139949736299102,-0.41620605468359995,-0.58374023437,-0.09228515625,0.02520097877011832,0.1579524263264643,1.0866512862950999,0.75027105281,1.40317494828,0.028156358818076793,0.16695746533143113,984.6652094664552,984.6211417178,984.73178242184,0.0008498994094771566,0.11064070403995174,0.029006902891939104,2.246521915039803e-05,0.1877569773254928,0.56,0.44,0.8075524809639518,Stairs up
-0.8970581054645999,-1.12524414062,-0.71374511718,0.017680390766003255,0.1323011219088607,0.34678588866749993,0.23217773437,0.46875,0.0034774194628035314,0.05867405958492642,-0.4011730956997999,-0.57373046875,-0.12670898437,0.022410088444734837,0.1489496141662928,1.0520231727904,0.8089333618,1.29511966029,0.022518195429478458,0.1493084507828799,984.673219945277,984.6266341586,984.72069083603,0.0006802809773525275,0.09405667742998958,0.025951457908545375,0.00018870869797967476,-0.8601755651140621,0.53,0.47,0.017195767632093392,Stairs up
-0.9326623535122,-1.23876953125,-0.64001464843,0.028191833681590547,0.16706260905652898,0.3435717773405999,0.23803710937,0.47412109375,0.0030538058703320774,0.054984250578040586,-0.3754980468702999,-0.54772949218,-0.15637207031,0.012820819917215525,0.11266149172651393,1.0696068220997,0.83176674018,1.43504298183,0.02875399600201182,0.16872005228185447,984.6600722824412,984.60967294551,984.71751223331,0.0013030882129135225,0.10783928779994767,0.0359173680937842,-0.00046553781648569077,-1.3406561149057024,0.6,0.4,0.2700445319849131,Stairs up
-0.906333007808,-1.17333984375,-0.63452148437,0.024961855339052878,0.15720126203584484,0.3318322753868,0.21057128906,0.40197753906,0.001944558986196323,0.04387611418909336,-0.3880981445274999,-0.55004882812,-0.17919921875,0.01389754044284555,0.1172969097564684,1.0463976911023998,0.74236349729,1.3535390139,0.027899128381096074,0.16619307174874984,984.5817816453288,984.52536886944,984.68639700682,0.0012321209219752045,0.1610281373800717,0.03492563117189799,-0.0007709757100502136,-0.49021087689138065,0.55,0.45,0.2582359174557894,Stairs up
-0.9372644042926999,-1.21276855468,-0.609375,0.03500300804014432,0.18615310354582562,0.30719116210620007,0.21057128906,0.39331054687,0.002385243470874435,0.048594146110058266,-0.37744384765249994,-0.54174804687,-0.14697265625,0.015253204883793912,0.12288479497055758,1.0650809135959,0.7809658392,1.36534410726,0.03334598089752245,0.18169348113938272,984.5348450196454,984.46703656462,984.595643648,0.0015380832055561758,0.1286070833799613,0.03902181919773365,-0.0004654837159569703,-1.140715297197302,0.4,0.6,-0.25301006245454727,Stairs up
-0.9125390624958999,-1.32006835937,-0.58215332031,0.05162721766346639,0.22607729980436278,0.3495861816364,0.22338867187,0.42907714843,0.002645005991652306,0.05117182751999173,-0.49008544921459984,-0.62561035156,-0.29626464843,0.009251645592837083,0.09570333921503843,1.1010099004627,0.73280356062,1.49695805715,0.046250117318502544,0.21398041065788598,984.4526691107726,984.36288899487,984.56629262998,0.0018915341795551672,0.20340363511002124,0.04327376616103128,-0.0009011176945822709,0.5096575809571591,0.51,0.49,0.4916497896094423,Stairs up
-0.8969348144487,-1.20532226562,-0.59375,0.04353662864549353,0.20760843518277045,0.3396423339812999,0.26672363281,0.39880371093,0.0015608410566281396,0.039309447287666846,-0.41998168944879993,-0.58190917968,-0.19812011718,0.01623455457457111,0.12677621633739272,1.0556183274971,0.69857406731,1.36115076559,0.04305277430587177,0.20645155984591892,984.3780330308415,984.32047326924,984.47446117908,0.001510040492391786,0.15398790983999788,0.03866445509079196,-0.00041516650305991573,-0.27155369782765026,0.52,0.48,0.5568104830124072,Stairs up
-0.9017031830097026,-1.21130371093,-0.58227539062,0.04452057403512494,0.2099518427459043,0.3251252127127722,0.22351074218,0.38940429687,0.0016322139938386112,0.04020016740321052,-0.38923992496455445,-0.54772949218,-0.16162109375,0.013017404805196362,0.1135276160636931,1.0420766011832672,0.70433825616,1.36391002724,0.04337289458889385,0.20722803861689135,984.3094803266912,984.24082748839,984.40773827527,0.0023437297195188123,0.16691078688006655,0.048171822414883804,-0.0006040278768965451,-0.606979479300279,0.71,0.29,0.7069872063323978,Stairs up
-0.9488217132220201,-1.27856445312,-0.64050292968,0.03842371530168446,0.1950271698130899,0.31720032354444444,0.19165039062,0.43176269531,0.00365941116207956,0.06018677107942945,-0.3481901534837373,-0.50073242187,-0.12194824218,0.014216897009121087,0.11863090654979812,1.066306273161818,0.74688507975,1.42930926338,0.041254047454733704,0.2020825076662646,984.2399676454858,984.17125944309,984.31783562236,0.0016466016415451878,0.14657617927002775,0.04037287829386951,-0.0005907963007711641,-0.7996965760215899,0.52,0.48,0.5006878374049323,Stairs up
-0.9214001464805,-1.23364257812,-0.57263183593,0.05076269155064724,0.2241764140919842,0.3103210449182999,0.21057128906,0.38854980468,0.0024972360467355147,0.049721863262232636,-0.4063818359333999,-0.5849609375,-0.17419433593,0.015022728081832224,0.12195286302917985,1.0631715827875001,0.65252777747,1.41536777803,0.04817130515790724,0.21837946814279077,984.1719396812866,984.0937699705,984.27540009125,0.0023978244883971064,0.1816301207500146,0.04872213299428849,-0.000971389998440047,-0.5877354493235698,0.51,0.49,0.36462701130979175,Stairs up
-0.896379394528,-1.27209472656,-0.52404785156,0.03816510662291196,0.194379668578488,0.344083251949,0.22277832031,0.43603515625,0.0022494557695374234,0.04719068988520987,-0.38429565429339996,-0.55187988281,-0.16613769531,0.013002272620058578,0.11345593811633656,1.0412489306186996,0.65252777747,1.40883837483,0.03864220632662898,0.19559085935534587,984.1123661623592,984.07591949447,984.20732127776,0.0011356669016483422,0.13140178329001628,0.033530735641078,-0.00032526751219904795,0.7147388322340618,0.53,0.47,1.0798495885931165,Stairs up
-0.923316650387,-1.20458984375,-0.70336914062,0.018198683615710597,0.1342262894501427,0.32511352538699995,0.20080566406,0.45361328125,0.0037215415441680345,0.06069865013924407,-0.3906555175742,-0.54724121093,-0.12243652343,0.01987506535788707,0.14027228772750588,1.0638275533826,0.83166250376,1.38783305891,0.020679241372324377,0.14308196587481292,984.0901452954345,984.06289678073,984.12414046947,0.00032356650648423065,0.061243688740091784,0.017897788729879127,-0.00011550861157656365,-0.9239123668172455,0.48,0.52,0.2517324855211091,Stairs up
-0.896904296871,-1.13647460937,-0.66650390625,0.01850415730706379,0.13534812792939974,0.3237292480442,0.23803710937,0.4052734375,0.003173794558320633,0.056054050814704076,-0.4062902831993999,-0.56408691406,-0.17797851562,0.017048085294532198,0.12991383468124892,1.0442950107366002,0.80932058387,1.3033168297,0.02231964176525673,0.1486487314026062,984.0966305516038,984.06857281988,984.1472383721,0.000510905990503193,0.07866555221994531,0.02248992953742099,-0.00021134112629708334,-0.7219137424150177,0.59,0.41,0.5676122074178193,Stairs up
-0.9372509765584001,-1.24011230468,-0.62609863281,0.027251498241417302,0.16425280289542438,0.3601953124954001,0.14013671875,0.61364746093,0.00988808366977949,0.09894040040894161,-0.3524902343713,-0.56323242187,-0.13928222656,0.019118095287153244,0.13757512251232673,1.0769509784090998,0.72556295653,1.38892632579,0.02858698188250347,0.16822934364634023,984.1046089205292,984.06082170364,984.14848206968,0.0007982185484994571,0.08766036603992688,0.028111143039984385,-6.59566002326439e-05,-1.2191521542921104,0.56,0.44,0.017483248780913445,Stairs up
-0.9325976562471999,-1.32531738281,-0.54406738281,0.055426723643878496,0.2342487063089991,0.3461853027309999,0.14013671875,0.73400878906,0.024115551413682337,0.15451341656809456,-0.20117065429290001,-0.49536132812,0.03796386718,0.016119403518236725,0.12632580687672,1.0339923366992003,0.69555862228,1.39804520245,0.05617898368563134,0.23583297871327288,984.0721579216633,984.01822661896,984.18855523032,0.0019356066219304879,0.17032861135999156,0.04377499920858004,-0.0005394017744266107,1.423092479286396,0.64,0.36,1.3469559117355867,Stairs up
-0.9464160156218,-1.32080078125,-0.60888671875,0.04758233070413481,0.21704033587583083,0.3265576171841,0.24426269531,0.43139648437,0.0022302217917120407,0.04698850469843577,-0.27684814452779993,-0.4814453125,0.09484863281,0.03744137763322659,0.19252782618856507,1.0607619815448002,0.71395533235,1.41252387625,0.0405590469010113,0.20038327383292545,984.0029902088462,983.9279130308,984.08421421929,0.0018484885173017395,0.1563011884899197,0.042778541725130396,-0.0007777777711879678,-0.7967037171785418,0.51,0.49,0.11075031996349974,Stairs up
-0.9471616839375246,-1.24279785156,-0.60888671875,0.042876446660351,0.20603865507832783,0.3136518119562376,0.21826171875,0.41064453125,0.003533281807876559,0.059146418485651026,-0.3663378422774256,-0.5263671875,-0.1806640625,0.013738813376497445,0.1166309801094229,1.0714085308114851,0.73481130828,1.38984135182,0.041746230193571376,0.20330494627960688,983.9368041362267,983.88167314863,984.00298787341,0.0014228387789940978,0.12131472478006344,0.03753333540109099,-0.0005222349570342982,-1.1860326601608184,0.56,0.44,0.19597971877600498,Stairs up
-0.9268945312464001,-1.25524902343,-0.60571289062,0.045341775055758295,0.21186872658606487,0.32067382812119993,0.26245117187,0.40490722656,0.0018429424786639951,0.04271431907308549,-0.3890429687468,-0.55810546875,-0.16320800781,0.01252467762369065,0.11135273165690072,1.0633163059803996,0.71120633292,1.38900819828,0.042212466941603785,0.20442686289279047,983.8493339357572,983.78401909036,983.95167087938,0.0013650635507273224,0.16765178902005573,0.03676156845429815,-0.0007815234206570681,0.5287136304145168,0.56,0.44,0.47219251021933756,Stairs up
-0.9137841796835999,-1.21667480468,-0.58923339843,0.0385886160048637,0.19545518628272585,0.3849560546824,0.30139160156,0.54724121093,0.0036070408002321446,0.059757596941559014,-0.3182177734344,-0.44677734375,-0.14672851562,0.009885773128864996,0.09892884006990249,1.0502588994492001,0.76349574445,1.33101596901,0.03330515370792187,0.18158221876285863,983.7893810685721,983.74803343781,983.84852998178,0.0007760226411279001,0.10049654396993901,0.027717547054467523,-0.0005204468517466741,-0.8182586516052575,0.52,0.48,0.4326020621522215,Stairs up
-0.916925603689596,-1.25073242187,-0.68981933593,0.026656699202951002,0.16244211158145663,0.3240165325089899,0.19934082031,0.42309570312,0.0037829839944824436,0.061194542525802226,-0.3364923650522222,-0.57885742187,-0.07678222656,0.021513312225650307,0.14593151147559882,1.0399738136725252,0.78445725142,1.39797653294,0.02914345063618377,0.16985014673802726,983.7318507578992,983.68246631024,983.78579347265,0.0006482948865751608,0.10332716240998252,0.025332715081045537,-0.00015021180728213874,-0.010738526950429872,0.57,0.43,0.273860059704077,Stairs up
-0.8989306640576001,-0.91003417968,-0.89074707031,2.6637231460206564e-05,0.005135256482942648,0.3835791015584,0.36987304687,0.39562988281,3.647385221998993e-05,0.006009085928640898,-0.2957470703092,-0.3125,-0.27978515625,5.8263576409235895e-05,0.007594796945616356,1.0211544592488,1.0093181659,1.03782181775,3.972404551529008e-05,0.006271108758436356,983.6811056023035,983.67610675272,983.68478929913,6.965751866834012e-06,0.008682546410000214,0.002626041573959878,1.1584606116231762e-05,-1.0836785757382426,0.45,0.55,-0.3143060210955094,Lift down
-0.858510742184,-0.88232421875,-0.84265136718,0.00013918578023869557,0.011738565603867818,0.3693798828087999,0.36083984375,0.38745117187,4.015725067418618e-05,0.00630521039834868,-0.28372558593400005,-0.29846191406,-0.27197265625,6.255660394257022e-05,0.007869627558096032,0.9767464850112002,0.95938283873,1.00375778495,0.00019008589837800455,0.013718055233677423,983.6941799273472,983.67598197106,983.73900273506,0.0003007549702523887,0.06302076400004353,0.017255359183449785,0.0005436968672775699,0.11833384538840175,0.68,0.32,1.1007818058432786,Lift down
-0.9005615234328,-0.91296386718,-0.87463378906,0.00010707282056541491,0.01029573175445829,0.37561035155880007,0.365234375,0.39111328125,4.349814520359848e-05,0.006562252947849732,-0.2937353515592,-0.30407714843,-0.28649902343,2.171477885683593e-05,0.004636553792232715,1.0190296780831998,0.99268785761,1.03147234831,0.00012497830096066113,0.011123332142440705,983.839236450297,983.75036917067,983.9364430925,0.003559050113072029,0.18607392183002958,0.05935873661005015,0.00204806597871759,-1.2361191637382658,0.52,0.48,0.09164705027288882,Lift down
-0.9039208984339999,-0.91149902343,-0.89916992187,1.5439312866733744e-05,0.003909593295736323,0.3753417968707998,0.36938476562,0.38537597656,1.655323337472873e-05,0.004048172555731962,-0.2920947265587999,-0.29956054687,-0.27893066406,2.6482138973649576e-05,0.005120284912376759,1.0214232076804004,1.01442245301,1.03159735349,2.6570847034678517e-05,0.0051288535331330855,984.0520683834872,983.94503785304,984.15473783756,0.00419203561378291,0.20969998451994343,0.0644213882002327,0.002224175047315267,-1.1679231525840148,0.48,0.52,-0.06901977461266243,Lift down
-0.9016748046848,-0.90747070312,-0.89501953125,1.0645895288604795e-05,0.003246449804897459,0.37591308593399986,0.36987304687,0.3857421875,1.2145042418910788e-05,0.003467505154245871,-0.29080566405920005,-0.30078125,-0.27905273437,3.2247341048996795e-05,0.005650209521646682,1.019280331832,1.01322716309,1.02752005946,1.8311984068444267e-05,0.004257800397829826,984.2646451146512,984.16532441984,984.35776369432,0.003645478837234666,0.1924392744800798,0.06007515334031466,0.002074507591191913,-1.228033509474769,0.48,0.52,0.017043799127945597,Lift down
-0.8052023708190098,-1.12658691406,-0.099609375,0.06982951152424255,0.2629413056596896,0.5455406868766337,0.31677246093,1.13366699218,0.05440605469275059,0.23209347445353018,-0.16794699489346532,-0.58618164062,0.35729980468,0.058612856385173134,0.24089942107532936,1.0411982616258415,0.33708885192,1.4279203646,0.07182707341759922,0.2666756724466083,984.4675400026928,984.37200686769,984.57932653893,0.004402471366910351,0.20731967124004314,0.06602183382408729,0.002092465385148419,-1.2249138123184322,0.67,0.33,0.4341107310782867,Lift down
-0.8273235282468686,-1.11315917968,-0.23461914062,0.04578559865754415,0.21289226820864937,0.5272894965238384,0.310546875,0.87243652343,0.030124376082196286,0.17268494275733307,-0.3474071772371717,-0.62109375,-0.20471191406,0.013212296402925643,0.11436275120642277,1.058018515390202,0.60056962402,1.43090719819,0.052539752179035046,0.22805492235768568,984.6762948857801,984.55328225766,984.8068133339,0.003983899202619269,0.25353107623993765,0.06279854931869212,0.0016095599259359841,-0.8764202345261909,0.47,0.53,0.02523651166243023,Lift down
-0.8272705078088001,-1.01672363281,-0.52319335937,0.03036636655990749,0.17338599393926954,0.5206884765587999,0.33435058593,0.79895019531,0.025879353128563765,0.16006423584698154,-0.23434082030920003,-0.32287597656,-0.12634277343,0.002640663397524359,0.05112980308537395,1.0317737588964004,0.90195061843,1.13390535058,0.004190941901719811,0.064412983805306,984.9668825182636,984.77476229738,985.24369728139,0.01967765316666417,0.46893498401004763,0.1395739110113259,0.004698909530691975,-1.1634764229156043,0.6,0.4,0.4625592075551698,Lift down
-0.7102929687468,-0.90856933593,-0.50146484375,0.006362749494612333,0.07936700825699687,0.7940380859335998,0.69213867187,0.98278808593,0.0038077124200229504,0.06139735577223762,-0.06941406249800001,-0.21691894531,0.04797363281,0.005837239255671335,0.07601885860176158,1.07379192692,0.95605227165,1.19883191831,0.0026761790686006992,0.05147249049652341,985.0404205683715,984.80381133835,985.1974488501,0.012549606518819128,0.39363751175005746,0.11146349381582715,0.0017905155182575871,-0.4042043671803177,0.44,0.56,-0.5405596576436543,Lift down
-0.6758251953083999,-0.70141601562,-0.64331054687,0.00027105288070131887,0.01638115844176796,0.788510742184,0.744140625,0.82409667968,0.0006307160251865777,0.024988174501846105,0.02516113280999999,-0.01184082031,0.04907226562,0.00022258219086263012,0.01484440530819621,1.0391057654212001,1.01209120356,1.07778897784,0.0004992763778905867,0.022232490056484467,985.2396490650775,985.20898221035,985.25829708985,0.00024557323574780004,0.04931487950000246,0.015592225735613311,0.0005110235843075855,-0.9697264258096063,0.4,0.6,-0.6182472940619157,Lift down
-0.6686328124959999,-0.69287109375,-0.64086914062,0.00024817457102848804,0.015674591711371724,0.7653662109344,0.74853515625,0.79333496093,0.0002420698994263257,0.015480607237187515,0.0263916015584,0.01000976562,0.04382324218,0.0001086610736267756,0.01037181097448791,1.0169171239260002,1.00835414495,1.02788498984,2.4516133611886492e-05,0.004926557852676413,985.2664750792759,985.25404891616,985.27325700471,2.3593565761820953e-05,0.019208088550044522,0.004832973215754743,0.00013969539924070225,1.1886392330409672,0.4,0.6,-1.203677616976969,Lift down
-0.6749853515583999,-0.685546875,-0.66528320312,4.5408046597978815e-05,0.006704771892614918,0.7614257812464001,0.74829101562,0.77685546875,9.378158686115551e-05,0.009635547259629002,0.04667968749679998,0.03564453125,0.06237792968,6.28871147048315e-05,0.007890389315983286,1.0186884930436,1.00938164735,1.03089393624,2.7523749545360963e-05,0.005220010732738712,985.2794179242533,985.26937520969,985.28705646842,3.6008674913330306e-05,0.01768125873002191,0.005970643865128534,0.00017769275306348784,-1.2968168554852941,0.36,0.64,-0.3974927169404766,Lift down
-0.6881103515588001,-0.70788574218,-0.66931152343,0.00011341619972851065,0.010596321896357506,0.7501123046839999,0.73693847656,0.76586914062,5.1589830960710624e-05,0.0071466028748702354,0.0342968749964,0.01220703125,0.05126953125,0.00015158542479500967,0.01225028859035817,1.0186429781264001,1.01170391086,1.03028308448,2.0717020862890634e-05,0.00452878026120298,985.2992670371324,985.28752400406,985.31685813275,9.414566872806415e-05,0.029334128690038597,0.009654232856150897,0.0003207213947354247,-1.1687245179322485,0.48,0.52,0.397409340573275,Lift down
-0.6991943359335999,-0.71044921875,-0.68884277343,3.883092091656803e-05,0.006200210617987292,0.7457421874964,0.73449707031,0.75439453125,3.5413973254377766e-05,0.005921134479289757,0.029619140622399998,0.01220703125,0.05126953125,0.00012858935077912035,0.011282883375774525,1.0227687278224002,1.01001252452,1.03483963928,2.6624642637168826e-05,0.005134042871928236,985.320412670879,985.30535962508,985.34329188079,0.00012337976623151393,0.03793225571007497,0.011051966728560072,-0.00025415873733256457,-0.5836361680071587,0.64,0.36,0.6473297926902437,Lift down
-0.7175439453088999,-0.7373046875,-0.69458007812,0.00015567627821256558,0.012414488125993755,0.7170495605431998,0.69555664062,0.75354003906,0.00022342778664566292,0.014872575727802036,-0.07274658202800001,-0.1044921875,-0.05554199218,0.0001050955779468371,0.010200226574315333,1.0172192622319,1.00384843414,1.03957742824,6.644557028697305e-05,0.0081105557506316,985.2734935024957,985.26867572901,985.2808109111,1.1002839919745766e-05,0.012135182089991758,0.0033004259604706037,3.518529092074774e-05,-0.7131329125111785,0.4,0.6,0.25614506393008873,Lift up
-0.6695104980436,-0.71350097656,-0.64526367187,0.00022554658127293077,0.014942928610556952,0.8051599121051999,0.75061035156,0.85620117187,0.0010188512895455482,0.03175945176872694,-0.09421264648040002,-0.14123535156,-0.05749511718,0.0004446182272318305,0.02098027752341499,1.0519045000118,1.01782409565,1.09625905939,0.0005776389933208278,0.02391364889320782,985.2771221536859,985.25462910035,985.28981534456,0.00014497462722989717,0.0351862442099673,0.01198018701680396,-0.0003062128479938439,-1.2180970456341622,0.33,0.67,-0.657649677695557,Lift up
-0.7101076684783838,-0.76550292968,-0.64721679687,0.0010635457415459689,0.03244692366415847,0.7558297821925252,0.66027832031,0.82983398437,0.001727283332706217,0.04135016355850658,-0.07653808593434344,-0.12573242187,-0.02966308593,0.0005546485891394915,0.02343173229059436,1.0412588044623234,1.00314570907,1.08133546375,0.000486338683558595,0.021941425924571486,985.1817726830546,985.10746964293,985.26685127962,0.002315863922760664,0.15938163669000005,0.04787975937579776,-0.0016580930466585523,-1.162791265460664,0.53,0.47,0.058321692062451545,Lift up
-0.7338769531207998,-0.79895019531,-0.64184570312,0.0016002533652079544,0.03980264854951081,0.6971533203096,0.630859375,0.845703125,0.002466670094071312,0.04941663073430441,-0.0709521484348,-0.12451171875,-0.00634765625,0.0014908485701873586,0.03841796564740883,1.0172666085187998,0.98203568802,1.06170616226,0.0003062456684966703,0.017412157012033393,984.9847564027286,984.87589297833,985.08877718,0.00409596022521047,0.21288420167002187,0.0636788867911364,-0.0021623625638087546,-1.2913495337941734,0.44,0.56,-0.005233938348482104,Lift up
-0.606380047180792,-0.65478515625,-0.56530761718,0.0006553457869463595,0.025472675846843727,0.8221109220264354,0.79418945312,0.85302734375,0.0002616873059082709,0.0160964698764492,-0.014753587172079207,-0.06457519531,0.04919433593,0.0006096229044687028,0.024568008346779528,1.0223449861656435,1.00291754874,1.04448068877,0.00010409860320266038,0.010152237387050702,984.7864929145785,984.67030918454,984.87589297833,0.00417350732381436,0.2055837937899696,0.06428207735538055,-0.0021496616990412626,-1.0477979774682311,0.49,0.51,-0.2824293483656183,Lift up
-0.6070788574177999,-0.61828613281,-0.59631347656,2.794846591353505e-05,0.005260131296308077,0.8210314941374,0.80981445312,0.83325195312,3.020627781622182e-05,0.005468474653690881,0.0045764160139,-0.025390625,0.02819824218,0.0001590337701515995,0.012547646490481134,1.0211942569909,1.00989144314,1.03161841371,3.606382764129574e-05,0.005975214587350213,984.5620732148726,984.45418441607,984.67030918454,0.004318156699523489,0.21612476846996742,0.06538329398652422,-0.002256065982817809,-1.2064576624114878,0.49,0.51,-0.042270967594737106,Lift up
-0.6557360839806,-0.6904296875,-0.60021972656,0.000416542934346068,0.020307080169305665,0.7789819335902999,0.75903320312,0.81750488281,0.00021236207151252175,0.014499601746165186,-0.0409033203091,-0.06799316406,-0.01318359375,0.00019123508471616114,0.013759459795682369,1.0194376731353,1.00966628303,1.03348476126,3.48642301883271e-05,0.0058749968413986265,984.3441118314394,984.23528818003,984.45418441607,0.0035308408951296843,0.21889623603999553,0.05912302839146848,-0.002033657642617889,-1.0036910357782094,0.49,0.51,-0.06981280190697901,Lift up
-0.6643981933551,-0.6904296875,-0.65258789062,6.620883190051222e-05,0.008096094341193604,0.7760864257786,0.76159667968,0.78979492187,6.282133887290692e-05,0.007886261819403275,-0.044992675776900005,-0.05639648437,-0.02563476562,5.696312946572918e-05,0.007509560451256244,1.022705766381,1.01298907147,1.02973715035,1.6655818793279335e-05,0.004060697059046211,984.1354354896654,984.02694019269,984.23528818003,0.003616677720646027,0.208347987340062,0.059837370793172105,-0.002064545725639604,-1.1791969873761625,0.49,0.51,-0.04406815666563493,Lift up
-0.6485791015589999,-0.66333007812,-0.62438964843,7.915578707752822e-05,0.008852357268363774,0.7878747558561,0.77258300781,0.79638671875,3.486807147606586e-05,0.005875320481582703,-0.0355273437458,-0.05517578125,-0.02380371093,5.011062429925919e-05,0.007043402448835832,1.0211830397412998,1.0134784683,1.02711620639,1.1481343085958383e-05,0.003371428429478935,983.9179876927545,983.79433645748,984.02694019269,0.004847242922155782,0.23260373520997746,0.0692731585315281,-0.0023918633365790196,-1.2537547491450085,0.49,0.51,-0.05314659018220427,Lift up
-0.6225891113239,-0.6328125,-0.61120605468,4.2340483018663963e-05,0.006474339980915222,0.8038305664025001,0.79455566406,0.81640625,2.9834827986878664e-05,0.0054347474372789285,-0.05345581054380001,-0.06774902343,-0.03564453125,8.97315099310722e-05,0.009425189379092681,1.0182050068731,1.00867751798,1.02860578467,3.753175461119423e-05,0.006095608014388907,983.6891195836396,983.58422513741,983.79433645748,0.00388237781876031,0.2101113200699274,0.06199640344868972,-0.0021389352105565035,-1.1689543878061637,0.53,0.47,0.06639876847978332,Lift up
-0.6132421874972999,-0.62255859375,-0.60510253906,1.8360903765384806e-05,0.004263483872108696,0.8092468261683998,0.79968261718,0.81872558593,2.3677305440134533e-05,0.004841542356081705,-0.0667370605416,-0.07800292968,-0.05346679687,3.166039032158552e-05,0.005598552171621665,1.0175782363180996,1.01209506838,1.02261800934,7.81416705908324e-06,0.0027813711346191122,983.4790688595588,983.3768868601,983.58422513741,0.0037873094103903185,0.20733827731010024,0.0612326409383624,-0.002114513609513609,-1.2210299814916752,0.53,0.47,0.01572384891783256,Lift up
-0.609788818356,-0.64025878906,-0.56555175781,0.0005096329266663433,0.022461892115306758,0.8190222167929,0.79833984375,0.83972167968,0.00011490729569884173,0.010665749984968395,-0.054182128903200004,-0.12121582031,0.01379394531,0.000999213174072515,0.031451884559304075,1.0232909527730998,1.00164128259,1.0370403705,5.923183877042417e-05,0.007657644571454066,983.2716787164901,983.17239829833,983.3768868601,0.003683327401409178,0.20448856176994923,0.0603862080892242,-0.0020589383120841066,-1.2081886594659588,0.49,0.51,0.19670531079752263,Lift up
-0.6119372558544,-0.64245605468,-0.58081054687,0.00026836313835478735,0.016299678124774106,0.8162878417927999,0.80126953125,0.83557128906,0.00010555936079449135,0.01022270840758683,-0.05064331054409999,-0.08447265625,0.02648925781,0.0008936682899420808,0.02974443825394354,1.0220457508487,1.00910049756,1.03880516967,6.687573418502384e-05,0.008136766977318055,983.0600755084404,982.95367306467,983.17239829833,0.004199190678936387,0.21872523365993857,0.06447634273240863,-0.0022206100484867468,-1.2039455230019376,0.49,0.51,0.0869223754660848,Lift up
-0.6232946777299,-0.6953125,-0.56372070312,0.0007628679441612736,0.027481616850535937,0.7988806152302999,0.73571777343,0.82006835937,0.0004335088726936293,0.020716509936924535,-0.0636999511694,-0.11975097656,0.021484375,0.0014447485723165187,0.037819321604086895,1.0164889403858,1.00011046365,1.02657348708,3.8347154678480335e-05,0.006161467611835311,982.8393808225559,982.72404281748,982.95367306467,0.004227716413957552,0.22963024719001623,0.06469497082322533,-0.0022239653241971995,-1.078728858927071,0.49,0.51,-0.08252479347462159,Lift up
-0.6087634277308999,-0.63562011718,-0.59655761718,9.65283660602515e-05,0.009775637186375577,0.8150695800740999,0.80432128906,0.82543945312,2.7555219750840466e-05,0.005222994117681166,-0.07150512694899998,-0.09631347656,-0.06079101562,0.00012015780265855534,0.010906705489375322,1.0199272846374,1.00946452154,1.03667999258,3.47954671173659e-05,0.005869200324251357,982.6225574648643,982.51157166479,982.72404281748,0.0038559337162227245,0.21247115269000005,0.061784904135723136,-0.00213334815468001,-1.1618900218922443,0.49,0.51,-0.020501372890652257,Lift up
-0.5970471191370998,-0.60827636718,-0.58447265625,4.4738251454833285e-05,0.006655138536520855,0.7821447753871,0.75,0.82556152343,0.0005211399825943417,0.02271406134464725,-0.0458776855432,-0.07580566406,-0.01525878906,0.0002973835441286146,0.01715837138796478,0.9852594883966,0.96507861873,1.02547696431,0.00044327661738281836,0.020948600220754374,982.4184832290935,982.34435095819,982.51157166479,0.0028191006358524464,0.16722070660000554,0.052829060463857595,-0.0018136661696314478,-1.1866727418161562,0.49,0.51,0.25511041383325744,Lift up
-0.635831298825,-0.67822265625,-0.59436035156,0.0006442927516804958,0.025255688946526304,0.7805957031214998,0.74194335937,0.82385253906,0.000490562337813262,0.02203762043495462,0.0041235351555,-0.05578613281,0.06652832031,0.0017236379597937554,0.04130861387405559,1.008025310446,0.96767816931,1.0271746275,0.00034644187585356715,0.018519650566223744,982.3334034945233,982.32354770951,982.34971702921,6.089677348149724e-05,0.02616931969998859,0.007764522248450465,-0.00013345324839705218,-0.8755708674286606,0.57,0.43,0.5799871037896218,Lift up
-0.7646179199186,-0.84423828125,-0.658203125,0.003023580281102715,0.05471146569314048,0.6751770019490999,0.57568359375,0.77734375,0.003885647075093808,0.06202250079078454,0.04773925780929999,-0.01501464843,0.11083984375,0.001325923890715001,0.03623071420504778,1.0251090595653998,1.01201599497,1.04402685605,8.868675919094268e-05,0.009370159635728372,982.3226536474086,982.29132856074,982.35404748107,0.0003573308659547331,0.06271892032998494,0.018808443776537863,-0.0004909139789042277,-1.1006692165956393,0.41,0.59,-0.18375613765289592,Lift up
-0.8213745117146999,-0.88195800781,-0.69653320312,0.0015866953616840093,0.03963367770050073,0.5786999511686,0.48315429687,0.67175292968,0.0035877626035653587,0.05959769271985037,-0.1038085937483,-0.19567871093,0.03454589843,0.0056879472247342525,0.07504044078020138,1.015044647478,0.94316256979,1.06631322601,0.0007718089668161323,0.027642193783199823,982.3216694546308,982.29012845861,982.37969924585,0.0007554086780088685,0.08957078724006351,0.027346930197533686,9.18211177428762e-05,-0.47749435495331793,0.44,0.56,0.5815224953921992,Lift up
-0.7642614746069999,-0.88623046875,-0.67590332031,0.0027968766277343487,0.05262041297307543,0.6524316406206999,0.59716796875,0.724609375,0.001621272250880138,0.040063194185827676,-0.1312475585907,-0.22973632812,0.04650878906,0.005952978188186308,0.07676879839039064,1.0169384845415999,0.92940925794,1.07978269044,0.0008233393194357927,0.028550060004165222,982.293599408042,982.21595489692,982.33106529624,0.0009350437659192639,0.11511039931997402,0.030425208762801796,-0.0002334652694514926,0.8169842308415776,0.45,0.55,-1.0808686732151889,Lift up
-0.7562524414021999,-0.76318359375,-0.73095703125,3.559317854512002e-05,0.005936096929773707,0.6602807617149999,0.65014648437,0.68481445312,7.150058191222219e-05,0.008413416434071237,-0.186723632809,-0.21704101562,-0.17431640625,7.057356111436385e-05,0.008358697596110307,1.0212251767292002,1.01158522678,1.03770584798,2.9478314739152714e-05,0.005402178411692934,982.2988870531211,982.28019185807,982.30793478982,6.19131325611792e-05,0.0277429317500264,0.007829048552382813,0.0002332814352352764,-0.09299542462040256,0.39,0.61,-1.03195033744984,Lift up
-0.6549096679655999,-1.23010253906,-0.31079101562,0.04490665323206475,0.21084967796926818,0.6590649414020001,0.28930664062,1.00720214843,0.02534792002389241,0.1584122496010125,-0.1262402343718,-0.3056640625,0.05334472656,0.009451246237237847,0.09673021128306021,0.9459645704698002,0.42738936283,1.59517185046,0.06390874714090883,0.2515346092876679,982.3112826947108,982.21592870794,982.47489067316,0.004987355531863024,0.2589619652200099,0.07026721836350429,0.000884417388425479,0.13784585708497943,0.67,0.33,1.0153182784873438,Stairs down
-0.7707690429649997,-1.19958496093,-0.39782714843,0.04179049863324834,0.20340254090575136,0.6920922851533998,0.37451171875,1.04833984375,0.02273938263912615,0.15003995738714035,-0.11160400390440003,-0.44958496093,0.12890625,0.020755728573118762,0.14334633335871402,1.0550599207606002,0.57026501026,1.59326311228,0.05738729272819505,0.23835565821040017,982.3596166420285,982.30452807918,982.48956089461,0.0021435355604098997,0.1850328154299632,0.04606625885402244,0.0006546450843234917,1.379053905993203,0.64,0.36,1.3051859439550644,Stairs down
-0.7060595703092,-1.09545898437,-0.46936035156,0.026060094110916327,0.16062220634086422,0.6859692382771999,0.46533203125,1.02075195312,0.023515062025040712,0.1525775586539197,-0.17202880858940006,-0.39331054687,-0.03503417968,0.010019175217527742,0.09959409352643592,1.0090647325022,0.66585516464,1.49975548181,0.039853108415851775,0.19863176314903228,982.4345962497569,982.34164579061,982.55685904044,0.002801106940642183,0.21521324983007162,0.052660192472452676,0.0013297495898079046,-0.21240514352107542,0.51,0.49,0.4504326296326539,Stairs down
-0.6684130859341999,-0.88659667968,-0.49279785156,0.013031019562533797,0.11358128968676337,0.6619555664022001,0.35083007812,0.90673828125,0.01524513105555896,0.1228522679684969,-0.21692382812140004,-0.47155761718,-0.04028320312,0.011722413554333753,0.10772738472083325,0.9724746867215999,0.63306485548,1.26549982111,0.026170439155592962,0.16096190469809007,982.5273524500633,982.44229895595,982.63616110958,0.0022861230522147748,0.19386215362999337,0.0475737513939423,0.0008029016290751766,-0.10340719167889745,0.56,0.44,0.6008421924786937,Stairs down
-0.7881030273398,-1.27575683593,-0.51452636718,0.042179734423954854,0.20434758887668655,0.6951757812475998,0.35803222656,1.10595703125,0.023124284599807005,0.15130446706495132,-0.12183593749920002,-0.37231445312,0.08129882812,0.018542916990695376,0.1354898070734047,1.0728239908946,0.648511193,1.68867855066,0.05179484385564528,0.22644402270117184,982.6172258417778,982.55795039821,982.73548785321,0.0026790770668742485,0.1775374549999924,0.05150035238913911,4.9971926747645347e-05,-0.6916304229657042,0.56,0.44,0.5690054175340996,Stairs down
-0.728288574215,-1.08166503906,-0.51745605468,0.026036955497470475,0.1605508827210108,0.6863769531221999,0.47045898437,0.92053222656,0.013793523865368884,0.1168571291223398,-0.1279272460918,-0.35534667968,0.11303710937,0.016630539682782688,0.12831303240885106,1.0197903685394,0.7376836952,1.38808037437,0.03414844696200365,0.18386669761646238,982.6729254338967,982.61190947564,982.77002097276,0.0018326481888481135,0.1581114971199895,0.042594855404844756,0.0008798390833055539,0.09625976018919946,0.71,0.29,1.0544226688066045,Stairs down
-0.8171972656215999,-1.328125,-0.43237304687,0.04237303362955135,0.20481529067248821,0.6269165039033999,0.27124023437,0.87768554687,0.023582557385628568,0.15279637368659074,-0.0357104492184,-0.49621582031,0.2373046875,0.0329811508052374,0.18069681595751771,1.0524600998546,0.51114781393,1.50888861664,0.05291517434865521,0.22887993054256345,982.7121087288486,982.64581270781,982.78507778851,0.0013345507758130686,0.1392650806999427,0.03634838742028232,0.00011649840128468325,-0.46147849659919027,0.52,0.48,0.4213292845561071,Stairs down
-0.7849096679648,-1.06433105468,-0.50756835937,0.02482833554673647,0.15678026722540406,0.6617382812468,0.34753417968,0.88806152343,0.025802840464141944,0.1598274446379611,-0.07364501953,-0.41491699218,0.07604980468,0.017461422265431088,0.13147930651922674,1.0442996853432,0.63240406607,1.34140517002,0.03662037184037618,0.19040527335652344,982.6915577477862,982.65184931619,982.76853802927,0.001068317531335397,0.11668871307995232,0.0325212908111293,-5.2545753191576856e-05,-0.08202874019356132,0.6,0.4,0.7933212856543311,Stairs down
-0.7731323242153999,-1.041015625,-0.53308105468,0.018411457689265998,0.13500867791506344,0.6636791992141999,0.32446289062,0.91430664062,0.02566900338195435,0.159412400233278,-0.0807275390592,-0.34936523437,0.06884765625,0.014612429334278604,0.12027595371035649,1.0342762644790002,0.63633667417,1.33885446621,0.03343351113031644,0.18193178946795766,982.6984623365244,982.65054344942,982.76763167301,0.0011995256004608457,0.1170882235900308,0.034460562161059374,-0.000321352699978056,-0.6636861753491448,0.53,0.47,0.4925208656247345,Stairs down
-0.7896118164029999,-1.16088867187,-0.52331542968,0.024917298043793164,0.15706089603512147,0.6625488281219998,0.39343261718,0.93762207031,0.017962512945983135,0.13335249460180076,-0.05918457031139999,-0.39672851562,0.09655761718,0.01655357736450354,0.12801578649080161,1.0460907543308,0.69741883718,1.32575198395,0.030801789681494468,0.1746246597267394,982.6963847251711,982.64942290749,982.74303466267,0.000753056753219618,0.0936117551799498,0.027304325402533237,-0.0001187273442498004,-0.8661433395009746,0.56,0.44,-0.09364792438493767,Stairs down
-0.7878393554650001,-1.25048828125,-0.3935546875,0.0428978171555129,0.20607969085758493,0.6859619140582001,0.34838867187,1.20190429687,0.03125104699492443,0.17589353747359562,-0.20919921874659997,-0.42565917968,0.05603027343,0.01756056424303708,0.13185203297866405,1.081840644215,0.55043306911,1.58358101465,0.0559717831483385,0.2353976748331536,982.7293042086243,982.65417724926,982.82887716387,0.0018322824569359834,0.1746999146099597,0.04259060497770164,0.0006448254498857785,0.2466252461805456,0.62,0.38,0.9437787213846327,Stairs down
-0.7044433593718,-0.94982910156,-0.51843261718,0.012930057265694706,0.11314042908278966,0.6209448242154,0.49011230468,0.82482910156,0.007732074844781475,0.08749145156147348,-0.1321972656232,-0.36682128906,0.09997558593,0.018355243711225887,0.1348024156835241,0.9615004299202,0.74288767864,1.18644371863,0.013568852169063008,0.11590152564730276,982.821140035962,982.74731290693,982.93842970528,0.002805717348025481,0.19111679834998085,0.05270351197543885,0.0009219105277076875,0.09501173221952586,0.58,0.42,0.9042426494285497,Stairs down
-0.7048046874969998,-0.99426269531,-0.47644042968,0.01827953834745728,0.13452413524710985,0.7463867187475999,0.58410644531,1.01708984375,0.012187981846247082,0.1098458102422874,-0.25388427733900004,-0.41564941406,-0.11267089843,0.009341004936620762,0.09616441590970412,1.0648156585528,0.85907493034,1.43723332999,0.024119253434750427,0.15452527592728293,982.9005103960276,982.82994801204,982.98806255777,0.001891868654704907,0.15811454573008632,0.043277591986591146,0.0011618577953713923,-0.8526153280286817,0.42,0.58,-0.08329231894463109,Stairs down
-0.7603540039038,-1.04541015625,-0.54626464843,0.01912174302552331,0.13758824657385554,0.7762304687466001,0.57604980468,1.01794433593,0.015966241190999517,0.1257242171544111,-0.15650634765300003,-0.33630371093,0.01098632812,0.009148439523940058,0.09516803627637095,1.1042596454216,0.83472671346,1.42383092976,0.02986957950924757,0.17196186703497696,983.0165765017206,982.95661308453,983.12324817249,0.001990203651686716,0.16663508796000315,0.044388079651747146,0.0007272011907422981,0.4059023162576483,0.62,0.38,0.9487517779663593,Stairs down
-0.7778710937458,-1.25756835937,-0.4404296875,0.032078897976979756,0.1782080497542408,0.6470507812463998,0.49523925781,0.93273925781,0.015100328464805256,0.12226743303168348,-0.09073974609139998,-0.28601074218,0.11437988281,0.012511396413341386,0.11129367659129594,1.0265276083776003,0.76282399516,1.57072174376,0.037703676148321215,0.19320103360706434,983.088557098511,983.03074354149,983.14123086264,0.0011335237905433961,0.11048732115000348,0.033499082862639126,4.572662815825039e-05,-1.1035004581610337,0.48,0.52,0.07681887288758263,Stairs down
-0.7289135742151999,-1.34375,-0.43273925781,0.04144081311431229,0.20254975927699634,0.7435913085909999,0.53344726562,0.99047851562,0.023424219151694747,0.15228255632270493,-0.14747314452899998,-0.37084960937,0.05529785156,0.013482098175754019,0.11553041674812949,1.0634756948552,0.7484384911,1.63764466745,0.05310552205309979,0.22929122711645292,983.1379583072284,983.0795933322,983.23723984287,0.0017007372781702695,0.15764651067001978,0.04103327802392306,0.0009323613187734308,0.3095247014194582,0.62,0.38,0.9365822099210956,Stairs down
-0.7598876953089999,-1.16638183593,-0.47106933593,0.026837577723419204,0.1630006194656481,0.6561596679636,0.32995605468,0.92468261718,0.02195541594377333,0.14743087120523843,-0.052529296874,-0.50512695312,0.134765625,0.022726712467023544,0.1499981511297833,1.0207983232466002,0.59251248493,1.38696364805,0.03990852394525388,0.198769813366621,983.1615270939594,983.10880510235,983.23356596528,0.0013491848915162844,0.12476086293008848,0.03654713453338198,0.00015734896372639429,-0.3835225198442678,0.64,0.36,0.6657495546839155,Stairs down
-0.8097045898404,-1.08569335937,-0.48889160156,0.029696418931859217,0.17146269198440992,0.6224145507772,0.35791015625,0.84655761718,0.014855914459051017,0.12127388554202634,-0.067268066405,-0.45922851562,0.107421875,0.024110989383307437,0.15449880093215726,1.0391256938174,0.61645209283,1.31094177595,0.036101889475302185,0.18905256036496615,983.1590188202254,983.09380304261,983.23694408968,0.0014611971614587882,0.14314104707000297,0.038034000444920335,0.00015728581762166924,-0.4616875296213627,0.52,0.48,0.2785413549275995,Stairs down
-0.7574682617145999,-1.03149414062,-0.53271484375,0.020972456408295977,0.14409278900837827,0.6777099609335999,0.38391113281,0.90197753906,0.020102087295348032,0.14107113957998124,-0.051069335937200006,-0.42211914062,0.107421875,0.017334252149713954,0.1309996550690757,1.0301122234052003,0.67134838757,1.32812344046,0.032677324056454626,0.17986258870562852,983.1517529190589,983.09859243324,983.21525189145,0.0008919059650042918,0.11665945820993784,0.029715095580432664,0.00011789042446292679,-0.9311103233079865,0.6,0.4,0.3495490659070723,Stairs down
-0.7418041992151998,-1.0947265625,-0.51147460937,0.02396276985180059,0.15402318706377488,0.6260375976525999,0.3408203125,0.87768554687,0.015177228384420954,0.12257836718025227,-0.09577148437360002,-0.35607910156,0.06604003906,0.01592548155976549,0.12556363623345668,0.9885194747222,0.63568166512,1.27332348108,0.029002822182398507,0.16944849943441376,983.1619165130975,983.10214965426,983.24961252299,0.001198124050798206,0.147462868730031,0.034440424072450446,0.00019379420764406187,-0.08756750003507863,0.4,0.6,0.13770459486310918,Stairs down
-0.7482617187457999,-1.09802246093,-0.51831054687,0.024993426004932085,0.15730064127295465,0.7282397460905997,0.45471191406,1.08996582031,0.021557581430467945,0.14608903318238253,-0.096184082029,-0.29699707031,0.13037109375,0.01303080742406918,0.11358036515977789,1.0609294187586,0.81598343007,1.5112617551,0.03322714170433031,0.181369430410108,983.2258458136622,983.16803065529,983.2848607095,0.0010896580879338077,0.1168300542100269,0.03284450497502542,0.0005451837845174204,-0.9379737428520039,0.4,0.6,-0.19517162521046008,Stairs down
-0.7201123046836,-1.0068359375,-0.52307128906,0.015830080533327615,0.12518697906729093,0.64325927734,0.50158691406,0.86889648437,0.0075756606969685355,0.08660198664002373,-0.20293945312219996,-0.48413085937,0.00500488281,0.018967427532814267,0.13703194247140382,0.9984946258484001,0.78540173768,1.27954142322,0.018673303135673485,0.13596532684591595,983.2850331974201,983.21928689212,983.38318313981,0.0021232666433383127,0.16389624768999056,0.045847944085912175,0.0009244913034684732,-0.3465421358635994,0.54,0.46,0.4823707220856555,Stairs down
-0.6990820312463998,-0.87731933593,-0.51953125,0.009297583825566731,0.09594064825354821,0.6377368164031999,0.43798828125,0.81005859375,0.008371626253065877,0.09103795906398175,-0.19362304687100007,-0.37683105468,-0.10034179687,0.0055487374826281854,0.07411646313607999,0.9718608625894001,0.72164847754,1.16415964271,0.011501060143167902,0.10670543351552546,983.39607731727,983.32225873253,983.50871064359,0.0022663124404453555,0.18645191105997583,0.04736717551259419,0.0009466712777126836,0.4322051040128638,0.46,0.54,0.6332777930969513,Stairs down
-0.763798828121,-1.30310058593,-0.52465820312,0.0389097417001085,0.19626676815779948,0.7023364257775999,0.44653320312,0.935546875,0.013223060580447539,0.11441516496794935,-0.14891113280920001,-0.36022949218,-0.01904296875,0.008332579810209554,0.09082540400189508,1.0586338201877998,0.73953416262,1.51495288418,0.03837857910472948,0.19492253157006295,983.4838007415683,983.40132916158,983.59772173847,0.0019980966850702323,0.19639257689004808,0.04447601284085085,0.001004391760621955,1.0118271654050757,0.7,0.3,0.9297547635385437,Stairs down
-0.7395898437462001,-1.02478027343,-0.34008789062,0.03966877619428227,0.19817186589508473,0.6137646484329999,0.3388671875,0.8076171875,0.012750946488102982,0.11235406990056904,-0.17144531249779998,-0.38049316406,0.13916015625,0.024145801404068006,0.15461029522650593,0.9933068841157998,0.54506023933,1.2818734234,0.04266159457721883,0.20551150486395317,983.5603844682689,983.48531067644,983.67208421193,0.0020186883527115286,0.18677353549003328,0.04470460232665551,0.00015374361727182482,0.9853700522126321,0.62,0.38,1.1556368207010925,Stairs down
-0.721909179683,-1.16320800781,-0.47778320312,0.029651258413484878,0.17133226733265988,0.5984680175753998,0.33032226562,0.88269042968,0.017193722416584845,0.13046756375597343,-0.0191821289083,-0.3193359375,0.13232421875,0.013628733584941316,0.11615698966954982,0.9508073628918998,0.61463199977,1.34621319564,0.035877900789870056,0.18846517392338394,983.5906798830403,983.49406197453,983.76058919641,0.0029640406554159947,0.2665272218799828,0.05417010475217705,-0.0005883496606654719,0.7324804913585781,0.56,0.44,0.5935070229762199,Stairs up
-0.7681445312472,-1.1865234375,-0.46752929687,0.03178790708988804,0.17739793690736416,0.6626977539021999,0.44152832031,0.88305664062,0.014947689355921886,0.12164790364968345,-0.0138696289072,-0.32434082031,0.19763183593,0.01986946113693042,0.14025250987259058,1.0312583699357998,0.70644000923,1.36669033275,0.03217361814608185,0.1784709555211184,983.5438358372511,983.45253161863,983.63627289567,0.0024028638162797676,0.1837412770399851,0.04877330394915819,-0.0009355835386273126,-0.7535349693786135,0.52,0.48,-0.11368709950728385,Stairs up
-0.8230859374964001,-1.21166992187,-0.40295410156,0.05171013362489246,0.22625877284349338,0.6357470703086,0.36218261718,0.96789550781,0.021610762711755535,0.1462691186978235,-0.0273730468754,-0.26416015625,0.19348144531,0.015054259974000306,0.12208078216599165,1.0532278772873997,0.63003196428,1.43322934812,0.061208610967016325,0.24616361399960426,983.4759235586924,983.37650535914,983.60534300223,0.0030166211943540543,0.22883764309005983,0.054648467338165245,-0.0014227098574474263,0.9027622584708204,0.62,0.38,0.7240585250118281,Stairs up
-0.8285327148398,-1.21264648437,-0.39025878906,0.0575238361564913,0.23863905337334537,0.6238281249959999,0.29724121093,0.83996582031,0.031912461675523196,0.17774514637189948,-0.06077148437439999,-0.37573242187,0.19934082031,0.02606266216699348,0.1606301202929374,1.0551762922125998,0.54897169359,1.47854405102,0.08107891430581998,0.2833162987947601,983.3909953756939,983.30149909916,983.50325875955,0.0036655320773387175,0.2017596603900529,0.06024015900182643,-0.0012408390884461628,-0.943685189544619,0.54,0.46,0.24087456241355903,Stairs up
-0.7784350585901998,-1.22204589843,-0.45092773437,0.05370407899876037,0.23057978707764645,0.5848071289019999,0.38562011718,0.84948730468,0.014567638774203511,0.12009147507821476,-0.038293457031999996,-0.36633300781,0.15625,0.020738335118529974,0.14328625812458315,0.9922715605886,0.64569914228,1.44615264908,0.05347879769465977,0.2300956534089968,983.3251909262727,983.2463394783,983.4350708059,0.003829815225504021,0.18873132759995315,0.06157529596558169,-0.0013042094617710714,-1.0367327356085363,0.54,0.46,0.28249600868008107,Stairs up
-0.7886816406221999,-1.20520019531,-0.44323730468,0.03471687866011877,0.18539069521828108,0.6462744140586,0.40637207031,0.9130859375,0.014688570113960362,0.12058890667395886,-0.036706542968199994,-0.41638183593,0.13891601562,0.01837065258949759,0.1348589858467081,1.0351272264730003,0.66888662484,1.37583059994,0.03701685270903413,0.19143323687892808,983.2624276358765,983.1474291964,983.41327905586,0.00428716136123532,0.2658498594599905,0.06514821369479723,-0.0010454922240219512,0.7152255765863087,0.42,0.58,0.7958005033872557,Stairs up
-0.7515771484333998,-1.13256835937,-0.44323730468,0.028095996042716214,0.1667784041244221,0.6457470703088,0.29565429687,0.98083496093,0.023483703810517658,0.152475790774839,-0.0162963867204,-0.29150390625,0.16174316406,0.01764048425160592,0.13215172874045145,1.003427851385,0.55912667308,1.40357414609,0.04422584889738141,0.20924528766117434,983.2101431731801,983.14392405088,983.28055846816,0.0013365118729059928,0.1366344172801064,0.03637508424975718,-2.1555085454291202e-05,-0.8897513340662457,0.5,0.5,0.06854083045367293,Stairs up
-0.7628051757769999,-1.05676269531,-0.58190917968,0.01961021727402189,0.13933454381911786,0.6464257812461999,0.39477539062,0.93579101562,0.022816947758499993,0.150295636267042,-0.0399267578124,-0.44116210937,0.09594726562,0.019376939498150267,0.1385033216322582,1.012716876516,0.70431475116,1.32953167079,0.037295721564195444,0.19215297121968603,983.1904730528619,983.13941114618,983.26660151153,0.0007953870873038457,0.12719036534997485,0.028061240464933253,0.0003794929560850394,-0.5097205057619507,0.56,0.44,0.09101778354013702,Stairs up
-0.6883276367149999,-1.04382324218,-0.37902832031,0.030359986026931,0.17336777718671278,0.7333325195274,0.38586425781,1.04187011718,0.030586436667467982,0.17401313829936318,0.020268554688,-0.244140625,0.49560546875,0.02896481689698282,0.16933744042004706,1.0358774236842,0.72466960564,1.29510889673,0.028234771988714373,0.1671897851808753,983.1993269652017,983.0860152419,983.32973714922,0.0035832217529888836,0.24372190732003673,0.05955996587859159,-0.00019091960016321324,0.17760138382299884,0.54,0.46,0.31961613643299885,Stairs up
-0.5016137695257998,-1.20825195312,-0.10119628906,0.16557928305057704,0.4048746598887997,0.0260400390634,-0.234375,0.57397460937,0.057308693388570864,0.23819237278864566,-0.7632788085889999,-1.15686035156,-0.244140625,0.05774932635548912,0.23910632173143023,1.033661343513,0.70474233054,1.43830146423,0.04471126641513273,0.21039047923083734,983.1882130225032,983.07935822267,983.31078884823,0.003372568297892028,0.23143062556005134,0.057782718998962895,-0.0012555300559191176,0.321697100397222,0.48,0.52,0.3809480952447945,Stairs up
-0.992727050777,-1.46508789062,-0.63842773437,0.040280664262029656,0.19969441058629897,0.29381591796440004,0.14282226562,0.50903320312,0.00683099838817548,0.08223556654084488,-0.3995214843699999,-0.66784667968,-0.00744628906,0.04830058213389347,0.21867230348755767,1.1322693825468,0.65425042514,1.57377240027,0.044319570865188666,0.2094668831976472,983.1753661923042,983.13115170293,983.24844093278,0.001314891203740359,0.1172892298500301,0.03607966590342759,-0.00030628573029453144,-0.9047092859202301,0.52,0.48,0.3918404791768103,Stairs up
-0.9291577148397999,-1.23522949218,-0.51489257812,0.04203960366320787,0.20400786167835736,0.283554687496,0.07141113281,0.44396972656,0.009443404481904808,0.096690074139416,-0.35471435546459995,-0.52575683593,-0.0791015625,0.01668341514431964,0.12851685100747076,1.049764475171,0.70252054511,1.32073206696,0.03539282782597164,0.18718680388241027,983.1192603269151,983.06727333909,983.1837210699,0.0012018110063897797,0.11644773081002313,0.03449337467291193,-0.0006201768545686722,-0.9430065644714225,0.5,0.5,0.25969692663222743,Stairs up
-0.9778124999969999,-1.31652832031,-0.59790039062,0.04856986623835229,0.21928102420403087,0.28630615234020007,0.17749023437,0.38977050781,0.0033588217304317473,0.05766483775341286,-0.39848876952739987,-0.58728027343,-0.11767578125,0.02371006426746766,0.15320888885698825,1.1046789319918,0.71504621296,1.47403299549,0.051968302408314085,0.2268228810861703,983.0584354625321,982.97967176133,983.130793043,0.0022820602552926527,0.15112128167004357,0.04753145961086958,-0.0009160963182839372,-1.0552832087648036,0.54,0.46,0.09373339741271743,Stairs up
-0.9263500976515999,-1.25073242187,-0.58825683593,0.0474027874553142,0.21663046780349493,0.28719726562119996,0.17749023437,0.33923339843,0.0013244947038488612,0.036211182759064535,-0.40690917968299983,-0.57836914062,-0.16345214843,0.02072086237892607,0.14322588367727676,1.0624360882095998,0.67903836263,1.38756873179,0.046631388765372976,0.21486059405512042,982.9776480118563,982.91060219426,983.04487072259,0.00164238729649264,0.13426852832992608,0.040323236768986116,-0.0005230197731061276,-1.070490295815995,0.52,0.48,-0.006516739225940445,Stairs up
-0.9167944335895999,-1.22338867187,-0.61169433593,0.04574297768286816,0.212804012899286,0.28551269530900003,0.19360351562,0.3388671875,0.001754897917206469,0.04168151794302127,-0.4116235351523999,-0.57141113281,-0.16125488281,0.01523329783571676,0.12280457995270205,1.0528598513887997,0.70648063379,1.39212840497,0.04550854785026184,0.21225800896964814,982.9059447955627,982.82571762818,983.01926333758,0.0020079327103167425,0.19354570940004123,0.04458534942347738,-0.0009389792995332659,-0.5208652419385298,0.62,0.38,0.3302989804512688,Stairs up
-0.9437499999968,-1.2724609375,-0.6025390625,0.04881757196764714,0.21983947836539885,0.30395507812120004,0.06091308593,0.61315917968,0.016824014861057585,0.1290572536219759,-0.31064697265300006,-0.52917480468,-0.10180664062,0.02388805192525972,0.1537828709772552,1.0538805605328,0.66550714765,1.48407301591,0.05810545467235256,0.23984244854826894,982.8312637856502,982.77139537324,982.91445599523,0.0018828000813963458,0.1430606219900028,0.04317374295312351,-0.0009110806190783725,-0.6388445743988331,0.52,0.48,0.603296416860119,Stairs up
-0.9574853515583999,-1.34020996093,-0.55285644531,0.053869459388079736,0.23093454655854098,0.2610937499964,0.04541015625,0.37817382812,0.005232062387960012,0.07197042284216769,-0.35224853515279997,-0.61193847656,-0.00732421875,0.029570138749568316,0.17109774213025908,1.0706800240418,0.7092321399,1.48592690104,0.05096606595107155,0.22462503264676634,982.7789163803869,982.71314218011,982.84864115073,0.001359149019856687,0.13549897062000582,0.03668184196108642,-0.0006265532942144624,-0.9850696751772059,0.56,0.44,0.25756922007246974,Stairs up
-0.8986474609339998,-1.21142578125,-0.56213378906,0.025193308965143137,0.15792838844074775,0.3073803710908,0.18225097656,0.39245605468,0.002104970788635239,0.04564998445507826,-0.42144287108979994,-0.54382324218,-0.21520996093,0.007103796685621506,0.08386154493428612,1.0441474543342,0.76109252032,1.33030434363,0.023715347928402183,0.15322595879653733,982.7186004191972,982.68931703799,982.77425330881,0.00042410047977262376,0.08493627081998056,0.020490472785538588,-0.00016546919944259743,0.22946592648625908,0.5,0.5,0.6071954716074246,Stairs up
-0.9016943359342002,-1.1533203125,-0.71118164062,0.015666797570512703,0.1245396707672201,0.31855712890300003,0.18725585937,0.39245605468,0.002766035355733921,0.05232948501730723,-0.4205273437455999,-0.5947265625,-0.14416503906,0.022689514665813353,0.14987534660228555,1.0550985461322,0.83073607454,1.32930456961,0.019043180537910796,0.13730531210602046,982.7151645754822,982.67948125378,982.76255514043,0.0005311654685912856,0.0830738866500269,0.022931502652581943,0.00015807707554968688,-0.5289987385652548,0.44,0.56,0.3892029900903231,Stairs up
-0.8820373535114,-1.09411621093,-0.72473144531,0.012700796541372138,0.1121329058571052,0.298304443356,0.18444824218,0.37219238281,0.002304834938734413,0.047768049880093165,-0.4364978027296999,-0.63122558593,-0.18237304687,0.01960666742428388,0.13932193204962756,1.0374655633444,0.80258824301,1.24592442094,0.016908184368246745,0.12937968358503693,982.710810090898,982.68510453507,982.76025294944,0.0003824738818647701,0.07514841437000541,0.019458909091881856,0.0002073441257180679,-0.3504532323974403,0.62,0.38,0.5844201437576806,Stairs up
-0.8966662597624,-1.09411621093,-0.70861816406,0.0131175182369162,0.11395763710496562,0.2889929199176,0.15710449218,0.40246582031,0.002974928104265712,0.054269501777914404,-0.3939001464809999,-0.53149414062,-0.15747070312,0.017449603253926787,0.1314348021696975,1.0308043020172,0.84926913233,1.24592442094,0.013468418784967769,0.11547179134800886,982.7116779141612,982.68582611154,982.74671798443,0.00033357314967069515,0.060891872890010745,0.018172435669826657,0.00013746358785507643,-1.0309043882744333,0.52,0.48,0.33231755463311036,Stairs up
-0.9527001953089999,-1.20861816406,-0.62158203125,0.025974038417793794,0.16035678355971053,0.2569702148394001,0.17138671875,0.3642578125,0.0024637792146629126,0.04938766467971819,-0.37728515624519987,-0.53881835937,-0.18737792968,0.01141246704144969,0.10629366101059458,1.0639576032926001,0.80413915413,1.37250385969,0.023698427074954204,0.15317128583453446,982.7031124667105,982.66145024023,982.7513241621,0.000730148615267303,0.08987392186998022,0.026885816504518326,-0.0005620442140624312,-1.0126968867159256,0.58,0.42,0.39121664886003726,Stairs up
-0.9459594726527999,-1.18688964843,-0.64514160156,0.022488907882645973,0.14921132263946832,0.24709228515280002,0.13671875,0.30688476562,0.0025661555744707657,0.0504033135689119,-0.3602783203087999,-0.53271484375,-0.12536621093,0.01694124575829578,0.12950611298588505,1.0508241093616002,0.72101700933,1.31087735325,0.023272148158085898,0.15178743912624995,982.6445907746951,982.60821979002,982.70720121859,0.0006050513337890955,0.09898142856991399,0.024474493262398807,-0.0004203520195159572,-0.19683405342087434,0.46,0.54,0.36467423372521407,Stairs up
-0.9631933593704,-1.19067382812,-0.689453125,0.022210474110743717,0.14828475771176308,0.26261230468300006,0.16271972656,0.34973144531,0.002092978833930575,0.04551976543866707,-0.36424560546479995,-0.53332519531,-0.13317871093,0.018932042850536023,0.13690406283975162,1.0730207497636,0.81825291161,1.33298249273,0.02102135618602197,0.14426067594518524,982.588349259081,982.52339097004,982.65526153365,0.001308690233966867,0.13187056360993665,0.03599449029542158,-0.0009729948408923538,-0.5568796097782385,0.5,0.5,0.09217349316845838,Stairs up
-0.9588769531222002,-1.259765625,-0.69873046875,0.028419934523020884,0.16773710137530898,0.2554370117146,0.19909667968,0.34729003906,0.001750530745082491,0.0416296221173297,-0.37605712890199994,-0.52319335937,-0.16162109375,0.012756981397974189,0.11238065484768474,1.0680496226594003,0.82102885075,1.40746865979,0.02816183648169065,0.16697370486658594,982.5017142633671,982.42970027105,982.56078060253,0.0011431409720926052,0.13108033148000686,0.03364089122439652,-0.0009753053899081756,-0.3676456023350845,0.5,0.5,-0.10664833785293194,Stairs up
-0.922075195308,-1.19592285156,-0.65319824218,0.03205448495024136,0.17814022594781603,0.27714111327859997,0.18762207031,0.35583496093,0.0016163446746630765,0.04000226528481163,-0.37829833984039996,-0.51257324218,-0.20483398437,0.009278803455681406,0.09584370308541189,1.040507512195,0.7970304244,1.30346629958,0.030306818396693087,0.17321590635021414,982.4257934746647,982.36078738479,982.5030760159,0.0013284254157542813,0.14228863110997736,0.03626487503903383,-0.0006297269659362863,-0.1597534156054632,0.46,0.54,0.2781174808147041,Stairs up
-0.9205981445261999,-1.22338867187,-0.54760742187,0.055074552219767176,0.2335033333757133,0.25410278319949997,0.11071777343,0.40148925781,0.0046403943574455705,0.06777898209527135,-0.40076538085589997,-0.60302734375,-0.11804199218,0.017754518701690362,0.13257817887825077,1.0507327715174,0.66457721733,1.39362613572,0.05291000776761828,0.22886875647397156,982.3612040388398,982.29893875202,982.43869758712,0.0013007317651565005,0.13975883509999676,0.035884877699456294,-0.0002534504533489707,-0.19146213601676676,0.54,0.46,0.3293332307622938,Stairs up
-0.9470117187452999,-1.44714355468,-0.41052246093,0.06723091749248102,0.2579895507914152,0.29262084960549994,0.09326171875,0.43041992187,0.008613031131635107,0.09234121950850961,-0.45214965819979985,-0.72705078125,-0.25610351562,0.0161034517502722,0.12626328537135995,1.101920241302,0.49276307677,1.59409794094,0.06434058450370292,0.2523829999399046,982.3360389338729,982.23861317539,982.43125342276,0.0012015348623524975,0.19264024737003638,0.03448941161761059,0.00022022195201845568,1.1621499332657441,0.54,0.46,0.38248596626601794,Stairs down
-0.8981335449185,-1.41223144531,-0.54138183593,0.061876235735891155,0.24750247145944268,0.2621765136671001,0.14587402343,0.37561035156,0.0032605593176733222,0.05681508360019009,-0.4181835937459,-0.70581054687,-0.11853027343,0.03961143924751657,0.19802859605380582,1.0462728114599,0.66623110375,1.53049153402,0.05987056855021491,0.24345813370005276,982.3858979279114,982.29507048676,982.50251446163,0.00295796453569949,0.20744397486998878,0.05411455340610782,0.0008343880808728919,-0.834735170466324,0.5,0.5,0.09338529153977293,Stairs down
-0.9152441406214001,-1.35266113281,-0.5556640625,0.05069708429179699,0.2240315010191179,0.2624792480426,0.14624023437,0.40942382812,0.0054312411145984955,0.07332754396168271,-0.46650756835569995,-0.71630859375,-0.12377929687,0.036724817769570824,0.19067660997583083,1.0795714146238002,0.5967485104,1.47666014999,0.05115825898977715,0.22504816462233007,982.4808408960478,982.4080737109,982.55542347244,0.002111711971020808,0.14734976153999924,0.045723023208342206,0.0009223255719963489,-1.2815976817345656,0.42,0.58,-0.024817425856389668,Stairs down
-0.8744311523402999,-1.20031738281,-0.50524902343,0.05248313306006055,0.2279436371769564,0.27661499023059993,0.16735839843,0.39501953125,0.0026809387902618866,0.051518243393571445,-0.45049438476209985,-0.67700195312,-0.25708007812,0.014369929491594782,0.11927376156002978,1.0316709225456,0.65814771334,1.38767866303,0.0490754066761631,0.22041926551325197,982.5711735286691,982.50517255533,982.65633754923,0.0017569218533715384,0.1511649939000108,0.041705546811399354,0.0006736189365885436,-0.44688509523504827,0.62,0.38,0.5928268930346194,Stairs down
-0.9617138671829,-1.54138183593,-0.56750488281,0.05149921429259246,0.22579686036273078,0.30881347655929997,0.10717773437,0.48059082031,0.012060859588838044,0.10927145552681937,-0.40113647460559987,-0.60424804687,-0.19555664062,0.013616442648793208,0.11610460034944901,1.0992549420743,0.73844234787,1.69102317753,0.0497102228170448,0.2218403042480657,982.6257695883801,982.58477309283,982.68419323827,0.0008620384565885575,0.09942014544003541,0.029213320112966824,-3.619596454109479e-05,-1.3142134754801478,0.58,0.42,0.28809158403419916,Stairs down
-0.8650390624961,-1.42175292968,-0.40856933593,0.10972027405347144,0.32958014399070934,0.4879870605435999,0.13159179687,1.03686523437,0.06246391633997343,0.24867504333280752,-0.4424035644493,-0.65612792968,-0.17016601562,0.0200595723424138,0.14092188126401684,1.1280602540488003,0.52633322922,1.8590720034,0.100955811196117,0.3161427732594181,982.7560148497789,982.71364726355,982.88312467461,0.0017028108218450336,0.16947741106002923,0.04105828434830885,0.000614232444835897,1.3648496054258041,0.68,0.32,1.3689359852684577,Stairs down
-0.8090161132775999,-1.42846679687,-0.38488769531,0.08764431796266182,0.2945638721619391,0.3641186523399,0.07275390625,0.58874511718,0.016521819016927532,0.12789292719598788,-0.4456091308553999,-0.84521484375,-0.1171875,0.0372522994891991,0.19204108022583896,1.0153887131442,0.48626252003,1.57469315397,0.09560300540668952,0.3076474855294979,982.8130229105872,982.74421484827,982.93687602676,0.003332193807191246,0.19266117849008424,0.05743580650708523,0.0006049563195448433,-0.6493995784442332,0.53,0.47,0.6286140234680753,Stairs down
-0.8826232910112001,-1.30786132812,-0.49353027343,0.055949588729679416,0.23535099923812225,0.2791699218716,0.14990234375,0.39111328125,0.0034677602787406944,0.05859251382176128,-0.4568127441374,-0.65197753906,-0.21997070312,0.020901168625741023,0.14384768659760785,1.0474732383185,0.58075955372,1.39237650392,0.048437120995608804,0.21898116308407148,982.9183934282206,982.81650997574,983.04452863114,0.0036768763319463818,0.22801865539997834,0.06033330397572238,0.0010273394887807476,-0.41771979847335805,0.61,0.39,0.572098437370413,Stairs down
-0.8796862792925999,-1.66442871093,-0.4765625,0.08209180166468011,0.2850804862631487,0.2993005371055,0.18359375,0.69445800781,0.008754976065049288,0.0930990134448201,-0.4615307617152997,-0.76843261718,-0.19201660156,0.02421082662204145,0.15481833985617155,1.0546916669035,0.61904467251,1.96018707308,0.078759516739008,0.2792345279001469,983.0112386877769,982.92613450874,983.12903743066,0.003060705288935626,0.2029029219199856,0.05504632808867699,0.0011790059152488514,-1.1027956907684442,0.49,0.51,0.20220779527909136,Stairs down
0.45281616210669995,-1.66442871093,0.99108886718,0.35054472914913726,0.5891004004901421,0.6012609863247,0.42529296875,0.89184570312,0.016285000261349755,0.1269730296509312,0.1347375488254,-0.76794433593,0.3583984375,0.04038354780115663,0.19994927437514012,0.9555336286167002,0.45931704213,1.96018707308,0.07556372366703544,0.2735106696828573,983.0648563879623,982.97496813025,983.12903743066,0.0012029868927902478,0.15406930041001488,0.03451024520142309,0.0003383986668849764,1.5616214839408373,0.48,0.52,-1.256738129526856,Stairs down
0.21041137695199996,-1.30798339843,1.08508300781,0.649624316582717,0.8019526628279813,0.665229492183,0.341796875,1.11315917968,0.037428014302138726,0.19249346523743951,-0.054002685548399994,-0.6728515625,0.33666992187,0.06731491374574149,0.2581506626144587,1.0819057871517,0.62413614893,1.5750418752,0.06668985331244626,0.2569493233680949,983.1397999293846,983.07570610911,983.23279118309,0.0012861577371011633,0.15708507397994254,0.03568327563061093,0.0007759822052870977,1.344802999472063,0.57,0.43,1.1086804285293135,Stairs down
-0.9767407226525,-1.31872558593,-0.64050292968,0.03763616549233476,0.19302798718686215,0.3032287597625,0.15380859375,0.46081542968,0.009448794215188292,0.09671766267355932,-0.41351196288700004,-0.72314453125,-0.13940429687,0.023266224998260143,0.15176812164706244,1.1108438635287001,0.67762572986,1.54236304067,0.0531675224279115,0.2294250361308294,983.1785174192029,983.13769631074,983.25643156313,0.0011723976893077304,0.11873525239002447,0.03406866173501174,0.00024701737567754635,-0.08095785497155017,0.57,0.43,0.8356786138248433,Stairs down
-0.9183605956988,-1.21105957031,-0.69067382812,0.026396861971793244,0.16165671452827227,0.2886279296841,0.1875,0.43432617187,0.006244001460709325,0.07862290662461056,-0.38808837890269987,-0.58813476562,-0.17846679687,0.013541008360525644,0.11578254737619305,1.0440188495579001,0.7429809846,1.33495225882,0.03338338405003213,0.18179535255207108,983.194345934883,983.15443963011,983.24756211968,0.0008887065070511077,0.09312248956996427,0.029661750487464434,0.00024383121614032438,-1.2026117828586682,0.56,0.44,0.36670714073924254,Stairs down
-0.9612524414027999,-1.44482421875,-0.63806152343,0.03472955274489277,0.18542453240454415,0.3814196777309,0.03100585937,0.74926757812,0.043351404322314484,0.2071663348111641,-0.4698803710897,-0.65649414062,-0.24658203125,0.01827128807088561,0.13449377379706748,1.1548495416581999,0.68987637245,1.58793586582,0.052511160223648816,0.22800449254655558,983.1875402196403,983.14882436677,983.23222984838,0.0005480606600697529,0.08340548161004335,0.023293347837291558,-5.816822268894669e-05,-0.7064927377667298,0.56,0.44,0.32637344188325706,Stairs down
-0.894916992184,-1.38098144531,-0.22241210937,0.08269000857758128,0.28611729848404044,0.33065917968419994,0.07995605468,0.81176757812,0.03602469482772752,0.188850331954832,-0.4201330566371999,-0.6982421875,-0.05041503906,0.045902625435051275,0.21317504352222086,1.0870995875012002,0.46491059856,1.53492413772,0.06859529666286518,0.2605942127067225,983.1969827062056,983.1396378883,983.29141419234,0.0017081942127467559,0.15177630404002684,0.04112313546678181,3.4263144050186934e-05,-0.0712028224099499,0.56,0.44,0.7009733977254734,Stairs down
-1.0211035156222001,-1.6884765625,-0.55627441406,0.0985258315789305,0.31231486237952427,0.29116943359,-0.0166015625,0.54833984375,0.02851913752572365,0.1680295990308446,-0.3820019531207998,-0.73608398437,-0.11303710937,0.02257299288324074,0.14949000954715447,1.1538609506189,0.61387475567,1.80281783351,0.09099415138006839,0.300140316962363,983.2669961774393,983.19273176303,983.40811287992,0.003099079892100063,0.21538111689005746,0.055390333932727485,0.000694100118934421,0.8975860785534433,0.52,0.48,1.059888970422784,Stairs down
-0.9125891113251999,-1.29284667968,-0.58837890625,0.041636473980424075,0.2030273608177475,0.30909912109,0.19995117187,0.4091796875,0.0024785968451108893,0.049535955392621435,-0.42313598632429994,-0.62683105468,-0.16650390625,0.015582544350556973,0.12420434335018804,1.0646076085356997,0.78639142065,1.38588740721,0.03345100461035656,0.1819793795028794,983.3562844116258,983.27397166554,983.4746039336,0.002928654836604623,0.20063226805996237,0.05384578245544006,0.0009795455598136937,-0.0883201553151749,0.52,0.48,0.6107592203734018,Stairs down
