avg_accX,min_accX,max_accX,var_accX,std_accX,avg_accY,min_accY,max_accY,var_accY,std_accY,avg_accZ,min_accZ,max_accZ,var_accZ,std_accZ,avg_magnitude,min_magnitude,max_magnitude,var_magnitude,std_magnitude,avg_pressure,min_pressure,max_pressure,var_pressure,range_pressure,std_pressure,slope_pressure,kurtosis_pressure,Pressure_below_avg,Pressure_above_avg,skew_pressure,Label
0.014582316079479166,-0.04675292968,0.07202148437,0.001082782342535809,0.032733825926723886,1.0088958740204168,0.98291015625,1.0361328125,0.0002323521595099246,0.015163503042339179,-0.14876556396072915,-0.25524902343,-0.02807617187,0.007751730339277329,0.08758414895540854,1.0242445893209375,0.9990937403,1.0382138996,0.00011132074510655207,0.010495768385958797,976.0675028210686,976.0527243626,976.08327620925,5.602688269887661e-05,0.030551846650041625,0.00744602372662282,0.00017662474517488396,-0.6402361414238902,0.62,0.38,0.272885958759252,Lift up
0.013378143308333333,-0.02478027343,0.04235839843,0.00030687971423375333,0.017426504254836033,1.0186894734664582,0.97839355468,1.07653808593,0.0004232630852437633,0.02046592521173851,-0.1332270304321875,-0.20251464843,-0.05773925781,0.0027270729538918966,0.05194868568073231,1.0289370118803125,0.99914846821,1.08572173547,0.0003703461504465563,0.01914388617930203,976.0701766057315,976.05730898275,976.07863898889,2.7847687344962888e-05,0.02133000614003322,0.005249534004885849,-5.589528736408807e-05,-0.3485886276339327,0.45,0.55,-0.22874176534380045,Lift up
-0.026883443194270832,-0.07141113281,0.04235839843,0.00125563975324593,0.03524996698555832,1.0508410135866666,1.00439453125,1.07653808593,0.0004831947762565907,0.021866904155304,-0.14392216999947918,-0.1708984375,-0.11535644531,0.00036111489557514307,0.01890379015117256,1.0617907044352084,1.01733771942,1.08572173547,0.0003857394163056213,0.01953768915163129,976.0436369603908,975.97014642628,976.06816788351,0.000766745012595439,0.09802145722994737,0.027545563805827303,-0.0008610061971119164,-0.2110079349379479,0.33,0.67,-1.103116469663625,Lift up
-0.03453940533255318,-0.04895019531,-0.00146484375,0.00010041631902843406,0.009967349713708535,1.0112590383938296,0.99731445312,1.03051757812,0.00010445599451793887,0.01016586250810552,-0.13580192403180852,-0.162109375,-0.09033203125,0.0004638733865867568,0.021422851428444245,1.0212085238854256,1.00790964442,1.03708867054,7.556180262927353e-05,0.008646268192991259,975.8707505862989,975.75604001061,975.97014642628,0.0038442911634194274,0.21410641567001676,0.061671666500224924,-0.00226263403544113,-1.2426340428888063,0.53,0.47,0.01340547615010541,Lift up
-0.010616221322340426,-0.02307128906,0.01086425781,4.477637176782706e-05,0.006655826574312034,0.9844879799664893,0.95349121093,1.03051757812,0.0005572560780162329,0.023480370990832406,-0.11590056723319152,-0.14038085937,-0.09313964843,0.00016550949339081447,0.01279643521061326,0.9914686158713829,0.96097031203,1.03471910135,0.0005170896350376615,0.022618326230590784,975.6549683069139,975.55348329885,975.75604001061,0.0040298163229703894,0.20255671176005308,0.06314226743280456,-0.002313618210409734,-1.3793104070281492,0.45,0.55,0.0370761990407098,Lift up
0.021083101310744673,-0.03063964843,0.05187988281,0.0005419823501873777,0.02315635075966274,0.9972326400389361,0.955078125,1.03686523437,0.00039896445511880936,0.01986756533661786,-0.12920493267521277,-0.19067382812,-0.08813476562,0.0014554337842918698,0.03794667898724611,1.0067667615536169,0.97337575903,1.050758709,0.0004072576846762518,0.0200729956936145,975.5185762500361,975.4943548472,975.55348329885,0.00022134215667485226,0.05912845164993996,0.014798224652992634,-0.0005110959556234076,-0.3202323768441926,0.65,0.35,0.5487596710312697,Lift up
-0.0013427734363440859,-0.03930664062,0.03771972656,0.00045890231483030236,0.02130652203757111,1.0077639343872042,0.95458984375,1.05249023437,0.0008015846881068739,0.028159643071462685,-0.1505704490060215,-0.20812988281,-0.08032226562,0.0010781782449175883,0.03265861188807799,1.0197356680087095,0.97022879695,1.05910897473,0.0007218582240402759,0.026722580482669445,975.4868059471969,975.47344739808,975.50232167692,5.974806550085734e-05,0.02887427884002136,0.00768801750672069,-0.00011921227775344424,-0.8279548794526965,0.54,0.46,0.11318188357231672,Lift up
-0.002410888671304348,-0.02038574218,0.03771972656,0.00017259265851046632,0.013065858232536578,1.0152826723807606,0.99108886718,1.04052734375,0.00021039661442522168,0.014426007580172984,-0.1390234905698913,-0.166015625,-0.11889648437,0.0001281672920586126,0.011259403595166357,1.0249125336050002,1.00243169944,1.04950955522,0.00019425863199079818,0.013861714364440388,975.4749150127807,975.46923758004,975.47978012847,1.028752840657532e-05,0.010542548429953058,0.0031899384705091544,-5.9525205216364034e-05,-1.0273999678216137,0.54,0.46,-0.0242096089548372,Lift up
-0.04767315203967031,-0.07116699218,0.0029296875,0.0005265525008699884,0.022820302575812548,1.010730114608132,0.99755859375,1.02514648437,6.508431664459409e-05,0.00802303585768968,-0.1411709628232967,-0.16748046875,-0.11328125,0.00022132275523262823,0.01479495309364848,1.0220301371832965,1.01105722871,1.03250783013,3.6156712028204095e-05,0.005979915176856579,975.478695634102,975.46762038168,975.48448656791,2.0712877484626086e-05,0.016866186230004132,0.004526064896389963,3.462546152963171e-05,0.6328002052773543,0.41,0.59,-1.0431524743232299,Lift up
-0.09499595904770115,-0.13354492187,-0.06982421875,0.00036159023918965724,0.01890592577854359,0.9987835061928733,0.98852539062,1.0078125,2.2124221252638166e-05,0.0046765286120080225,-0.17769368489287354,-0.19470214843,-0.14086914062,0.00012022765108966204,0.010901638595442565,1.0191370949158622,1.00880807302,1.02697174241,2.579809711640726e-05,0.005049907649105529,975.4719923469233,975.46429993269,975.48255028235,1.8007296935942735e-05,0.018250349659979292,0.004219042131976365,6.55226323794835e-05,0.07914279532912127,0.56,0.44,0.24709167923513664,Lift up
-0.0843505859343678,-0.10412597656,-0.06689453125,9.925663472364558e-05,0.00990533966427972,1.033069829828391,0.98803710937,1.06860351562,0.0005959347348477171,0.02427107147015223,-0.1575520833298851,-0.18127441406,-0.14086914062,0.00012511523195881215,0.011121021798573324,1.0484946782667814,1.00196871829,1.08612271657,0.0006481915202287437,0.0253128631921546,975.4750731752446,975.46679305831,975.48595126189,3.492485329594546e-05,0.019158203579991095,0.005875663213679778,2.5566516347210698e-05,-1.0520051141631879,0.56,0.44,0.3636484403974053,Lift up
-0.07533441587558137,-0.11926269531,-0.04858398437,0.00030837134852727675,0.017458110870661476,1.0235907975974419,0.9912109375,1.0654296875,0.00043705848593478697,0.020784042208313102,-0.1565395621334884,-0.18359375,-0.13537597656,0.00017090231057979643,0.012996733220708346,1.038456016122093,1.00918507073,1.0802675188,0.0004379012298342421,0.02080407063698659,975.4081193590131,975.33640332275,975.47409157729,0.001625623717517955,0.1376882545399667,0.04008392590741914,-0.0015953303682857618,-1.2768190699730257,0.47,0.53,-0.17912224183624703,Lift up
-0.11209644990447057,-0.13940429687,-0.06640625,0.0003493072814301934,0.018579499024505557,0.9987577550511764,0.99084472656,1.01000976562,2.8014600439730098e-05,0.0052616553388781595,-0.16853458179741174,-0.18981933593,-0.14501953125,0.0001552817534247828,0.0123876918458139,1.0193075928689412,1.01226509836,1.03033763812,2.523837046051682e-05,0.004994141413205975,975.220939851808,975.12374494309,975.33640332275,0.004065251744386497,0.21265837966006984,0.06338316222212384,-0.0025732140965157697,-1.15166170832007,0.54,0.46,0.10665035294901944,Lift up
-0.06645795036400001,-0.10961914062,-0.033203125,0.0007103601298703182,0.02649533830453659,1.0054184857505881,0.9755859375,1.04016113281,0.00026134440378936766,0.01607077358887203,-0.15473058363611766,-0.2177734375,-0.09436035156,0.0020173364117751225,0.04464978210724916,1.0208061608785883,0.99771245441,1.04503631678,0.0001347875719185744,0.011541309968038978,975.0120969525454,974.90557427695,975.12374494309,0.004111783636561575,0.2181706661399403,0.06374487988399975,-0.002578703196920729,-1.267427165499865,0.51,0.49,-0.10099031981887219,Lift up
-0.07974679129083331,-0.11730957031,-0.02014160156,0.0007725952516915656,0.027629652353430505,1.0137227376260713,0.9755859375,1.05224609375,0.00037374669112035517,0.019217110234108426,-0.1413196382027381,-0.19519042968,-0.06494140625,0.0013757667542348977,0.036869887151837664,1.0276446979530953,0.99415100481,1.07348402386,0.00040789388565060027,0.020075806485905408,974.7939553663044,974.68789207447,974.90557427695,0.004641011542541415,0.2176822024799776,0.06771825016293767,-0.002777928329173827,-1.27493779499301,0.5,0.5,-0.0477995962213037,Lift up
-0.05980282737654761,-0.10778808593,-0.00732421875,0.0011144225205828814,0.03318366444222274,1.002873011992976,0.98486328125,1.02709960937,0.00017037177891331202,0.01297472710503224,-0.1460687546459524,-0.1953125,-0.06042480468,0.0018840759343140235,0.04314680125925354,1.0167355786665475,1.00259228075,1.02971644961,4.720809348611945e-05,0.006829794460537554,974.5791405786049,974.45517274699,974.68789207447,0.0035334246189425485,0.23271932748002655,0.059087731722800234,-0.0024143621777118385,-0.9463576071117377,0.5,0.5,0.004724126906417252,Lift up
-0.07935011530060242,-0.09497070312,-0.06896972656,3.7774969080756655e-05,0.006108997378567939,1.0045916086167468,0.99536132812,1.02087402343,2.5022259328938097e-05,0.0049720002338068114,-0.1676407779508434,-0.1953125,-0.14782714843,0.0002525070555627977,0.01579445478265452,1.021708637495181,1.01321404468,1.03630234951,2.7467778308748356e-05,0.005209303333526581,974.3425835293663,974.22475742422,974.45517274699,0.004526831512978427,0.23041532276999988,0.06687519251761331,-0.002781390124442725,-1.1739623252279516,0.49,0.51,0.05152891565405757,Lift up
-0.070814017786747,-0.07873535156,-0.0634765625,2.1108044379250493e-05,0.004566588506921625,0.9688176534230118,0.9521484375,1.00134277343,0.00016285052132478786,0.012684181757251637,-0.153149708203494,-0.16662597656,-0.14514160156,3.053209394602285e-05,0.0054921978653774215,0.9834328085275902,0.96946340103,1.01572314301,0.0001507374803583182,0.012203334222135098,974.1271956100519,974.04367968515,974.22475742422,0.0029956193414087296,0.18107773907001956,0.05440153988734739,-0.002253588265150983,-1.1142902443754419,0.54,0.46,0.24759899805149152,Lift up
-0.06806228821253012,-0.08032226562,-0.05615234375,4.627399065683378e-05,0.006761395765455007,1.000647119725542,0.95935058593,1.01245117187,0.00015857079223773613,0.01251640127053269,-0.14904932228554219,-0.16540527343,-0.13793945312,5.534490941883823e-05,0.007394464367434728,1.0140385916591566,0.97588950046,1.02573955593,0.00012715525627185318,0.011208178497527298,974.0151967054119,973.99980612017,974.04367968515,0.00015364310985561375,0.04387356498000372,0.012320389119265853,-0.000495760980569522,-0.8178719354006896,0.49,0.51,0.5529576756841317,Lift up
-0.06672631240158537,-0.07592773437,-0.06103515625,1.7302875251038046e-05,0.004134230832602952,0.998697420442439,0.98071289062,1.00659179687,5.8982495494644235e-05,0.007633033261364698,-0.1494363924312195,-0.16174316406,-0.13830566406,2.8238667401415582e-05,0.005281504843197192,1.0120383109737807,0.99310385072,1.0206479866,6.264417473633264e-05,0.007866398247348628,973.9900513771622,973.97772190916,973.99980612017,3.623117560036797e-05,0.02208421100999658,0.005982418574079002,-0.0002136279746401052,-0.5912195235146607,0.46,0.54,-0.6806410306300391,Lift up
-0.06216543691765432,-0.06970214843,-0.04809570312,2.665921217299766e-05,0.005131285033672151,1.0076045283532098,0.99951171875,1.02258300781,3.273876177263104e-05,0.0056863502819053,-0.14219081548555557,-0.15551757812,-0.12316894531,6.0110088489595004e-05,0.007705062532627414,1.0195256846285183,1.00920329862,1.03543260592,3.55044751396279e-05,0.0059216676946661105,973.9789919122537,973.9742987707,973.98437807763,8.541132753396558e-06,0.010079306930038001,0.0029044253596918774,-6.445298295941743e-05,-0.6661235223335007,0.62,0.38,0.14363349205160839,Lift up
-0.9624535831364197,-1.32995605468,-0.11181640625,0.04267729403975613,0.2053056596064166,0.4903730227585186,0.20959472656,1.09826660156,0.06881475327688986,0.2607013395086792,0.06036150896802469,-0.20263671875,0.23937988281,0.008845212351450266,0.09346663682278948,1.1169376863607405,0.51763433475,1.63655298436,0.04224953133305974,0.20427415935648774,973.9773625360355,973.92328317001,974.05916052274,0.0018281093472659424,0.13587735272994905,0.04249164736821966,0.0005766500178461481,-0.9236022032402871,0.56,0.44,0.5397918321851956,Null 
0.801461791988125,-0.11181640625,1.10278320312,0.04775881758742072,0.21716775167500804,0.178974914548125,-0.30944824218,0.46301269531,0.018054058069871613,0.13352296560516552,-0.377943420406125,-0.54663085937,-0.20263671875,0.008117411330519917,0.08953180266747911,0.9272278956202499,0.46496864051,1.19352863316,0.0308545226029788,0.174553261414508,973.9522530092645,973.93554757481,973.98285698443,0.00012375005028347218,0.04730940961997021,0.011054554475641649,-0.00010758043425067464,1.649233625098721,0.65,0.35,1.3978215688306068,Null 
-0.781112670895,-1.35778808593,0.63049316406,0.20382440594613385,0.4486386083161002,0.44322204589562497,-0.30944824218,1.00061035156,0.08563105266789194,0.2907931644821509,0.12363433837775002,-0.21667480468,0.26013183593,0.014912092267692946,0.12134945864875865,1.0248164089020002,0.259657902,1.64964511894,0.07309622356037697,0.2686680493952942,973.9919245422341,973.89197817258,974.37684958755,0.015515737596037086,0.48487141497002995,0.12378122182337117,-0.0013464830088704407,5.2339800855028304,0.84,0.16,2.567361363887622,Null 
-0.9496154785117501,-1.0009765625,-0.89172363281,0.0006185323000092905,0.024714381365091343,0.16220092773199998,-0.07556152343,0.36767578125,0.01270287606500566,0.11200040229478236,0.30418243407775003,0.10827636718,0.49304199218,0.011740387520994766,0.10767373253018737,1.0221427078040002,0.9931235366,1.08188876787,0.0005857817810512989,0.024051185184688045,973.9762084822183,973.94781797714,974.00473257795,0.0003682075683189958,0.05691460081004607,0.019068428716467658,0.0007544362559049588,-1.7178245789869184,0.46,0.54,-0.147613610510612,Null 
-0.9698347260641773,-1.05029296875,-0.90698242187,0.001100389234300033,0.032961496577835564,0.15143363083025316,0.0732421875,0.24304199218,0.0031501306162854173,0.05576966509844933,0.25313519827556974,0.2080078125,0.31530761718,0.0008927501716218122,0.02968921582895028,1.015520487362658,0.93720479132,1.09926898085,0.0014030340420119157,0.037219270780463796,974.0102475643336,974.00024996793,974.01956505784,2.6117587769830946e-05,0.019315089910037386,0.005078088753950411,8.67045152503012e-05,-0.40393584057694465,0.61,0.39,-0.24311679823624321,Null 
-0.9739094021929113,-1.03283691406,-0.9453125,0.00043778454220885245,0.020790453716193785,0.15081555330075952,-0.05419921875,0.23986816406,0.004316169046497163,0.06528042582026929,0.265226339989114,0.12316894531,0.3251953125,0.001765865052732158,0.041755386844641675,1.0236554882136712,1.00967578746,1.05568806553,0.00015860461298033017,0.012513870690216726,974.022619079498,974.00331531657,974.04515157479,0.00010665905046921307,0.04183625821997339,0.010262014222671475,2.6690098844225306e-05,0.2233352834523461,0.58,0.42,0.2180626414245867,Null 
-0.9816815264764932,-1.04443359375,-0.94055175781,0.0011097903854502885,0.03309648808108775,0.23935134689129872,0.16528320312,0.33776855468,0.002291153879584264,0.047554165268616146,0.059215198862987026,-0.08032226562,0.25915527343,0.009400973264983703,0.09632695730220486,1.017764053562208,0.96942267597,1.09600810873,0.0013030391872756947,0.0358624678518916,974.0235500739711,974.0100380444,974.03966262229,5.082013933492775e-05,0.029624577890103865,0.007082382192834784,0.00016210015552806814,0.20467085740249358,0.55,0.45,0.10710874657341492,Null 
-0.9946883352144736,-1.04797363281,-0.90942382812,0.001247435606896248,0.03508592282511205,0.20437461451171055,-0.24548339843,0.42651367187,0.022835921790736867,0.15011811727967944,-0.059978284332631575,-0.2109375,0.07348632812,0.008248860260259252,0.0902237364846737,1.031836034454342,0.93069926272,1.10850005503,0.002019019649888283,0.04463690851597405,974.0393268642625,974.03189403802,974.05482594991,3.7147812798832256e-05,0.022931911889941148,0.0060546697505579365,3.852472661047133e-05,0.8690452470327208,0.68,0.32,1.1915373317705904,Null 
-1.0003662109326663,-1.07458496093,-0.92321777343,0.002037467586009018,0.04483638423790324,0.21773925780866668,0.08459472656,0.33178710937,0.004784097365468518,0.06870450786226188,-0.02552083333319999,-0.22839355468,0.14831542968,0.015280585970017,0.12278780405133935,1.033653486316933,0.9414571772,1.12074217118,0.0021913977383476516,0.04649923764790505,974.0419726017195,974.03014963626,974.05417205811,3.155058408814775e-05,0.024022421849963393,0.005579418395642965,-1.6982662681446617e-05,0.003722256369224297,0.55,0.45,0.29031954217445294,Null 
-0.9998361687867104,-1.05773925781,-0.90991210937,0.0015207364371444983,0.03873921459170372,0.23053942228184213,0.15270996093,0.27526855468,0.0009725635302542725,0.03098010073738133,0.04240658408539473,-0.0419921875,0.12902832031,0.003232681384988788,0.05648137837913799,1.0288857488448682,0.9292870709,1.08903612271,0.0016860481755327098,0.04079048088853336,974.0324965527201,974.02260003219,974.04547797516,3.144389173277351e-05,0.022877942970012555,0.005570471821599766,-9.491339546688822e-05,-0.06553979173471669,0.7,0.3,0.5265861381644666,Null 
-1.0187011718714667,-1.1123046875,-0.89855957031,0.002783554228515528,0.052406489790247555,0.1836621093716,-0.08972167968,0.32409667968,0.01026303431420778,0.1006289911341906,0.028033854164933335,-0.16723632812,0.16162109375,0.007192696466711984,0.0842424705665487,1.0436037687653335,0.91580351466,1.14688569279,0.0031726486483043674,0.055949501037337014,974.026895924457,974.00381723495,974.04782718831,9.43923009115254e-05,0.0440099533599323,0.00965058220520253,-1.1070704945161651e-05,1.4654051620029698,0.55,0.45,-0.25531409507330916,Null 
-0.9833121744747999,-1.03942871093,-0.91467285156,0.0010575276666972648,0.03230212528314457,0.2437548828084,0.15686035156,0.32470703125,0.002238660664241995,0.046997998418926684,-0.08821126301839999,-0.23193359375,0.03942871093,0.0055465234183302205,0.07397681915811523,1.0203938965006667,0.93215802458,1.0761237852,0.0016435208076735295,0.04026918420957332,974.0175344781925,974.00432568981,974.03731297808,0.00011303627649835077,0.032987288269964665,0.010560735113856395,-0.0001537943534951631,-1.021261378465807,0.65,0.35,0.623695655647879,Null 
-0.9877799479134666,-1.0302734375,-0.900390625,0.0007960307329087826,0.028025291966424403,0.24487467447519995,0.17211914062,0.322265625,0.0007804408643154186,0.02774950425006808,-0.10337890624813334,-0.24694824218,0.02673339843,0.00550700440571916,0.07371280540251857,1.0257908071828004,0.92998491066,1.08538731009,0.0011171751797299425,0.03320059503483148,974.0065157664739,973.99344759519,974.02511793688,8.192951219647883e-05,0.03167034168995997,0.008990946485244242,-8.862744217794223e-05,-0.5387643873797967,0.53,0.47,0.5068979357073333,Null 
-0.9837959908113513,-1.0263671875,-0.95129394531,0.00042638307603299795,0.020509050260143512,0.23597511084891895,0.18933105468,0.27954101562,0.0007492955284773008,0.027187679438076498,-0.027464170711216214,-0.11987304687,0.05053710937,0.0018328442527042652,0.04252147795088008,1.0132169416482433,0.97316828046,1.0552594153,0.0004697341544694912,0.02152641158264212,974.0068503038854,973.99876260164,974.02037298305,2.868489117112582e-05,0.021610381410027912,0.0053195166609994885,8.071075146808351e-05,0.691081584304154,0.43,0.57,0.6235852644810623,Null 
-0.9939746093716,-1.01501464843,-0.9755859375,9.710790337405872e-05,0.009788418224058026,0.23215006510013333,0.18798828125,0.27722167968,0.0006343309835931582,0.025017458646818015,-0.0300716145788,-0.06274414062,-0.01147460937,0.00025174323500710825,0.015760287387619136,1.0215378837641333,0.99509180577,1.04908404078,0.00021679445692121725,0.01462545261392849,974.012119497192,973.99893350466,974.0300222794,7.565518218154267e-05,0.031088774739941982,0.00863981749917914,-0.0003012841444206452,-0.6255960287810072,0.49,0.51,0.3844517402573456,Null 
-0.9860174005641555,-0.99719238281,-0.96105957031,7.527342967630561e-05,0.008619504200794987,0.2203908152353247,0.20202636718,0.24743652343,0.00017541783949658713,0.01315825542147937,-0.040007355921558456,-0.06384277343,-0.00476074218,0.00035164089681682524,0.01862992570900647,1.0113944347637662,0.98669157224,1.02326827797,7.985830381753959e-05,0.008878129475781505,974.020395288362,974.00658070291,974.04785622529,0.00016850209033579704,0.04127552238003318,0.012896268898416595,-0.0003779971934190425,-0.4728992740863984,0.66,0.34,0.9430361814770255,Null 
-1.0131868061232894,-1.1630859375,-0.90075683593,0.0037428136562892653,0.06077471602714567,0.29437577096657896,0.158203125,0.50122070312,0.010707059094677337,0.1027919098867631,0.055397435236710535,-0.13366699218,0.29516601562,0.012466588301972965,0.11091687989376575,1.0664767679719735,0.98483612219,1.23036334479,0.005535915931970228,0.07391261687198848,973.9995339388839,973.97567299555,974.01631783941,0.00016554305455955613,0.04064484386003642,0.01278142623001229,-0.00045292232113235316,-1.001321780484547,0.43,0.57,-0.5053427294954653,Null 
-1.0386100260374667,-1.24951171875,-0.89086914062,0.011813704940586487,0.10796383132656974,0.24044433593426662,-0.03942871093,0.41467285156,0.009712278262619925,0.09789168105165182,0.036528320311600006,-0.10095214843,0.17858886718,0.008259761509923042,0.0902753086755033,1.0746085229282667,0.90289028344,1.31663562123,0.012632135426093948,0.11164097345395206,973.9958371216418,973.97594448579,974.05088093945,0.000390072177556885,0.07493645366002966,0.01961813485501259,-0.00031730903967360364,1.2624344332975754,0.72,0.28,1.56211700050641,Null 
-0.9943847656217334,-1.09899902343,-0.81225585937,0.004960657374307374,0.06996081243084071,0.23326822916213336,0.07751464843,0.40026855468,0.008107537084718293,0.08943956948831643,0.08631998697706665,-0.34729003906,0.25500488281,0.017099026623732295,0.12988856609448937,1.0374541734982667,0.88677983346,1.1295642585,0.0041757753514735495,0.06418799223209302,973.9990544942862,973.97749430881,974.06969717241,0.0003365156246509452,0.09220286359993679,0.018221656062378064,0.0003259482003703646,4.039975727535639,0.63,0.37,1.6841959198359464,Null 
-0.7350276692665332,-1.23791503906,-0.42163085937,0.06848681274836502,0.2599493320727205,0.5631705729127999,0.22521972656,0.95275878906,0.03313226086591736,0.18080513650807914,0.2430810546857333,-0.11462402343,0.70324707031,0.0597612850403485,0.24282600335729532,1.0292351952796002,0.72323484198,1.31458930773,0.01664057560963577,0.12813548013011056,974.164468154203,973.97078692419,974.87923540582,0.04081366181093682,0.9084484816301028,0.2006725682634716,0.004167692886446166,3.9687491073777004,0.72,0.28,1.9381242429518513,Null 
-0.5891256129459574,-0.65270996093,-0.50341796875,0.0013699508662772142,0.03681544405397395,0.7451626392084043,0.64001464843,0.83520507812,0.002610765152129297,0.05082313503480693,0.3767479429817021,0.24755859375,0.51818847656,0.00347279451635801,0.05861612315603586,1.0249600098596805,0.94697932999,1.09379782572,0.00111845374653243,0.033264926009543186,973.8359098564638,973.66654577128,974.09406181078,0.011697493869298666,0.4275160395000057,0.1075781225210646,0.0007029028651284895,-0.07839018477091653,0.53,0.47,0.6490898055725395,Null 
-0.6813876751736081,-0.8125,-0.40087890625,0.009701974766753545,0.09798956275202683,0.6728603716950515,0.5302734375,0.75891113281,0.0037625625256657805,0.061022727088171615,0.326443701671134,0.22290039062,0.43969726562,0.0032362110619141835,0.056593710439198926,1.0184701620844332,0.87022589315,1.0889212009,0.002872451573470751,0.053318277078797896,973.966370934188,973.89385722364,974.04634971319,0.0019891601694333313,0.1524924895500135,0.04436950939060386,0.0013129876451262038,-1.0245123751256586,0.34,0.66,-0.3046748468093228,Null 
-0.666589495775402,-0.77026367187,-0.61096191406,0.0021232096659839867,0.04581271610786216,0.6944369612029883,0.61547851562,0.78308105468,0.001893310770973753,0.04326139824605695,0.2638991783368966,0.01379394531,0.44641113281,0.02419784671085453,0.15465998364723904,1.0114009160393103,0.92594060049,1.09130928329,0.0011990586876501155,0.03442784343934459,974.0000218752227,973.90485882791,974.1341734092,0.005513950246455872,0.22931458129005478,0.07382798594023042,-0.0015314648908944508,-0.9844845523633015,0.6,0.4,0.653517181905638,Null 
-0.6678768205018518,-0.70520019531,-0.623046875,0.00044001621409844047,0.02084667635761043,0.7563280647145679,0.72631835937,0.78405761718,0.0002674097034230996,0.016251410679071876,0.13340928819024692,0.07922363281,0.18188476562,0.0007375624030462485,0.026989936909275373,1.0184178604104939,0.99541436008,1.04245167319,0.00014361053884999939,0.011909557894169174,973.995736693465,973.96450685604,974.02084174004,0.0002506187232577832,0.05633488400007991,0.015732916606464253,0.00020576922606720636,-0.6437167595276421,0.44,0.56,-0.333104359442279,Null 
-0.7118459848213461,-0.73864746093,-0.68041992187,0.0003281721290263937,0.018028217543222494,0.7074232834991345,0.67651367187,0.73669433593,0.00035431711216935826,0.01873259770720648,0.15561852088048075,0.0986328125,0.19116210937,0.0007116740890969354,0.026548654749524784,1.01623694179875,1.00564921137,1.02676379583,3.308636270942776e-05,0.005724353640932091,974.0018033092894,973.98639434377,974.03819650934,0.000168273939230045,0.05180216556993855,0.012909528286641703,-6.853678916825427e-05,2.332620956961235,0.68,0.32,1.598766948741841,Null 
-0.7436045771019565,-0.76171875,-0.72058105468,0.00011563365163568941,0.010694707294634584,0.6925951086919564,0.65991210937,0.73767089843,0.00034079639123896433,0.018360067609857565,0.05365653659586957,-0.01550292968,0.12487792968,0.0014935674129671931,0.03843608961074703,1.018515190930217,1.00651568879,1.03609275201,7.115670969482229e-05,0.008389473594817462,974.0582703942819,973.977160142,974.16754618672,0.004215062063930226,0.19038604471995768,0.06456970010717863,0.001659930948260596,-1.4881929605085316,0.59,0.41,0.3440296366951286,Null 
-0.7495264260121686,-0.7783203125,-0.73034667968,0.00016343171916926284,0.012706795910527636,0.655242552236265,0.64111328125,0.68395996093,7.75368633117024e-05,0.008752295940817917,0.013688052991204819,-0.01428222656,0.03979492187,0.0002338034971506354,0.015198242909837009,0.995804272353012,0.97946056645,1.02418573706,0.00016491841317805493,0.012764460205766024,973.9805284343751,973.92054031412,974.16109765609,0.0048081945411572865,0.2405573419699749,0.06892216252008165,-0.0019966784933542637,1.6637652513412124,0.65,0.35,1.7054076509755813,Lift down
-0.7189180448422076,-0.74255371093,-0.70568847656,6.0253644840544935e-05,0.007711752717280677,0.6773317014985712,0.65576171875,0.69506835937,0.00020204996783757578,0.014121825033657782,0.04414347858883117,0.02783203125,0.05932617187,4.720493324155275e-05,0.006825824650582054,0.9888292245537665,0.97439802244,1.0042245338,7.963386871920587e-05,0.008865645077034353,974.0327984171915,973.94725923369,974.11420346375,0.002397647044168307,0.16694423005992576,0.048646775544401916,0.002152786029816739,-1.1140293222431175,0.49,0.51,-0.1283654141461834,Lift down
-0.7206758197952632,-0.73681640625,-0.70532226562,6.411973584998636e-05,0.007954624762684794,0.7238753469331578,0.69677734375,0.73815917968,0.000154607492066426,0.012352051771276254,0.040639776928421044,0.02099609375,0.0546875,8.374443178722437e-05,0.009090793770016533,1.0223922720943421,1.00710277554,1.03026888154,3.372407336083657e-05,0.005768911123726655,974.2275444252737,974.11420346375,974.36497870896,0.005175627995088883,0.2507752452100931,0.0714669687809162,0.0032319611851288135,-1.2381948718607076,0.58,0.42,0.23246342140198192,Lift down
-0.7200216645141746,-0.72802734375,-0.71118164062,2.404098543098018e-05,0.004879300954587315,0.7245240442929123,0.71630859375,0.73193359375,2.2429705530454177e-05,0.004712954635798072,0.043841019414368944,0.03393554687,0.05432128906,3.465554519860488e-05,0.005858249191928842,1.0224259590646605,1.01510247213,1.0291841,1.3955434550244239e-05,0.0037175186474874104,974.4728697518218,974.36497870896,974.60061623759,0.004909535281014124,0.2356375286299226,0.06972711015047386,0.0023322626945130884,-1.2509641959631153,0.5,0.5,0.08482905019276218,Lift down
-0.7362388692830106,-0.75634765625,-0.71118164062,0.00020986054896816132,0.014408469173562225,0.7527511760708601,0.71984863281,0.77197265625,0.0002325723220400835,0.015168109453182968,0.053531113486451606,0.03552246093,0.07348632812,0.0001522796929543764,0.012273641550131059,1.0543716411621502,1.01758716747,1.08071768038,0.00044108884234196356,0.020888895412732887,974.7099290334507,974.60061623759,974.81768469957,0.004344040540411172,0.21706846198003404,0.06555402678000351,0.0024328599270079018,-1.2487614209965359,0.51,0.49,-0.06570227345871461,Lift down
-0.7260081571637645,-0.75036621093,-0.71374511718,0.00014835473785589594,0.012108236370288109,0.7417437385077645,0.72229003906,0.76965332031,0.00025422901166308887,0.01585049154171918,0.06158231847011766,0.04919433593,0.07116699218,3.292468750699391e-05,0.005704150965937503,1.0397651870337647,1.01753069278,1.0766127803,0.0003872969102593544,0.019563754139249684,974.8734839471704,974.81768469957,974.90154234636,0.00058109769014096,0.08385764678996566,0.023963748595066194,0.000927382672484588,-0.4037789301328991,0.42,0.58,-0.8177872131775499,Lift down
-0.7217172475925274,-0.73986816406,-0.71142578125,5.356924146934783e-05,0.00727877520508555,0.7264981112601099,0.71887207031,0.73522949218,2.3667792697206235e-05,0.004838151203008336,0.06782280219384615,0.05700683593,0.07751464843,2.812970980150831e-05,0.005274522927372848,1.0263183355289014,1.01822293402,1.04460251107,5.066339995091182e-05,0.007078605744926792,974.9094423090693,974.90066664859,974.91899798886,1.844681143837123e-05,0.0183313402700378,0.004271311183320967,0.00014326716951624624,-0.31267598703912514,0.46,0.54,-0.30640052373601356,Lift down
-1.104059128530119,-1.37524414062,-0.78576660156,0.025585947770460957,0.15900111054375043,0.1702968052409524,0.02185058593,0.376953125,0.009360826082220733,0.09617373693727416,0.005753290085595238,-0.15014648437,0.13781738281,0.0035326156914295354,0.05908096768606656,1.1226121260365478,0.79817983907,1.39296728744,0.026054145965830066,0.1604492990370321,975.0000279326517,974.958342427,975.03495929046,0.0004971022489269378,0.07661686346000351,0.022162679553951525,0.0005920253036553284,-1.1380630218756687,0.48,0.52,0.050667993904197184,Stairs down
-0.9970739027993135,-1.42932128906,-0.62780761718,0.06734785539547179,0.25823938952715814,0.21434948490725483,0.07153320312,0.33190917968,0.00576118560627095,0.0755294869203066,-0.030615713080980395,-0.16674804687,0.08605957031,0.005911845983031256,0.0765106966945656,1.0297358398834315,0.63291601817,1.44950095356,0.06452593134916071,0.25277128828067263,975.044465611451,975.01386406731,975.13357562574,0.0006854026804562603,0.11971155843002634,0.0260515459490246,0.0006182145034739591,1.8351898930763015,0.63,0.37,1.204520399159099,Stairs down
-1.001216634111222,-1.4580078125,-0.59582519531,0.08101258835483204,0.2830414253854421,0.16593017577722222,-0.01428222656,0.29821777343,0.003719358447465743,0.06064678262277317,-0.06300048827966666,-0.21325683593,0.0830078125,0.007494801567019783,0.08609022008365931,1.0234434734756666,0.61709568692,1.46797455953,0.07857515375938162,0.2787509578376162,975.1159779842443,975.07406943233,975.15783575952,0.0005970987949193463,0.08376632719000554,0.024299472501778444,0.0006482369735796645,-0.8752689482944604,0.5,0.5,-0.028371838961986626,Stairs down
-1.044143304587683,-1.40161132812,-0.67138671875,0.061488355250734934,0.246451815290276,0.18179693454268292,0.06433105468,0.32202148437,0.003800617792893739,0.06127208822473268,-0.06445014767365854,-0.23718261718,0.12561035156,0.010489849018911236,0.1017935362922211,1.06978845514561,0.70068163721,1.41910782557,0.05918288549792159,0.24178739212756603,975.1899297374883,975.15266956105,975.22976161413,0.0004893711936399167,0.07709205308003675,0.021986433368194672,0.0008325969056642543,-1.2300296982764993,0.51,0.49,-0.009212223513249528,Stairs down
-1.0107861328082999,-1.46484375,-0.65905761718,0.05700249669601019,0.23755519722592913,0.1569287109342,0.01623535156,0.30114746093,0.004134601812137038,0.0639785572986424,-0.06494018554519998,-0.29638671875,0.1201171875,0.014456372818773542,0.11963197352959537,1.0353194925310003,0.68921134102,1.46712786296,0.05402377706052713,0.23126508445920205,975.2712577781634,975.21918608033,975.3147197749,0.0006408009151728004,0.09553369457000827,0.025187157561365917,0.0007539997339491307,-1.0712043637024569,0.55,0.45,0.34485490728193574,Stairs down
-0.999867540721383,-1.36730957031,-0.62963867187,0.03544014585243044,0.18725149672088898,0.1967007251459575,0.06481933593,0.3291015625,0.0042270774431652355,0.06466922401108113,-0.01808198969287234,-0.19677734375,0.14440917968,0.009495288528470085,0.0969240672935283,1.025737720338511,0.6468623805,1.39873430629,0.035633952668017964,0.18776279734059861,975.3323027898592,975.29668892818,975.37170746695,0.0005638873097241413,0.07501853877010944,0.023619663599570236,0.0007853271803099329,-0.887742389861871,0.51,0.49,0.005288805307162415,Stairs down
-1.0318187040399998,-1.44873046875,-0.64807128906,0.06882311246030134,0.26079384345551143,0.17129049861776474,0.02941894531,0.36145019531,0.0046910995152322586,0.06808751801300075,-0.0599738625895294,-0.26135253906,0.11083984375,0.01026443570238044,0.10071582614114633,1.0548087646130588,0.66564010146,1.4569482703,0.06856527402384567,0.26030486691802784,975.3854880496872,975.34589954278,975.43507100696,0.0009215464158384425,0.0891714641800263,0.030177884175322276,0.0008598070823111231,-1.10007250590602,0.59,0.41,0.43370947901978024,Stairs down
-1.0769899046224674,-1.45251464843,-0.6552734375,0.03519647923891543,0.18638503723728067,0.17745694246792204,-0.00549316406,0.40197753906,0.008552566027977476,0.09187760195988925,0.002447747565714286,-0.22607421875,0.1279296875,0.006803284701165449,0.08194467862159853,1.0981926920902598,0.66830321075,1.46185932044,0.03573694598192263,0.18781062217121594,975.4453850155222,975.40376655129,975.50844241821,0.0008968362716221465,0.10467586692004716,0.029752126769617082,0.0005446986125782687,-0.35418093344001145,0.57,0.43,0.4986484817509459,Stairs down
-0.7961837768515,-0.81494140625,-0.78430175781,8.158251597330856e-05,0.008975674599919619,0.632049560542875,0.60009765625,0.66174316406,0.00027498885800005945,0.016478819656609474,-0.0887069702105,-0.12963867187,-0.05212402343,0.0008741253515616562,0.029380244802709447,1.020953191824375,1.00010476457,1.04674507872,0.0001357703205632777,0.011578997864937912,975.502650155493,975.21496432087,975.78110731891,0.027088328918328738,0.5661429980400499,0.1635534310457889,-0.005048278145654847,-1.0714672576080966,0.51,0.49,0.04741522802371851,Lift up
-0.7786993729402629,-0.80065917968,-0.75988769531,9.253326213276108e-05,0.009555925868797936,0.6607023540252631,0.61376953125,0.71398925781,0.0007755329106986033,0.02766457175332151,-0.03859831157513157,-0.14501953125,0.03466796875,0.004699764259156057,0.06810231461372006,1.0244205115892104,0.99545881941,1.07277170686,0.00045329301221070327,0.021150144927897983,975.3583221206268,975.20030168194,975.5495348135,0.008473156773392528,0.3492331315600268,0.09144215586084717,0.000963769279432526,-0.311566351192023,0.61,0.39,0.28608270031573035,Lift up
-0.8151613745308911,-0.83666992187,-0.79760742187,0.00016881645316938214,0.012928457105857686,0.6885249071753465,0.62573242187,0.72106933593,0.001006648564102955,0.03157026681288248,-0.03744053604534654,-0.13513183593,0.01965332031,0.0023272160695917378,0.04800181586490717,1.0691029968093069,1.03473235033,1.10047291917,0.0004476232701565161,0.021052110502052045,975.49854783285,975.27242219916,975.90901278861,0.0313766486266411,0.636590589449952,0.1762554644237977,0.0020514367941143665,-0.3227145116658674,0.67,0.33,0.8871233657500162,Lift up
-0.7850783327760638,-0.7958984375,-0.77185058593,5.699673363198208e-05,0.007509353194640309,0.6431313372640425,0.62194824218,0.66687011718,0.0001912939619535584,0.013757140684208921,-0.1039701421168085,-0.146484375,-0.07800292968,0.0003512208193864427,0.018640934195765037,1.0205049695393615,1.01031120805,1.03335100785,4.294572109043769e-05,0.006518347314859431,975.280165690396,975.1160964975,975.36412322918,0.006177807364340029,0.2480267316799427,0.07817983121880119,-0.002476189483007799,-0.9314806881383233,0.43,0.57,-0.6388242823275817,Lift up
-0.7769789751798822,-0.78625488281,-0.76281738281,3.6290179434754944e-05,0.005988592167386859,0.6512709673676469,0.61901855468,0.66528320312,0.00014101681758235898,0.01180499030914626,-0.11679543887435292,-0.15747070312,-0.08630371093,0.00037140970220004204,0.01915829262465229,1.020772749298235,1.00633692099,1.03702554884,5.730502975182647e-05,0.007525347362827629,975.0533579968212,974.88891399993,975.24027441826,0.01294764128152512,0.35136041833004583,0.11311638294242689,-0.0037576363666697032,-1.1602444149612976,0.34,0.66,-0.06999889562158565,Lift up
-0.7975547096917045,-0.82958984375,-0.76550292968,0.0004914950349462254,0.022043363266402063,0.6146032159938636,0.57653808593,0.65209960937,0.00047289270830890224,0.02162218600263777,-0.1488328413494318,-0.193359375,-0.10888671875,0.0005548716256900501,0.02342149154744865,1.0185329333598863,1.00258331111,1.03613081346,7.535778155928711e-05,0.008631421848830992,975.0052089883935,974.84636556885,975.32232203079,0.025088872575459303,0.47595646193997254,0.15749213234551804,-0.0008164887905922916,-0.4947648506748994,0.75,0.25,1.0453247056027768,Lift up
-0.8056159741903031,-0.83850097656,-0.69665527343,0.0012103111823863852,0.034613376271432045,0.615086410981212,0.57849121093,0.73889160156,0.0011552411904018718,0.03381674270932254,-0.14454358033151515,-0.25695800781,0.03125,0.0032218604960122374,0.0564740334188906,1.0264339548736363,0.99351948217,1.05621150781,0.00020764552948476098,0.014336948765131507,974.5456342438073,974.21340005289,974.96633573545,0.056783921375495636,0.7529356825599507,0.2370872126710059,-0.007346966964269181,-1.1921871903836592,0.58,0.42,0.40234424894942056,Lift up
-0.7815764352142696,-0.82739257812,-0.72326660156,0.001116834166102551,0.03323079095668679,0.6538483694661797,0.59143066406,0.73889160156,0.001419135377902192,0.03745917826884952,0.09127704748561799,0.013671875,0.19116210937,0.0019354486762888105,0.043745880514037966,1.0252064795695506,1.0005861442,1.04922081612,8.471742947788192e-05,0.00915235206096189,974.3756124443623,974.28345006621,974.526049848,0.005464501602530761,0.242599781789977,0.07350580050662875,-0.0016890184720825944,-1.260393829984592,0.43,0.57,0.1614383448033667,Lift up
-0.7667537736270369,-0.77783203125,-0.75549316406,3.908557103745505e-05,0.006213133921252011,0.6641212745903704,0.65258789062,0.68273925781,5.429465738605499e-05,0.007322865079590192,0.1092273099893827,0.09631347656,0.1201171875,3.4670053445717136e-05,0.00585166882987541,1.0203007892306173,1.01375164239,1.02858347482,1.1938279442227773e-05,0.0034337870167315773,974.1927166808653,974.10330924468,974.28345006621,0.002711367533721837,0.1801408215300171,0.05174837060687043,-0.0022033937730299735,-1.0420738035678345,0.49,0.51,-0.04265880053500175,Lift up
-0.7609796209601097,-0.78442382812,-0.70349121093,0.00021571098522824941,0.014606181391490584,0.6683913010767033,0.65209960937,0.71801757812,0.00020809812932610352,0.01434612619128057,0.09012008499000002,0.05712890625,0.10925292968,0.0002301096369993763,0.015085786677190979,1.0171238903037363,1.00815781879,1.04873239801,6.498330036767409e-05,0.008016807230177829,973.9870668649123,973.87131062697,974.10330924468,0.004472168920772113,0.23199861771001906,0.06650582085319326,-0.002493995985258828,-1.2077187423211018,0.56,0.44,0.1656229686801654,Lift up
-0.6960262376392858,-0.7431640625,-0.66870117187,0.0004623591752749585,0.021392550677907643,0.7229527064696939,0.62561035156,0.775390625,0.0023006981180496377,0.047720243153623686,0.03738839285561225,-0.01867675781,0.17248535156,0.0026840696628227007,0.051543003374614586,1.0065994291804081,0.94394986802,1.05604105383,0.0006296156173384284,0.024963793144911168,973.7864782332837,973.69285217715,973.87131062697,0.0026991429155942227,0.17845844981991377,0.05168752887249788,-0.001767666600893296,-1.0302749812886824,0.46,0.54,-0.18476283228580115,Lift up
-0.7383741898930682,-0.75366210937,-0.72021484375,8.082321124284628e-05,0.00893894656324453,0.6350028298073863,0.58898925781,0.68212890625,0.0008884580511992039,0.029637171541512377,0.1379214200065909,0.09753417968,0.181640625,0.0006248178632397046,0.024853926455358,0.9840767637065909,0.9576582509,1.01756278555,0.00037428941280919165,0.01923632303812943,973.6100028866866,973.55678160276,973.69285217715,0.0017271048220581856,0.13607057439003256,0.04132164845330391,-0.001536047539325215,-1.1707865832063147,0.45,0.55,0.18990696957671807,Lift up
-0.728822326657,-0.74267578125,-0.7099609375,7.594235099427801e-05,0.008659854017640802,0.69891052245775,0.67602539062,0.71789550781,0.00011473176413149541,0.010644135337351349,0.13930053710600002,0.1220703125,0.16723632812,0.00016998267622154295,0.012955998331613571,1.01945958271325,0.99308044321,1.03362014805,0.00012237940893666116,0.010993164527330285,973.5704884419399,973.55510331978,973.59301556429,9.79731807321519e-05,0.03791224451003927,0.009836082348831775,3.114701716520081e-05,0.43816742024215083,0.56,0.44,0.8191961847791019,Lift up
-0.7162493715151484,-0.73986816406,-0.69775390625,0.00015481967147593027,0.012380904790907452,0.7283730081946533,0.67590332031,0.76794433593,0.0004486862031583201,0.021077091011410642,0.0668909053951485,0.00866699218,0.13330078125,0.0016037143634912738,0.039847659949571776,1.0248642186049501,1.00187318419,1.03902316198,7.530723624536403e-05,0.008634907066373956,973.5365550861079,973.47513736815,973.61457858381,0.0020180097770858135,0.13944121566009926,0.04469932306269505,-0.0011068654060817692,-1.2313594213184311,0.58,0.42,0.37654286080923266,Lift up
-0.9736056857599998,-1.00427246093,-0.9462890625,0.00012993604202826302,0.011335444774156371,0.24678683810399996,0.21667480468,0.2685546875,0.00016583680701372534,0.012806021077004518,-0.15941840277466668,-0.19201660156,-0.12744140625,0.00030318870676941087,0.0173153095080874,1.0171874959492222,0.98778391752,1.04333543225,0.00014956832988899743,0.012161679964416817,973.5562743333243,973.54107895988,973.56687356977,4.731151605043641e-05,0.025794609889999265,0.006840016998426604,-0.00012208152625720325,-0.13764409604018235,0.41,0.59,-0.4257439616991318,Lift down
-0.9755203247038751,-0.98962402343,-0.96337890625,4.3789775967528375e-05,0.00657589566279258,0.23858795165712499,0.21508789062,0.26000976562,0.00016613700486002808,0.01280860227734774,-0.16473693847162502,-0.20190429687,-0.14013671875,0.0002875791980237962,0.016851838417469435,1.01792144666,1.00504669395,1.02751673123,2.9963613108851202e-05,0.005439583434877211,973.5594816550129,973.54953749283,973.57465807598,3.4508028811993294e-05,0.025120583149941922,0.005837523314886492,3.942596248584784e-05,-0.17355794925363988,0.51,0.49,0.42267500244302275,Lift down
-0.9391915457545453,-0.98352050781,-0.92370605468,0.00033664300031069176,0.018228302534620985,0.22496924461961038,0.20947265625,0.2392578125,5.990929357622908e-05,0.007689684701111732,-0.1387812626781818,-0.15710449218,-0.11743164062,0.00011644809827266468,0.0107208108512409,0.9757427448857146,0.95778760022,1.02173143976,0.00038965380596282405,0.019611052162603258,973.5568154210504,973.54784731329,973.57330465646,5.8913871274835465e-05,0.025457343169932756,0.0076255331658497145,0.0002848381105122552,-0.6822900300172638,0.64,0.36,0.7343339417332884,Lift down
-0.9741936107635644,-0.99145507812,-0.93774414062,0.00018996959275173564,0.013714543583174315,0.230971534649703,0.2109375,0.24536132812,0.00010030367586111904,0.00996546888809171,-0.11594745900079208,-0.14282226562,-0.08337402343,0.00023042849679600938,0.01510453662085343,1.008030110082376,0.96658739074,1.02303329522,0.0002380547682239229,0.015352452257561842,973.6582268932792,973.57330465646,973.74901955518,0.003090964836632533,0.17571489872000257,0.055320531671239806,0.0018872279127695292,-1.2551657424363578,0.53,0.47,0.16966119737501154,Lift down
-0.9870221427277529,-1.0107421875,-0.97058105468,0.00010641887633533878,0.010257834012290594,0.21692580319101123,0.20239257812,0.23315429687,7.342931884425217e-05,0.008520813946913303,-0.08801818161573033,-0.12573242187,-0.05822753906,0.0002714669535383105,0.01638342952647937,1.0145633083407868,0.99787392956,1.04194028201,0.0001256641367960356,0.011146846199837052,973.8651806793782,973.76345844782,973.96771104459,0.003897156951906358,0.20425259677006125,0.062075507823519734,0.002404722230406894,-1.1034470660861768,0.49,0.51,-0.07126645640686118,Lift down
-0.973430354417439,-0.9873046875,-0.95874023437,5.7000517680014385e-05,0.00750369171912226,0.24881204744292687,0.21862792968,0.26611328125,0.00017653499447567398,0.013205382565052225,-0.13739758002695124,-0.18615722656,-0.07287597656,0.0013426733964770853,0.03641839275237705,1.0148084134404876,1.00274262731,1.03434592145,7.39576307520937e-05,0.008547263212622426,974.0866889220566,973.96771104459,974.18125844189,0.004094263092038297,0.21354739729997618,0.0635950709908442,0.0026492079966904626,-1.1259656548076433,0.38,0.62,-0.2998690792572478,Lift down
-1.0138801906388044,-1.03881835937,-0.95825195312,0.00046689056371799933,0.021489896842150778,0.24358998173923918,0.23376464843,0.25109863281,2.9195957974527823e-05,0.005373882265665994,-0.13429326596108696,-0.15612792968,-0.10705566406,0.00012844906317415004,0.011271773494214023,1.0514220702766308,0.99584856942,1.07816124592,0.0004581587299484249,0.02128799529672377,974.3030143986747,974.18444744169,974.39943572152,0.004217504338001727,0.21498827982998137,0.06458840375442938,0.002414589539430851,-1.0394542122988852,0.51,0.49,-0.18531426792793204,Lift down
-0.989713628238936,-1.03186035156,-0.97265625,0.00027908919177046637,0.01661686365760583,0.2315608897069149,0.21813964843,0.24609375,4.99238144454271e-05,0.00702799473793437,-0.13148920586478724,-0.1484375,-0.11254882812,7.533011358552887e-05,0.008633002339768521,1.0249447787739363,1.00379234439,1.07076680503,0.0003347257943490783,0.01819793619186629,974.438596424832,974.39943572152,974.4595630216,0.0002923242881701561,0.06012730008001199,0.01700630633962831,0.0005954350839751655,-0.7486397140972789,0.41,0.59,-0.7001147788076857,Lift down
-0.977942612588,-0.99987792968,-0.96411132812,8.851184147018243e-05,0.009352567866002378,0.23103745403988232,0.21813964843,0.24743652343,4.635203202098848e-05,0.0067680657500656825,-0.12852711396694122,-0.16357421875,-0.1005859375,0.00028757326075353655,0.01685793717870434,1.0132220922949418,0.99672542065,1.03395363387,6.85430681925779e-05,0.008230229593092659,974.4777736810407,974.4595630216,974.49134569361,7.80767270572449e-05,0.03178267200996743,0.008783972753097523,0.00010145374924279546,-0.7293602752155057,0.44,0.56,-0.4182089187831066,Lift down
-0.9782558343315384,-0.98876953125,-0.9677734375,2.7672562881622567e-05,0.005226641984527186,0.22721667167115372,0.21362304687,0.24108886718,7.507165312677781e-05,0.00860866981800376,-0.13046342898141025,-0.15808105468,-0.10168457031,0.00031482135548325954,0.01762910049489523,1.0129346499469232,1.00544612506,1.0178515896,8.313272633087243e-06,0.0028647324857156084,974.4730376520303,974.46560011947,974.48558477862,2.811820174158213e-05,0.01998465915005454,0.005268558813913385,7.869578258284022e-05,0.16684512419385866,0.54,0.46,0.7308935815267277,Lift down
-1.0740678765767417,-1.28198242187,-0.90319824218,0.01153582369152168,0.10679984875919876,0.14635681837786518,-0.03698730468,0.34680175781,0.009562439169820686,0.09723680390202635,0.019551823648314606,-0.11572265625,0.23474121093,0.011454624965155787,0.10642331189106033,1.0932043983257305,0.91155238165,1.29814200958,0.012657887561808868,0.11187342895459228,974.3766311748955,974.34576647637,974.40765554497,0.000440054528771042,0.061889068599953134,0.020859292793944433,-0.0003783873022819337,-1.2669156693136157,0.48,0.52,0.04432710230554415,Stairs up
-1.1704027129336585,-1.34729003906,-0.96215820312,0.011489843272752435,0.10653507982275519,0.17735327743463414,0.07751464843,0.33471679687,0.0073150975433096364,0.08500522946668582,0.03081977658085365,-0.10302734375,0.15295410156,0.008818113592000984,0.09333046459418716,1.1904523408499998,0.97564645909,1.36205808533,0.01250850893584339,0.11115739356400393,974.3156373204633,974.25853048218,974.38184398399,0.0011548472452760745,0.12331350181000289,0.033775194185746774,-0.001032381523126269,-0.49098041087945976,0.43,0.57,-0.10019190857963502,Stairs up
-1.0831285559576087,-1.32189941406,-0.86462402343,0.019892044609103696,0.14027054834468206,0.1651850161301087,0.02075195312,0.38842773437,0.010450570216383315,0.10167092535163338,0.004446278446956522,-0.14916992187,0.18933105468,0.010815865794238296,0.10343259658156741,1.105493753614565,0.88693041522,1.33149800855,0.019277532622476633,0.13808690822958647,974.2507580744524,974.19358802476,974.31707192584,0.0010465345171807878,0.1234839010800215,0.03217388913379979,-0.0007972632538542557,-0.18818104912299605,0.5,0.5,0.41818806350765303,Stairs up
-1.0758634868373684,-1.24438476562,-0.92797851562,0.009523232199657129,0.09707207451263754,0.1506437602756842,0.02429199218,0.26062011718,0.0037316347823345515,0.06076474649173412,-0.0017411081403157895,-0.13989257812,0.21166992187,0.015084263875070668,0.12216989052164172,1.0949320386431576,0.95538323644,1.26919821845,0.009442869876922723,0.09666163275384565,974.1837451314518,974.14531953436,974.25099903237,0.0008762426092835825,0.10567949800997667,0.02944518641255428,-0.0006916724664769801,0.1375486795012839,0.46,0.54,0.8472597173392756,Stairs up
-1.0907450831179069,-1.37854003906,-0.77331542968,0.04008469061607345,0.19904418997398082,0.18129996365918608,-0.03369140625,0.40307617187,0.012125760357465824,0.1094749429961346,0.013346827308023257,-0.15185546875,0.24609375,0.011313795555390064,0.10574611006140172,1.113702979872558,0.7823256431,1.43905156822,0.0431348389637774,0.206478258102033,974.1241536640636,974.05796614411,974.25171755005,0.0024896534917117274,0.19375140594002005,0.0496054838954906,-0.000843749044544054,1.1605710264126854,0.66,0.34,1.3672577086966813,Stairs up
-1.102791028140128,-1.32421875,-0.89575195312,0.013689208084758,0.11624846414901442,0.10983824118423079,-0.15319824218,0.32238769531,0.016278336325606768,0.12676608263272832,0.006748297276153846,-0.21594238281,0.24609375,0.019447462858733215,0.13855733979774,1.1242494301212822,0.91300702085,1.34293855518,0.013272896234246242,0.11446716078382373,974.0566705604957,974.02014629374,974.14024920757,0.0009891776539579771,0.12010291383001004,0.03124893420844372,-0.0008985402679022491,-0.0386064244684059,0.47,0.53,0.7563997260047444,Stairs up
-1.0561721389317567,-1.26232910156,-0.79528808593,0.014329870280673283,0.11889585099989196,0.14852492873378378,0.03564453125,0.26721191406,0.0028700695952652354,0.053209819310019224,0.016916635873783784,-0.16784667968,0.13427734375,0.008981186643667564,0.09412661290299877,1.072273953871892,0.81369446106,1.26733881097,0.014091738338234107,0.11790381436480961,973.9967772024557,973.95779106657,974.03338530072,0.00038021298269491405,0.0755942341500031,0.019366852336279456,-0.0003651266036750062,0.2099406714578138,0.55,0.45,0.23773883005250745,Stairs up
-1.1205413510063638,-1.32727050781,-0.8740234375,0.015572286182444587,0.12415711966061348,0.22631342723797981,-0.02075195312,0.54138183593,0.019222862841639054,0.1379445269298689,0.010276100852626263,-0.32800292968,0.22033691406,0.018164968417886326,0.13409505542119265,1.1587376779673735,0.94226385759,1.34836083389,0.016858735589304126,0.12918376574022877,973.9826113798371,973.95012666059,974.02045585899,0.0005908249057536576,0.0703291984000316,0.02418381643605309,-0.00014888185389452677,-1.5092202723596628,0.59,0.41,0.28244931033880216,Stairs up
-1.09450365149,-1.38598632812,-0.49865722656,0.03584080037451856,0.18828496078392515,0.20209403659695654,-0.30908203125,0.70886230468,0.04178030915332764,0.20328840438692702,0.0939012610376087,-0.1767578125,0.26611328125,0.016763787141172593,0.1287694531461214,1.1500996314919563,0.88919950478,1.41753068047,0.018427803313018756,0.13500926302700358,973.9728002304337,973.94660073081,974.04382004931,0.0005344735736039777,0.09721931850003784,0.02299269619332881,0.0002936110370295975,4.117824864140645,0.64,0.36,2.0661930266577304,Stairs up
-1.088567159259759,-1.35546875,-0.49865722656,0.045346256182503965,0.21165990585505368,0.2924598785744579,-0.07861328125,0.76513671875,0.06952080160331234,0.2620748015052102,0.15667062782072289,-0.07360839843,0.40905761718,0.018898049233870274,0.13663953268985943,1.1849036017453012,0.89400296666,1.47482496795,0.02349695606484725,0.15236095368776173,973.985065342082,973.93612148218,974.08437876836,0.0015923008914993247,0.14825728617995537,0.03966253324497783,0.0003002523161646381,0.9577556358498476,0.67,0.33,1.2859757851351918,Stairs up
-1.2064354306139287,-1.40063476562,-0.931640625,0.015802309600832055,0.12495673998423941,0.14895193917273808,-0.18017578125,0.48181152343,0.03182782432754855,0.17733843818242703,0.0325811476927381,-0.24194335937,0.27844238281,0.028337187657707003,0.16733152776925048,1.2393829160798808,0.94159156906,1.45064614734,0.017941181137138988,0.13314501735855963,973.9638593547232,973.92656851228,974.05298013519,0.0009728874676053995,0.12641162290992725,0.031004926607612383,0.0003098484771829717,1.5418586144745294,0.62,0.38,1.2891692777203145,Stairs up
-1.172482885491515,-1.34106445312,-0.95568847656,0.012250053024794035,0.11011954919746395,0.14880001183353536,-0.1005859375,0.44580078125,0.014072703297572101,0.11802777122107663,0.049569178107575766,-0.2216796875,0.20483398437,0.01704844201423693,0.12990856603490256,1.1951711726369698,0.97506986606,1.37836726734,0.013954592714407457,0.11753143082785875,973.9622909993889,973.92476573664,974.02740111682,0.0011588332554650872,0.10263538018000418,0.033869276181315834,-0.00013613883261399362,-0.8579488805313877,0.68,0.32,0.7126133416537394,Stairs up
-1.0667225230786364,-1.31884765625,-0.83227539062,0.022152204498869253,0.14798809040693509,0.2015630548618182,0.04504394531,0.32934570312,0.007782975887163003,0.08771848710137636,-0.00632684881,-0.19506835937,0.21484375,0.013145403690784234,0.11400010571656922,1.0945971561906818,0.8474127512,1.35990941296,0.02327724715994959,0.15169948248981416,973.9242191265927,973.88473532119,973.98216836964,0.0007601949912840159,0.09743304845005696,0.027414529210577493,-0.000595487721160899,-0.5672299646624848,0.56,0.44,0.6347408079380947,Stairs up
-1.02339172362875,-1.21948242187,-0.86669921875,0.011933119001066191,0.10855392675326335,0.168240356441625,0.00573730468,0.29248046875,0.005237170780386905,0.07191457533512986,-0.0301300048815,-0.23718261718,0.21484375,0.017326128170838926,0.1308034845434304,1.048528456032375,0.89827999724,1.23948731638,0.011338272748101192,0.10581372471825158,973.8841584860236,973.83819993341,973.93581232575,0.0006322354052787558,0.09761239234001096,0.024986645687502182,-0.00047968073329522734,-0.6370506339243001,0.47,0.53,0.04200295949456839,Stairs up
-1.1209179687472,-1.43322753906,-0.88842773437,0.02429968410256567,0.1548408483396144,0.15931640624679996,-0.05285644531,0.35998535156,0.011743970400240656,0.10764471249549347,0.02868001302093333,-0.12365722656,0.1689453125,0.009044960097714595,0.09446883417162015,1.1413436259156,0.92466050729,1.44311534795,0.024814372053316096,0.15647208619837558,973.839088901552,973.77664526632,973.90436895162,0.0010172168765046222,0.12772368529999767,0.03168049849383519,-0.000716425967458985,-0.09862635466054304,0.6,0.4,0.5929755317232742,Stairs up
-1.1132401176076085,-1.38366699218,-0.91613769531,0.01716347031453324,0.13029547518848328,0.13877271569000002,-0.00891113281,0.32568359375,0.007766325922118039,0.08764650213219043,0.01898724099869565,-0.15258789062,0.23217773437,0.014924401572312897,0.12149971117699047,1.1320775879694562,0.94493998131,1.39218680941,0.016927268264146648,0.12939581221120422,973.7670730092407,973.72814426782,973.83563484721,0.0009123157829546221,0.10749057939005979,0.030039961835077976,-0.0004199666089425072,-0.7898466499873815,0.46,0.54,0.28613220192939387,Stairs up
-1.0883490379784042,-1.28271484375,-0.83227539062,0.021306947253859305,0.14519048729934927,0.17079324924840425,0.00964355468,0.42309570312,0.007377512865549511,0.08543435307959422,0.0549212516619149,-0.13049316406,0.25952148437,0.013917832495501494,0.1173446651862666,1.1126245451353192,0.86066784279,1.34177549142,0.021130800388813608,0.1445890889382613,973.7071934599678,973.66978633146,973.75058245695,0.0005921580477580859,0.08079612548999648,0.024204513919071618,-0.0006255085173988663,-0.9782436732412796,0.56,0.44,0.30525399578918777,Stairs up
-1.069716342655465,-1.49548339843,-0.7431640625,0.05263696432730428,0.2280896898208426,0.11533941224430232,-0.20715332031,0.41967773437,0.02089999989942575,0.14372535143384157,-0.025218874907441867,-0.16357421875,0.12524414062,0.00511587766232103,0.07110830269918667,1.0883281368623252,0.77567654005,1.50721385911,0.05211839372152914,0.2269633580284665,973.6737359208536,973.63104403643,973.72527499514,0.0007038556672285312,0.09423095870999987,0.026375581491313964,-0.0007004218878304416,-0.8414334100877974,0.48,0.52,0.1485413979457113,Stairs up
-1.0433627744230378,-1.38684082031,-0.68591308593,0.040254375854369334,0.19936104632781607,0.22455065763088614,0.01623535156,0.4150390625,0.00914260816159407,0.09500988866617359,0.07924062994303797,-0.42248535156,0.35571289062,0.0501029188551686,0.22241561251954625,1.098700357292152,0.74628587815,1.42874016669,0.036872631816525864,0.19080327471412312,973.6375085755105,973.53659517632,973.75781067855,0.0025164967811051116,0.22121550222993847,0.04984618733133829,-0.0002859671863248826,-0.1954235063739751,0.49,0.51,0.18229562204539115,Stairs up
-0.9294470214806999,-1.26293945312,-0.55041503906,0.03538636350070768,0.1871697087290051,0.19832275390240006,0.01391601562,0.44934082031,0.010550296132051194,0.10219977089372892,0.06675781249710001,-0.34814453125,0.35571289062,0.03212198503012612,0.17832769044605737,0.9780078392309997,0.61700328057,1.34573100688,0.02872627333557069,0.1686386984123602,973.5673249319042,973.509290745,973.6143867798,0.0014130903506825497,0.10509603479999896,0.03740266631104959,-0.0005311775692295155,-1.6160396935717183,0.48,0.52,-0.09805992189317313,Stairs up
-1.0977172851526666,-1.3056640625,-0.79528808593,0.020544923172419155,0.1425364733963948,0.1746663411418889,0.00305175781,0.3095703125,0.006653924738542159,0.08111715133957334,-0.04590386284588889,-0.24328613281,0.375,0.027195616019073773,0.1639922025821677,1.1264002944303333,0.80332002832,1.34704083198,0.022865249505885643,0.15037018048151193,973.5594790863199,973.5067473364,973.61983743112,0.001041611941571991,0.11309009471995068,0.032094212493135335,-6.65392768796294e-05,-0.8689679926771641,0.56,0.44,0.3523137156931449,Stairs up
-1.0602670064741464,-1.427734375,-0.90063476562,0.016393961909349313,0.12725578786287542,0.1846194383564634,-0.19702148437,0.53674316406,0.028022544935194755,0.1663754987440354,0.16003715701000001,-0.04321289062,0.43237304687,0.017996047740828768,0.13332885563144006,1.109222270064512,0.94152638946,1.46473887258,0.015326645434253747,0.12304363097730789,973.5500917165915,973.48643950975,973.65352821484,0.0023489499657374764,0.16708870509000917,0.04816953637360438,0.0005120521456085193,-0.44780938042343266,0.66,0.34,0.9002044463011493,Stairs up
-1.1078076171835998,-1.31823730468,-0.94836425781,0.009553234335511885,0.09708685738917013,0.1557373046856,-0.14587402343,0.42492675781,0.028612682141637317,0.168021366834942,0.0855224609352,-0.16491699218,0.25207519531,0.010940600085387215,0.10389766800839204,1.138800000936,0.95131307098,1.33824352983,0.010532672595626052,0.10194232173644911,973.5281771624451,973.48522940874,973.62676544512,0.0016059492236135768,0.14153603637998913,0.03980623779382735,-0.0007170742688428388,0.4978242189390323,0.56,0.44,1.0924028560759191,Stairs up
-1.0490636488942353,-1.31237792968,-0.80407714843,0.014410398115795017,0.1193350913198422,0.2565085018352941,0.10693359375,0.47314453125,0.01349634542784837,0.11548837557695188,0.08636977251505881,0.00366210937,0.27502441406,0.005130123720607112,0.07120231263023756,1.092279389191412,0.82237446805,1.33828229531,0.013523927764941464,0.11560632652416883,973.5399930469907,973.48586542462,973.68575278184,0.0037760455906263465,0.19988735722006368,0.06108699963866511,0.0004913066448174363,0.6555364194729356,0.66,0.34,1.3853114032054734,Stairs up
-1.1923708448181374,-1.58422851562,-0.86022949218,0.031346527807316414,0.17617947924558264,0.25550872204,-0.04748535156,0.6552734375,0.043053777108947,0.20647440823244345,0.39838484221480375,-0.17333984375,1.07470703125,0.11559034058084823,0.3383150926986596,1.3461814964106857,1.11098394444,1.60661146701,0.021881314643087523,0.14719644000623192,973.5194621662633,973.4305725035,973.71940523804,0.009087454000735812,0.2888327345400512,0.09485969278072795,-0.0011039870106093479,-0.2600883892241228,0.72,0.28,1.121663499798983,Stairs up
-1.196491156679889,-1.39721679687,-0.98706054687,0.014829805781637919,0.12109925747849135,0.08878987629955556,-0.53332519531,0.58215332031,0.0648615887484317,0.2532605465306523,0.20667724609011115,-0.05578613281,0.57116699218,0.03309949162543184,0.18091909654942556,1.2564114660504446,1.00232551302,1.42172495081,0.015328411950380984,0.12311822067445345,973.5086071341502,973.44142973597,973.61164478402,0.0024607924741796754,0.17021504804995402,0.04933001455075479,0.0009082311878667203,-0.5528828935342962,0.57,0.43,0.6412701743355904,Stairs up
-1.0869125738341463,-1.4521484375,-0.91809082031,0.03094579720722909,0.17483823791267522,0.24473013528634147,-0.09338378906,0.50012207031,0.023407484205950995,0.15205928804741978,0.22866449123060983,0.06103515625,0.39270019531,0.006287853299953075,0.07881099011019192,1.1508573417457317,0.93536516149,1.49590938318,0.029346098708031104,0.17025927127617496,973.5046442670648,973.46399443609,973.52722242768,0.0003110066663092165,0.06322799158999715,0.01752751842349434,0.00046801036057228355,-0.05086508293858305,0.33,0.67,-1.027041625017754,Stairs up
-1.1113885436358586,-1.29248046875,-0.87487792968,0.016520858532870324,0.12788268519996146,0.1424104324469697,-0.08435058593,0.45739746093,0.019784037733823423,0.13994355636768457,0.0898745758349495,-0.11315917968,0.22021484375,0.01120000601467773,0.10529422890544428,1.1371709470138387,0.90436187905,1.36823042191,0.017587610251865043,0.13194679845702328,973.5069971501867,973.47414103861,973.54773876537,0.0006018232149559626,0.0735977267599992,0.02440787152913318,-0.000619214467761727,-1.129204807349435,0.58,0.42,0.34748486831398356,Stairs up
-1.092955900491263,-1.39514160156,-0.7685546875,0.028597143379114027,0.16821450834345003,0.16320286800589476,-0.05151367187,0.44055175781,0.01594107896580209,0.12559171204575212,0.03911261307568421,-0.29040527343,0.32409667968,0.03517150609124747,0.1865510110166643,1.1265762151843157,0.7868097175,1.44468693469,0.03275911588377274,0.18003967086449638,973.4624755133642,973.39099203506,973.56302487895,0.002339971689349611,0.17203284389006512,0.04811798425130763,-0.0007167196976218537,-0.4830261161485132,0.63,0.37,0.6748069654045142,Stairs up
-1.0143035178918607,-1.34387207031,-0.75866699218,0.026081687629865347,0.16055657006895974,0.24037915606488378,0.02404785156,0.58837890625,0.018653620170273534,0.1357818751165047,0.12271614961558142,-0.0302734375,0.25793457031,0.007853985837485608,0.0881059613236849,1.0607520882195351,0.80683513263,1.38143270695,0.028770355026927905,0.1686292264555195,973.3975713824773,973.37226340989,973.42752081993,0.0002556199475716509,0.05525741003998519,0.015894892972269033,-0.00041123649036212996,-0.869310279423416,0.51,0.49,0.19747740427092406,Stairs up
-1.1166049619222784,-1.44396972656,-0.80871582031,0.03809065809222287,0.1939291052503656,0.17198007317746838,-0.02734375,0.41748046875,0.0104168961958503,0.10141517021793735,0.09476210195594935,-0.08776855468,0.232421875,0.009297467252651797,0.09581115693778816,1.142619139671013,0.83482681892,1.46726704362,0.03733100090696979,0.19198556349812265,973.3348213273423,973.28514361357,973.41492760075,0.001451541744390674,0.1297839871800761,0.0378572027262864,-0.0012487322886814377,-0.5439149702771795,0.65,0.35,0.6083596263138624,Stairs up
-1.07098210899233,-1.34777832031,-0.8037109375,0.033984382031120884,0.1834514556347484,0.1441306697472816,0.01330566406,0.27502441406,0.005507705088210117,0.07385277397143616,0.032396038758737866,-0.08581542968,0.18603515625,0.00888034065317149,0.09377698946770543,1.0874495463688347,0.80980013724,1.36375030602,0.034517226426769264,0.18488403858526228,973.2765478530677,973.24826567838,973.33591905916,0.0007739226233832941,0.0876533807800115,0.027684089501115734,-0.0006880310596272618,-0.4764093696021545,0.58,0.42,0.7768603331418534,Stairs up
-1.0505291482635868,-1.3271484375,-0.85034179687,0.019002098567434948,0.13709687822043548,0.178202753478587,0.08813476562,0.25170898437,0.0017835027166598276,0.042001390662282825,0.08358499278032609,-0.08020019531,0.21520996093,0.009705499339258187,0.09797961411039936,1.0744794120293477,0.88204289539,1.34232132392,0.01820572072590407,0.13419326531962864,973.2132180733486,973.17923936916,973.25472908537,0.0004670769617261229,0.07548971620997236,0.021494186149494002,-0.0006369666970441368,-0.7375576635215748,0.35,0.65,-0.045639484556311095,Stairs up
-1.07799557605,-1.33178710937,-0.83068847656,0.02236167263284637,0.1486346355674947,0.18130971149867472,0.00561523437,0.46545410156,0.015130377589793192,0.12226235677383317,0.028888012988554212,-0.33642578125,0.29040527343,0.022775812276724743,0.15000468292655644,1.110103699676747,0.83518878884,1.34369327181,0.023274121503874687,0.15163677127075204,973.1715758676482,973.13098907142,973.26036612326,0.0007902648433171952,0.1293770518400379,0.027941789136429668,-0.000539457447954422,1.503736002807039,0.64,0.36,0.9573212484654222,Stairs up
-0.9050903320273468,-1.23645019531,-0.73425292968,0.014632404541946309,0.12034572818142855,0.26379643654040813,-0.01708984375,0.580078125,0.03164507893532509,0.17698070506865227,0.11332609215551022,-0.28051757812,0.53051757812,0.06395901858889855,0.2516075824415335,0.9950770688066328,0.77857253942,1.39925946954,0.0207650271915467,0.1433636605244854,973.1888386498104,973.07500969053,973.30368733872,0.00547768771363256,0.22867764819000058,0.07363282516000912,-0.0011512716059503918,-1.1687222657083347,0.59,0.41,0.13060934155801618,Stairs up
-1.0621732075976043,-1.43249511718,-0.71520996093,0.024819055511787803,0.15671797498544962,0.15859222411812499,-0.07141113281,0.3466796875,0.012499092852317616,0.11121552934927437,0.09354527791270835,-0.12585449218,0.27062988281,0.014226216232121143,0.11865085958265627,1.0902029643389584,0.71996665686,1.45627342131,0.024837803302624206,0.15677715453754268,973.0238531514547,972.94168026012,973.13104320981,0.002216957862172789,0.18936294968989387,0.046838707829192826,0.0012725790730279607,-0.03153322015688209,0.4,0.6,0.26716139815562223,Stairs up
-0.7402056525692154,-0.77062988281,-0.72009277343,0.00014760180762488963,0.01208944709569249,0.6302310719176468,0.59399414062,0.65539550781,0.0003137642785803465,0.017626348408054,0.2608810125584314,0.19287109375,0.37243652343,0.0034892538511092155,0.05877963490886882,1.008283042865784,0.97911278173,1.05215957179,0.0003155746862914769,0.017677126939014468,973.0703511091556,972.95068339769,973.25659739984,0.005248973278391661,0.30591400214996156,0.07209377751272635,-0.00020010035864003129,0.5626873179526273,0.69,0.31,1.0657840944472845,Lift down
-0.7276033791119354,-0.73620605468,-0.71923828125,3.273674694577388e-05,0.005690759080658651,0.5980697139583872,0.58325195312,0.62817382812,9.480670490904052e-05,0.00968438320052107,0.29669123823559146,0.24755859375,0.3193359375,0.0005361815586423407,0.023030765630752695,0.9877976713898923,0.97472549083,0.99616126037,3.244838458109709e-05,0.0056656400538694675,973.1001419289595,973.03302024715,973.31616430453,0.004690840950894399,0.2831440573800137,0.0681204947199063,-9.406195349359883e-05,2.54444163957667,0.56,0.44,1.5656211111114815,Lift down
-0.754429408477738,-0.78564453125,-0.71899414062,0.00032290693197291364,0.017862329126695067,0.6218697684123808,0.548828125,0.68713378906,0.0009766115635633243,0.031064211488876805,0.2272702171660714,0.13037109375,0.30908203125,0.0023869598413960766,0.04856483967653995,1.0051669633401192,0.95001542053,1.06681771776,0.0005674339699858083,0.023678657134146214,973.3421355494694,973.13983344223,973.5769093951,0.019294480195483917,0.4370759528699182,0.13807528382256015,0.0014815397045545126,-1.0781503355387254,0.54,0.46,0.2123628286195921,Lift down
-0.7512508243681817,-0.75891113281,-0.7451171875,1.3938136727422588e-05,0.0037090594447553396,0.655864765114026,0.64697265625,0.67395019531,4.5168582126431564e-05,0.006676973653066982,0.21189186789402595,0.18615722656,0.22314453125,9.726134070265847e-05,0.009797867441837471,1.0195619478202596,1.00625274521,1.03414454413,3.617039786146981e-05,0.0059750022957901425,973.4287729541597,973.21425287845,973.59444070236,0.010382313105515576,0.38018782390997785,0.10122982697989269,0.004384496311149608,-0.567055716062689,0.51,0.49,-0.3569827941687845,Lift down
-0.7450863022356626,-0.77075195312,-0.72277832031,0.00017467971377248758,0.01313678571446451,0.6631432958356626,0.64208984375,0.70007324218,0.00027880557330219627,0.01659658006968299,0.20462367045927707,0.19372558593,0.21179199218,2.9798438373847932e-05,0.005425810634738604,1.0184398957136147,1.00501271141,1.02865535715,4.161635811524702e-05,0.006412094525991023,973.7375874621122,973.59444070236,973.85017168302,0.005939365890466424,0.25573098066001876,0.0766016139861301,0.0031557699556678566,-1.1118615099929305,0.42,0.58,-0.33809805366958096,Lift down
-0.7468297977233663,-0.83935546875,-0.69177246093,0.001080096797835089,0.032701724268511465,0.6532768022851484,0.61743164062,0.69360351562,0.000380182738327374,0.019401509034077228,0.20383929261633657,-0.05346679687,0.27185058593,0.008764658386926957,0.0931551372228971,1.0177923634795052,0.98252337255,1.07383774676,0.00030117204718760733,0.017268183046583223,973.9834028393007,973.85017168302,974.12426898182,0.004681052062429809,0.2740972988000294,0.06807866782118127,0.002127875789528436,-1.085563886349075,0.36,0.64,-0.28634115102922947,Lift down
-0.7833949497719778,-0.85119628906,-0.70642089843,0.0018871384007145278,0.04320185894254194,0.6439893114651647,0.59167480468,0.70837402343,0.0011132688022522544,0.033181848639739484,0.0910899403302198,-0.05090332031,0.24365234375,0.008161791667440266,0.08984487547499159,1.0232018682392308,0.97888923411,1.07755118455,0.0008338957102477953,0.02871814794035634,974.2784362418045,974.12426898182,974.56964415226,0.010341296294617316,0.44537517044000197,0.1011318727009203,0.001846771675387202,1.9899375874372103,0.59,0.41,1.438067658974896,Lift down
-0.8074191954040243,-0.81701660156,-0.79309082031,4.659414299059305e-05,0.0067842406896137025,0.6116988019207317,0.58325195312,0.6416015625,0.00014654664532881255,0.012031603846432344,0.07060874380378047,0.01745605468,0.10473632812,0.0007019565541051396,0.02633241554288876,1.0158195471236586,0.99723792091,1.03830734576,8.261275494079586e-05,0.009033564209079751,974.5472057316375,974.39766583846,974.61848763108,0.004354710202219119,0.22082179262008594,0.0655866143373847,0.00160014774592555,0.5312459985387799,0.33,0.67,-1.264939447343685,Lift down
-0.8116404739813402,-0.83959960937,-0.76245117187,0.0005076875033396148,0.022415477053870803,0.6562739106770102,0.61047363281,0.67749023437,0.00026815870130690475,0.0162909231970757,0.10470864207082474,0.01928710937,0.14721679687,0.0014234757998302296,0.0375339951455285,1.0497093549354637,0.97692468411,1.08161035332,0.0007138829271401176,0.02658050619033711,974.6893963938064,974.5061637325,974.83845131705,0.010107175143679413,0.3322875845500448,0.10001488620093417,0.003255390369947254,-1.018338521170776,0.6,0.4,0.0006266990206459464,Lift down
-0.8020833333291666,-0.83447265625,-0.76428222656,0.00036103652234290836,0.018901738682861154,0.6558024088504166,0.61669921875,0.70849609375,0.00045356018504152533,0.02118574048223654,0.07467142740458334,0.03430175781,0.12231445312,0.0007138703737259056,0.026578830373054304,1.0390403968754165,0.9881989064,1.09052982406,0.0006984954211822568,0.02629105222716672,974.8823208065946,974.76689358156,975.09775978602,0.011291132697842082,0.33086620445999415,0.10570485671074703,0.003115017960856949,-0.8236365464054876,0.56,0.44,0.6811741793227788,Lift down
-0.7942533271222092,-0.81042480468,-0.77648925781,7.113945018358137e-05,0.008385239845971608,0.6343710256136046,0.60705566406,0.66564941406,0.00020673789500076767,0.014294543224221292,0.07808099790779069,0.03930664062,0.09289550781,0.00016782806650123734,0.012879308108585417,1.01965738482593,0.99652130076,1.03493270619,0.00010211577279612498,0.010046311765478577,974.930729902066,974.8578470159,975.08659470718,0.0030412009073069917,0.22874769127997752,0.05482552422056022,0.001194158808322641,0.222069077103912,0.49,0.51,0.7474087270016454,Lift down
-0.7579963780615189,-0.77807617187,-0.73657226562,0.0001457310156307045,0.011995262366047517,0.6018143665905064,0.58129882812,0.61743164062,5.615725801235597e-05,0.007446234393645621,0.27271125889582276,0.10632324218,0.32006835937,0.004277235001669358,0.06498532747057872,1.0076054226497466,0.96681711965,1.02700763904,0.0002675967790308775,0.016254521771817423,974.977006208241,974.8815514706,975.26193708619,0.014459917806549627,0.3803856155899439,0.11948590239977896,0.0034065524770403384,0.9357249223247419,0.8,0.2,1.6212622577215128,Lift down
-0.7808494197463104,-0.79443359375,-0.76159667968,6.293561455422891e-05,0.007894592400511078,0.5992562006929124,0.58239746093,0.61840820312,6.541022851826017e-05,0.008048302787292919,0.0630321317462136,0.01989746093,0.11779785156,0.0009512874584512928,0.03069286004731075,0.9868288901572816,0.97196638775,0.99903299097,4.5191754041713626e-05,0.0066897682432282175,974.9647401928466,974.76224274536,975.25708945155,0.01968845811631783,0.4948467061899464,0.13963276133314353,-0.003444550549982038,-0.12133784255446578,0.53,0.47,0.7331185079643481,Lift down
-0.7886034094733695,-0.83020019531,-0.77392578125,0.0001556887631683666,0.012409532384562001,0.6279190726869565,0.59777832031,0.6533203125,0.0001946863408355238,0.01387696598528932,0.10519011123847824,0.09436035156,0.12097167968,5.6592097022748684e-05,0.007481775560211024,1.0136380933443478,0.98602959675,1.04296710696,0.00018502933546240982,0.013528419975498638,975.0641458360006,974.8227527885,975.27128706716,0.013996371905087079,0.4485342786599631,0.11766153758921337,0.004336960767722971,-0.7294732931858947,0.48,0.52,-0.32834488797171213,Lift down
-0.844910403328795,-0.90380859375,-0.81030273437,0.0008191972875032952,0.02844868082470444,0.6383909662042168,0.60571289062,0.66369628906,0.0003066763408775943,0.017406362204790818,0.08971138459722892,0.046875,0.16943359375,0.0014290574138486087,0.03757445747639763,1.0638245822115664,1.02432576427,1.09390054075,0.0002694007283996637,0.01631425562173261,975.3969734082901,975.27128706716,975.52579980147,0.0035845522302141164,0.25451273431008303,0.05950936778311862,-0.0013865325263010145,-0.737642693649418,0.52,0.48,0.31351059482352284,Lift down
-0.7857879953251548,-0.81616210937,-0.75939941406,0.00023303429606123742,0.015186569087121873,0.6416770699050515,0.62976074218,0.66687011718,7.795059533481146e-05,0.00878333541144345,0.13322653229257733,-0.00415039062,0.19567871093,0.0044013185911230615,0.06599957706423486,1.025412115329175,1.00525384842,1.05191635311,0.00015687862347673454,0.012460389965007803,975.5940181406256,975.36860445558,975.88838206809,0.02227327931900537,0.5197776125099836,0.14847106749372743,0.004159270562752763,-0.8558718589589192,0.53,0.47,0.47069581982337066,Lift down
-0.7786000569628125,-0.79907226562,-0.76220703125,0.0001298731617767907,0.011336680128750913,0.653297424313125,0.63134765625,0.67260742187,0.000225887898544854,0.014951083559450748,0.014607747393541667,-0.03552246093,0.03381347656,0.0003154844567688245,0.017669130152448063,1.0167925232588542,1.0022886209,1.02414275032,2.6453175256833875e-05,0.005116407074100782,975.5155134920345,975.3518524533,976.14269220638,0.0400291995215443,0.7908397530800357,0.19902821079735125,0.005081486851221892,1.435954292570245,0.75,0.25,1.6191056237380572,Lift down
-0.49371136675505484,-0.79431152343,0.06030273437,0.07150998756672504,0.2659401502735724,0.7525782323115384,0.56408691406,0.96520996093,0.010728847925918437,0.1030094582946687,0.4042123647794505,0.24975585937,0.720703125,0.008112133440979392,0.08957113998075578,1.0286819825248352,0.88596959333,1.1185833274,0.004736069952266535,0.06843993883337676,975.487961681052,975.40971539208,975.52678716214,0.0007531951520661545,0.11707177005996527,0.027293191133746703,0.0008826163337985818,0.2789403106782178,0.41,0.59,-0.5741844224397479,Lift up
-0.8591545260636732,-0.95825195312,-0.60717773437,0.005353180605864548,0.07279118294112255,0.5681351642187755,0.455078125,0.8974609375,0.010148698120342865,0.1002254457523524,0.2428700972536735,0.16027832031,0.30334472656,0.001757797456472505,0.041711638037039374,1.0657127075357145,0.97728517876,1.1102020579,0.0012628165369093908,0.0353543583434872,975.4900458907118,975.40781595415,975.5626106219,0.002187052172728762,0.15479466775002493,0.046526716129804024,-0.0015584238549561386,-0.9220849515636371,0.45,0.55,-0.46216554837529,Lift up
-0.22544028541920458,-0.60717773437,-0.06652832031,0.019209581496328506,0.13780889230200855,0.08067044344886364,-0.39270019531,1.0400390625,0.2956214226972326,0.5406126971764541,-0.7299471768432955,-1.02563476562,0.22595214843,0.14074633372339035,0.373024052263983,1.0175761448692044,0.86147109075,1.1589917462,0.005135081565865298,0.07125116396419916,975.8102593234925,975.40985099757,976.53158470467,0.10864651525180778,1.1217337071000202,0.32773754096885205,-0.0012295848979338713,-0.9413549147685236,0.64,0.36,0.6507659609828778,Lift up
-0.060854256867590356,-0.10144042968,-0.00219726562,0.00048287444048362597,0.021841627140404392,-0.2818897660916868,-0.36401367187,-0.17858886718,0.000913971659012965,0.030049292042872974,-0.9553560923333735,-1.00451660156,-0.76684570312,0.0035061223163342335,0.05885473539816519,0.9985957520363855,0.79387434563,1.04524658719,0.003563700641345647,0.05933603027706081,975.062085779842,974.11604774782,975.48773392709,0.06533063121922456,1.3716861792700001,0.2540541579672309,-0.009578861730027506,2.8787009709546965,0.51,0.49,-0.9910976433258407,Lift up
-0.20564225576339804,-0.70812988281,0.32727050781,0.15289287476818017,0.3891124232477943,0.6634782217054368,-0.17858886718,0.96337890625,0.05334966751025692,0.22985149460741852,0.34762188068747574,-0.76684570312,0.86450195312,0.2393436003567185,0.4868468712864555,1.0151359470018446,0.75895417134,1.20725106271,0.014230290814627157,0.11871028873428936,974.3426641088056,973.99827175659,974.60605598653,0.03979155000902062,0.6077842299399663,0.1985074917497516,0.006387448157327487,-1.3666931559091873,0.44,0.56,-0.335136054635873,Lift up
0.3784975798194565,0.28430175781,0.419921875,0.001651432630353235,0.04041636148486752,0.880056630006087,0.82556152343,0.93798828125,0.0007783571553333426,0.027747013379299468,0.3101488196303261,0.255859375,0.44494628906,0.0025040592037987005,0.049767872859655164,1.0091668601422827,0.96492132268,1.05624140956,0.0004194076311982367,0.02036783868254695,974.5863655087933,974.48965232221,974.66234364436,0.002835042500363316,0.1726913221500581,0.05295495086402725,-0.0017364526518776093,-1.196430209815477,0.4,0.6,-0.4131642458771687,Lift up
0.3628807998235366,0.10925292968,0.4775390625,0.011319137750805163,0.10574071820047111,0.713579875662317,0.55017089843,0.84716796875,0.011373424004852214,0.10599397960313649,0.5745417897256098,0.35363769531,0.84741210937,0.03655556704193441,0.19002570206122654,1.0141138506871952,0.96646116959,1.10940383819,0.0010889503418839664,0.032797415441858664,974.33406893315,974.18251098324,974.48965232221,0.010044252247475268,0.30714133896992735,0.09960803866359631,-0.004145233696841784,-1.5010681142737958,0.44,0.56,0.00383721624520215,Lift up
0.1816818435431169,0.10925292968,0.31494140625,0.0014534112695266113,0.03787526631581352,0.4922604251185711,0.42956542968,0.60095214843,0.0027063599776723465,0.05168377352220698,0.8119007457346752,0.68933105468,0.92211914062,0.0024969127546421166,0.0496435828307158,0.9694162754674024,0.87947290591,1.0420934383,0.0013310440438378723,0.036245796412194664,974.1027512579698,974.03992790305,974.18251098324,0.0017948607364395245,0.14258308018997923,0.04208979516160069,-0.0018052362455845956,-0.8778704533676844,0.61,0.39,0.5289986424906835,Lift up
0.4076268122707693,0.31494140625,0.46069335937,0.0009264484355626611,0.03029092731377507,0.81546372633375,0.60095214843,0.92041015625,0.004069469928929647,0.06348496208065535,0.4312708927994231,0.32861328125,0.69873046875,0.009895930723210392,0.09899887647432935,1.0151305453375001,0.90318010221,1.08795936956,0.0014346160209782642,0.037693787766171306,974.0480762744303,974.0104025122,974.0933407879,0.0009032281210791031,0.08293827570003032,0.029908915649008345,-0.0008715440728597621,-1.5843812593789368,0.49,0.51,0.010093854181750163,Lift up
0.3901354061625805,0.3671875,0.41394042968,0.00018197799978064718,0.013417199674106135,0.8290070564490324,0.81323242187,0.84936523437,0.0001117474129278558,0.01051407760303347,0.4433580624118278,0.40759277343,0.48278808593,0.0004940313148283918,0.022106993240891396,1.0182071969539783,1.00807957474,1.03770678137,5.8728071625069934e-05,0.00762211171421281,974.0273545956014,974.01718515749,974.0353447568,1.4864240810593309e-05,0.018159599310024532,0.0038346330025496368,0.00013304658465574358,-0.33563719989918317,0.51,0.49,-0.02726401693183246,Lift up
0.2781099985844578,0.11975097656,0.47619628906,0.007540310778622784,0.08631027552272123,0.813988375372048,0.52697753906,1.11877441406,0.03478818748700104,0.18538892280284988,0.54945906673253,0.32080078125,0.77624511718,0.018180849282720735,0.13402165088455106,1.0295124991798794,0.75758048566,1.36553991497,0.042220526915759254,0.20423478124105462,973.9052199445837,973.87480009219,973.95885199057,0.0005717570172815764,0.08405189838003935,0.023766959808085422,-0.0005636868921183758,-0.32001426745189443,0.47,0.53,0.647850746630981,Stairs up
0.19775259366354836,-0.0546875,0.42126464843,0.012369920538257737,0.11062057060057545,0.825881793930645,0.58508300781,1.109375,0.033902089853207494,0.1831326056513022,0.5948906354972042,0.3681640625,0.89306640625,0.019221988545491352,0.1378959770864078,1.0457182066475268,0.75444431572,1.41054153462,0.046848637516694304,0.21527863044480802,973.8367333448308,973.81034955173,973.93774731557,0.0008337039994416332,0.12739776384000834,0.028718277112456662,-0.0005963875810236081,5.544798337051587,0.68,0.32,2.325764472405244,Stairs up
0.2400711993743878,0.01391601562,0.37487792968,0.009104174419879967,0.09492773399224065,0.7824632294281633,0.54919433593,1.134765625,0.033057926799898205,0.180888366171586,0.5551147460907142,0.32055664062,0.88037109375,0.021595956507966897,0.14620393156418324,0.9982170200580612,0.71710324301,1.37364955172,0.045166395257870195,0.21143678410722722,973.7867940453419,973.74308659605,973.83485620057,0.0005931308831336086,0.09176960451998184,0.02422970340683653,-0.000177322890958528,-0.9272860139631192,0.6,0.4,0.3570584849731905,Stairs up
0.1824908589166279,-0.00085449218,0.31567382812,0.008654581955934092,0.09248755203824935,0.8860700740337207,0.56030273437,1.23657226562,0.04239354037616027,0.20469634152141417,0.5324749613868603,0.31799316406,0.79333496093,0.020289498373753972,0.1416106421638542,1.0554745733653488,0.72986106278,1.44690917718,0.05912167398350127,0.24173169560095284,973.712877853819,973.67865592834,973.75206747155,0.0003430555225910336,0.07341154320999976,0.018413758575763033,-0.000554383434344377,-0.724411828153944,0.5,0.5,0.01673084147829954,Stairs up
0.2661302783786076,0.13647460937,0.46911621093,0.006922606372618659,0.0826739284409017,0.812274401697215,0.55554199218,1.08996582031,0.02081187111006597,0.14334723472606453,0.5075838113092404,0.27221679687,0.74743652343,0.019786545239296436,0.139771537307603,1.0062776644756959,0.80420588923,1.32757295467,0.02287060836537511,0.1502701134413011,973.6436481586238,973.61339432867,973.7017082303,0.0002910389839513011,0.08831390163004471,0.016951547014351392,-0.0005598246688249335,2.0444400662141504,0.33,0.67,0.30953015176087184,Stairs up
0.22421779879961037,0.05859375,0.32922363281,0.006234926745093084,0.07844713933905739,0.8281678038733764,0.58349609375,1.11022949218,0.03355441625397054,0.18198528680722678,0.5227764179141557,0.31591796875,0.8271484375,0.021541736765240495,0.14581486189722742,1.0106988712658442,0.70303517933,1.40807619197,0.049212935574175394,0.22039466087168388,973.6070026754297,973.57961401688,973.64438633475,0.0005250022744277058,0.06477231787005167,0.022763656627868507,-0.0006343012175873816,-1.4769740825862119,0.56,0.44,0.3316809877709119,Stairs up
0.3216625251349506,0.09252929687,0.54479980468,0.012910563892552525,0.11306076475630142,0.807956808860099,0.57653808593,1.13269042968,0.022652701915662096,0.14976120237991983,0.48445356009861373,0.24877929687,0.82397460937,0.015746548945939756,0.12486249445182662,1.010315929810693,0.8115573146,1.40851039946,0.02122995326668929,0.14498191511217307,973.5600937602602,973.52343411522,973.61646977092,0.000295107659311091,0.09303565570007777,0.0170934432253455,-0.0004905800889554744,0.48542056875197126,0.48,0.52,-0.288154720301659,Stairs up
0.36557170908602155,0.1357421875,0.53552246093,0.014567549266668941,0.12004544536121967,0.8419688235015051,0.63122558593,1.08044433593,0.016760930171900824,0.12876608682525453,0.43416866179053754,0.27111816406,0.57678222656,0.00816943547677056,0.08989767563484174,1.0290902475360215,0.91877896691,1.23553625844,0.011223755234322518,0.10537110464528932,973.547025717791,973.50461309986,973.58231394517,0.00035561874269214784,0.0777008453100052,0.018756195916119163,-0.0003121576924702667,0.4815090306752916,0.41,0.59,-0.4431225925152804,Stairs up
0.3307358685624706,0.10888671875,0.67651367187,0.024051763150584875,0.15417133725555549,0.8485365923677646,0.66638183593,1.1142578125,0.01447066526138038,0.11958437247675073,0.47935719209200006,0.32116699218,0.62316894531,0.007700673534584648,0.0872357574355507,1.0444503799771763,0.8569697011,1.27409825413,0.014153092434783299,0.11826489531962694,973.5437046446572,973.51833173172,973.56544249636,0.00018531156183198942,0.04711076464002417,0.013532606024356011,0.0003741573229315104,-1.1745571931946721,0.45,0.55,-0.2208396232463352,Stairs up
0.3139322916635556,0.08166503906,0.51831054687,0.015380790662095356,0.12332839489781773,0.8325263129308887,0.54150390625,1.11242675781,0.023089906593770554,0.15110708810662057,0.49716796874655544,0.27734375,0.63732910156,0.012648358840644518,0.11183837230661448,1.0374426202777778,0.86670283786,1.28229553316,0.013240527810135334,0.11442644289877739,973.568988252454,973.53239367491,973.59400692461,0.000250909238274088,0.061613249699917105,0.015751868392315255,0.0004764857131601078,-0.6543743194386793,0.41,0.59,-0.30735739585354366,Stairs up
0.2919165039023,-0.02966308593,0.548828125,0.02699519973205781,0.16347858494230133,0.8467077636677,0.64367675781,1.18078613281,0.020139447322694203,0.14120217013016217,0.46156372069899987,0.22094726562,0.77197265625,0.017406793451981494,0.13127347606223308,1.0283404097416002,0.81995672049,1.41777155952,0.020875815712414827,0.1437604172061652,973.5808205914968,973.528485741,973.64753140724,0.0014478748382308327,0.11904566623991286,0.03786021777339011,-0.0005823155767616335,-1.2610204639150455,0.44,0.56,0.1393186538513122,Stairs up
0.21178239114898875,-0.0107421875,0.36547851562,0.010934894472387654,0.10398091406384076,0.7792406403579775,0.50500488281,1.10607910156,0.037188765019287334,0.19175743460668165,0.5908696892523595,0.30810546875,0.90502929687,0.025812835760786433,0.1597585800459734,1.0146143905407865,0.69985018089,1.42255567145,0.045367884600588465,0.21179738687770042,973.5027177287194,973.46885304008,973.5571494433,0.0005583135778731798,0.08829640321994248,0.023495539823654654,-0.000763931864376355,0.28965142323787774,0.48,0.52,0.691757224782358,Stairs up
0.22674407958725,-0.03491210937,0.41186523437,0.012756130360814648,0.11223492652158001,0.7758056640591249,0.44763183593,1.0380859375,0.03271495714976655,0.17973875537956321,0.63153228759425,0.37768554687,0.95922851562,0.022437208058709888,0.1488514123479385,1.0413951219611248,0.7865299809,1.39586260098,0.03511491455138285,0.1862148708333751,973.4765039782327,973.44785248787,973.5076036209,0.0003312412234474602,0.0597511330299767,0.018085925692492684,-0.0006699305457949052,-0.8652657974058138,0.65,0.35,0.26325130067612074,Stairs up
0.20815718801,-0.0009765625,0.4140625,0.013191508689838009,0.1140961708694774,0.8148080926153947,0.54357910156,1.10241699218,0.0309869739127769,0.1748692384949946,0.6090714304034209,0.38659667968,0.86950683593,0.02008122384297542,0.1407728568064973,1.0465221445507893,0.76681776946,1.38815661285,0.047034104804163,0.21544195274854946,973.4085912757705,973.35429670498,973.44785248787,0.0006807147139446489,0.09355578289000732,0.025918293566374033,-0.0011163493730214791,-1.5013999116779546,0.58,0.42,0.046311034445837486,Stairs up
0.19145932404456528,0.01586914062,0.37268066406,0.00829789543698114,0.09059636262765619,0.7834950322655435,0.57580566406,1.1015625,0.02768313064553574,0.16547575970988174,0.6029716159945651,0.36328125,0.84887695312,0.02025528576780663,0.14154546837732587,1.0142157757208694,0.75107653167,1.39900452823,0.041439137586581784,0.20245669210483505,973.3235898208349,973.28011592443,973.3604272796,0.0005748643180458162,0.08031135517001076,0.023845666123001596,-0.0008248780315394201,-1.408821266615541,0.45,0.55,0.07320085903889842,Stairs up
0.24701799664775506,0.03405761718,0.39733886718,0.009436120692141555,0.09664281528547984,0.8269927355668366,0.53100585937,1.11108398437,0.03679321469138915,0.19083441441509047,0.5847915337970407,0.33142089843,0.89270019531,0.02041840941424679,0.1421620845998499,1.0503187284134694,0.71242184837,1.44054228261,0.050226765883950336,0.2229669210101049,973.250697990281,973.21031154955,973.2904367302,0.00044388122086940065,0.08012518064992946,0.020960720900208743,-0.0005730754030074641,-0.8035025418381778,0.33,0.67,-0.20314961381929245,Stairs up
0.2353940813688764,0.01220703125,0.39819335937,0.0113016712737581,0.10571038834129046,0.834705824258764,0.63134765625,1.17492675781,0.024467330981420485,0.15553911774910056,0.4942997278755056,0.28173828125,0.751953125,0.016782599214981767,0.12881781974741055,1.0101791650551686,0.74454390243,1.40162896027,0.028293500602003897,0.16725906881499067,973.1858620630089,973.16092147855,973.23626496343,0.0005687449119765298,0.07534348488002252,0.02371401525906422,-0.0006970273440930435,-1.0264606772491645,0.65,0.35,0.7514540742886758,Stairs up
0.177613830562625,0.00903320312,0.24096679687,0.0040252278475546854,0.06304690713635565,0.8027954101524999,0.59484863281,1.12194824218,0.03215136294103447,0.17818381212745318,0.6239532470665,0.3720703125,0.841796875,0.017410128846374356,0.1311201824121469,1.037501291315,0.75099696018,1.40952820146,0.04238253575252102,0.20457945658255744,973.1425334332438,973.11490766587,973.17404766545,0.00026225792941458084,0.05913999957999749,0.016092846401333065,-0.00047453867107686735,-1.1438180527027837,0.38,0.62,-0.3527720774138014,Stairs up
0.2450934845239806,-0.0185546875,0.40551757812,0.01864772540042054,0.1358921613734455,0.8320075470235921,0.68139648437,1.08374023437,0.009964343688647096,0.0993358066750678,0.4353489551693202,0.29858398437,0.61950683593,0.007516205052690226,0.08627416871869006,0.9823835396215532,0.80585519084,1.25581189506,0.012659086258566597,0.1119650950452123,973.0996703560825,973.07593459319,973.12068481013,0.00015860193865597748,0.04475021693997405,0.0125324424598253,-0.00024623452781489846,-0.8961367320940461,0.48,0.52,-0.20606192090348696,Stairs up
0.3297347005174667,0.15515136718,0.5419921875,0.008743332323917182,0.09288032385601531,0.6636230468707999,0.37976074218,0.98901367187,0.022976000566832855,0.15056445095907736,0.6285351562470665,0.42004394531,0.86804199218,0.017872680860546143,0.13279449705869667,0.9788562646946667,0.67569925108,1.33915237739,0.03542043615658257,0.18694427959821291,973.1609123742728,973.134505113,973.18980537991,0.00025491607440925957,0.05530026690996692,0.015859293597671242,0.0005557279960428916,-0.701405616336876,0.49,0.51,0.07982518534579154,Stairs down
0.406790161129,0.24658203125,0.58129882812,0.011275886650125655,0.10552221598790978,0.7530410766554999,0.34118652343,1.15893554687,0.04209835212247575,0.20389242928795764,0.61428375243825,0.31555175781,0.90783691406,0.030034353723116348,0.17221766547476305,1.06151841711325,0.59987872904,1.50617693609,0.06626659448503486,0.2558090343478352,973.2214022277074,973.17502552667,973.27442094123,0.0006476134969071866,0.09939541456003553,0.0252886996145679,0.0009359962005896734,-1.0208020494905616,0.45,0.55,0.05736811378762828,Stairs down
0.36653769136282827,0.21398925781,0.53735351562,0.008686372463763817,0.09272880527520132,0.7394859236868687,0.32971191406,1.13757324218,0.04800432727212055,0.21798952974272104,0.5887574475179796,0.32995605468,0.89782714843,0.029506116039648925,0.1709036993850363,1.0196359266004038,0.55587016542,1.45424270201,0.0742432928366458,0.27109658903381756,973.2939990902669,973.25722578477,973.32995437781,0.0005390262110883377,0.07272859304009671,0.023099383149457156,0.0006252935957356966,-1.0153658085018857,0.59,0.41,-0.02083522068100093,Stairs down
0.3827878116188764,0.23010253906,0.53564453125,0.00776580117639833,0.08762730729290437,0.7262031469413482,0.39660644531,1.09997558593,0.03640524377860311,0.18972663517729255,0.5789520606528089,0.33312988281,0.83666992187,0.02294136507691508,0.1506107463960771,1.0086357693629215,0.63360145037,1.41687298305,0.05875540373441798,0.24102952238004033,973.378122709449,973.32995437781,973.41306036893,0.0006156338773174542,0.08310599111996453,0.024672183582748683,0.0007873188402301845,-1.0020452511127107,0.38,0.62,-0.3749701988787322,Stairs down
0.3468680676079012,0.18078613281,0.51721191406,0.007719627040968104,0.0873173694257064,0.7299141589466667,0.548828125,1.04833984375,0.01462063940219003,0.12016712396148682,0.6038185402166666,0.373046875,0.83325195312,0.015350975882583332,0.12313187102375525,1.015414116034321,0.73963522505,1.38973774626,0.024147169780415347,0.154431397627716,973.4355365218479,973.38964455374,973.45604599701,0.00020429889131988137,0.06640144327002417,0.01420481195880706,0.00036544359628140074,-0.292944457665008,0.37,0.63,-0.4973846121405826,Stairs down
0.3704498626339561,0.24243164062,0.50598144531,0.0045385546372134515,0.06699761496076473,0.7564120449830768,0.43786621093,1.13244628906,0.033766382383301895,0.1827438733206469,0.6036537924940659,0.45166015625,0.78588867187,0.011829716036219342,0.10816524005751778,1.0435546875149448,0.67906751528,1.37886571959,0.034749382023845386,0.1853847908619367,973.4893616702706,973.43754209455,973.51447297775,0.00042106437001561214,0.07693088319990693,0.02040679516794417,0.0006314931046392684,-0.04438960013910975,0.31,0.69,-0.8825832012473944,Stairs down
0.33382375616326326,0.07946777343,0.53601074218,0.01278526169925035,0.11247524170746635,0.7523193359336842,0.61242675781,0.912109375,0.007103449803719555,0.08383720324468683,0.576009971212842,0.43188476562,0.72338867187,0.007148815419446263,0.0841044869838733,1.0124702909761054,0.90020702087,1.22555365044,0.010982608006683282,0.10424491165813769,973.5235225517325,973.49378317334,973.55059493908,0.00032205091329557545,0.05681176574000801,0.017851075700974935,-4.566325568779589e-05,-1.087050729913677,0.53,0.47,-0.019308873908991744,Stairs down
0.33540757122788234,0.09411621093,0.55786132812,0.013939505373199865,0.11736912367543131,0.7531623391504705,0.59790039062,0.9189453125,0.008456947059922438,0.09141910940880917,0.6253360523854116,0.45446777343,0.75744628906,0.00630773494146184,0.07895268390049638,1.0418098218887057,0.89490383001,1.25475611659,0.013959947106165322,0.1174551507356237,973.5244295855634,973.50110082508,973.54516217504,0.00016165716207063767,0.044061349959974905,0.012639434841206342,0.000184562953450297,-1.1164785631357452,0.46,0.54,-0.3256029968934364,Stairs down
0.08276367187337665,-1.06909179687,0.43701171875,0.10400630023743304,0.32039907781627325,0.7375916319974025,0.50244140625,1.0263671875,0.017291235988922453,0.13063948286246702,0.5737938818951946,0.34033203125,0.72814941406,0.012468813912542499,0.11093638386177757,0.9957812220584412,0.70608551042,1.32579139004,0.021162539579686616,0.14452578110263598,973.5420133676043,973.51203998997,973.56833114591,0.0003001457872404915,0.05629115593990264,0.01721185027832865,0.0004143321022652714,-1.0957519436349066,0.48,0.52,-0.09821193871845543,Stairs down
-0.9825514960494846,-1.15942382812,-0.80981445312,0.01172141911293694,0.10770598748741232,0.2688680432469072,0.09448242187,0.50244140625,0.007318533617842926,0.08510631479308088,0.2224397954217526,0.0986328125,0.60192871093,0.009720629548201952,0.09808372378966498,1.0493393324386597,0.88468205981,1.35717932091,0.014679309573212791,0.12053205583922127,973.5572576012638,973.51454280606,973.64079103465,0.0008093791631332425,0.12624822858992957,0.02830256257036445,-0.0004536088716382963,1.613032967588306,0.57,0.43,1.069964395766247,Stairs down
-0.945279328715652,-1.337890625,-0.63745117187,0.026300818744605516,0.16129147615416706,0.25358515200021736,0.17419433593,0.44836425781,0.0051766564287331176,0.07155688942424045,0.14751799209913044,-0.00939941406,0.26586914062,0.007084100276311384,0.0837084176552841,0.9946105607052173,0.67818522779,1.4140761675,0.02882557853668441,0.16885572845139393,973.5490284708843,973.52252365613,973.57669286826,0.0003357352658335617,0.054169212129977495,0.01822322609928894,0.00019624901175660902,-1.5510243379947557,0.55,0.45,0.021571636653346656,Stairs down
-1.0109630766334523,-1.35949707031,-0.67553710937,0.03741680300254022,0.1922793927376452,0.2764616466660714,0.16821289062,0.37585449218,0.0025029736653560024,0.04973104020444424,0.13396199543857146,-0.02807617187,0.27722167968,0.007130841249455434,0.08394015893599448,1.0614069494853569,0.72805180243,1.41117019867,0.036766678263293384,0.1906016256817866,973.6039733915223,973.57047810371,973.64437243651,0.0004366061940652224,0.07389433280002322,0.020770375569034175,0.000704138649694653,-0.9651198853176264,0.49,0.51,-0.060607060489425095,Stairs down
-0.9819560434585055,-1.30981445312,-0.61511230468,0.042568722966289815,0.20513270655848767,0.22764289241735627,0.09326171875,0.34558105468,0.005742915331133397,0.07534523747448067,0.12575487158436782,0.00146484375,0.28625488281,0.004988404044083534,0.07022154987299364,1.0211771089211497,0.66491882985,1.34898910401,0.04224351349957299,0.20434763486064897,973.6437129420123,973.61477215858,973.67173599651,0.000207538447750066,0.05696383793008408,0.014323161255485464,0.00012864535659941535,0.027579698803097852,0.45,0.55,-0.05389962002462777,Stairs down
-0.9733786042160825,-1.3076171875,-0.60424804687,0.05770954945127388,0.23898662230865111,0.25777097092072165,0.16870117187,0.43188476562,0.0031044377282821497,0.055429533784972854,0.1593093085497938,0.00146484375,0.28295898437,0.00540589752738934,0.07314483320812976,1.0241516965139175,0.65839421698,1.37850194628,0.05652447090042406,0.23652007186768734,973.6939753880382,973.64871313404,973.73091950211,0.0006612360960551907,0.08220636807004666,0.025581618969204228,0.000865606726322196,-1.1607343937299734,0.42,0.58,-0.2771838193302532,Stairs down
-0.9287782866336779,-1.31958007812,-0.60290527343,0.05226003318326984,0.22728691811602472,0.2855014143281609,0.22216796875,0.43188476562,0.002865289258034067,0.05321987315605252,0.21642224541689656,0.06994628906,0.33801269531,0.005415203194742071,0.07316392198249065,0.9994964847918392,0.68300640486,1.37850194628,0.05243286261210075,0.22766243877801287,973.7825160893155,973.72710642403,973.84107678566,0.0016245281083570357,0.1139703616299812,0.04007312530211948,0.001543480796803994,-1.6174216901899083,0.55,0.45,0.10030975980978364,Stairs down
-0.96499481200925,-1.357421875,-0.62451171875,0.05298642163127118,0.22874459853924484,0.2847122192355,0.23156738281,0.392578125,0.0015779134758494837,0.03947390983170232,0.18166809081637497,0.07263183593,0.32824707031,0.0075567485316973895,0.08638454245437184,1.027240003553,0.69760450574,1.41407664697,0.052052532049675936,0.22671981695267615,973.8513092654966,973.82449853055,973.88366816164,0.00033616080421769434,0.059169631089957875,0.018219736391204267,0.0005537650353193883,-1.1580567514789812,0.57,0.42,0.11629351865017264,Stairs down
-0.9748475609718293,-1.37414550781,-0.65209960937,0.04377178126741968,0.20793744024788174,0.24280827219548778,0.1162109375,0.36499023437,0.00532621998884621,0.07253458545096406,0.17586163776231706,0.05126953125,0.28918457031,0.0047872667029847105,0.06876689175561738,1.0264679102770733,0.72339547984,1.42851530809,0.04029409088406864,0.1995061390830465,973.9262779521786,973.87791376705,973.95372159542,0.00045902325345807595,0.07580782836998878,0.02129378803556824,0.0008381540034500078,-0.20911301836467544,0.51,0.49,-0.48635431009442676,Stairs down
-0.977568655299293,-1.35791015625,-0.6083984375,0.052036969361038604,0.22696110549584658,0.3255134351290909,0.19116210937,0.4541015625,0.00464726340353769,0.06782566880581792,0.2149017025682828,0.08618164062,0.36901855468,0.00666434495520435,0.08122209268108779,1.0585403743278787,0.68160067334,1.42065340531,0.05049321553442666,0.2235691907537372,973.9777631619395,973.94045380368,974.04347523335,0.0006887840485179654,0.10302142966997963,0.026111810237639036,0.000793094431640648,0.4836794540146392,0.46,0.54,0.8247097484315,Stairs down
0.3651613981794565,0.35510253906,0.37731933593,4.638258566232102e-05,0.006773361582147611,0.8548928965648912,0.83349609375,0.87121582031,0.00010319801677345666,0.010103281605489978,0.5064405358313043,0.49487304687,0.51806640625,4.273468635529468e-05,0.006501552037391614,1.058676838916739,1.0392280461,1.06923708524,6.09659758555105e-05,0.007765520085925162,973.9725576640232,973.93860212731,973.99650259667,0.00028338937107133365,0.05790046935999271,0.016742432673317167,-0.0006136761187807957,-1.0039422687051394,0.49,0.51,-0.348687067711942,Lift up
0.3559878700619999,0.33508300781,0.37194824218,8.28282529924342e-05,0.009052976120875689,0.8248586554234734,0.79455566406,0.84899902343,0.0002872372294272769,0.016858638131350703,0.5098619962957892,0.494140625,0.52868652343,9.195376415600028e-05,0.00953864926477871,1.0330956948195786,1.0062865452,1.05606586668,0.0002515090237333682,0.01577534659922401,973.851998306389,973.75241647046,973.93860212731,0.002965371804632163,0.18618565684994337,0.054167862839357095,-0.00196096884745593,-1.1510641798631764,0.46,0.54,-0.2108827763098154,Lift up
-0.08958237591941175,-0.90991210937,0.34106445312,0.21412309299638363,0.4600043453975859,0.7779871323490588,0.63073730468,0.8935546875,0.0036572056117575003,0.06011804773430257,0.40873448988670574,0.08081054687,0.52014160156,0.017480097252201416,0.13143229834874812,1.004637166107294,0.85755259879,1.12929425946,0.004113871635254606,0.06376106292580198,973.6458541928148,973.59460119498,973.75241647046,0.0022390280625385886,0.15781527548006125,0.047039202330827076,-0.0017636234254283618,-0.8074938098399351,0.67,0.33,0.8236233856646659,Lift up
-0.8132086419406491,-0.92565917968,-0.73303222656,0.0028421439774536567,0.05296445049943882,0.5116727754627272,0.17663574218,0.63061523437,0.011532509420748259,0.1066899084783943,-0.20910327465194806,-0.30236816406,0.04187011718,0.006540970572330665,0.08034938022511522,0.9921372222357141,0.88106754321,1.11448836219,0.003190665913253076,0.05611798903738834,973.4523207898276,973.30938823905,973.58477196134,0.010172005715717764,0.27538372229003016,0.10019931010433039,-0.0043701626037188634,-1.6380616820765161,0.51,0.49,-0.07531467168231944,Lift up
-0.8123988101314472,-0.84509277343,-0.77404785156,0.00033018087868983786,0.018050938852146137,0.47786833110236837,0.43286132812,0.529296875,0.0009227454740842433,0.030176217229257635,-0.27623066148986847,-0.33581542968,-0.23669433593,0.0006341616181918282,0.025016342385998692,0.9827963685221055,0.92100239527,1.03283329999,0.0006352615115838597,0.025038027228279632,973.198106007675,973.13161279811,973.30938823905,0.0021726320677312246,0.17777544093996767,0.04630383141471264,-0.002033128823072062,-0.9497501184965249,0.43,0.57,0.24288580312554803,Lift up
-0.8515612913794058,-0.87438964843,-0.83984375,8.34692999774942e-05,0.009090812464507545,0.4993823967312871,0.47485351562,0.51220703125,8.001471215617775e-05,0.008900701505125555,-0.25033236965910893,-0.263671875,-0.23645019531,6.375554763796772e-05,0.007945080527725773,1.0185209457643565,1.00616300129,1.03357499466,4.623693523125587e-05,0.006766028657441723,973.1210769162566,973.09686605524,973.13446249143,8.929255924648147e-05,0.037596436190028726,0.009402578077392754,-0.00030095860709118417,-0.06586776261830263,0.57,0.43,-0.40161236711801673,Lift up
-0.8540690104126666,-0.87243652343,-0.84301757812,7.31718004500129e-05,0.008506396442972356,0.4907172308976666,0.48217773437,0.50122070312,3.5429908681668365e-05,0.005919142085610872,-0.2650485568541111,-0.28173828125,-0.24658203125,7.057827101956885e-05,0.008354284410303512,1.0201126499825557,1.0094061826,1.0314472111,3.5780744025224514e-05,0.005948376266068079,973.108918426609,973.09686605524,973.11456452075,1.6619621825585778e-05,0.017698465510079586,0.004054005347906814,8.283890650711091e-05,2.8774203178752735,0.38,0.62,-1.6225257897901662,Lift up
0.24134355709580246,0.18969726562,0.306640625,0.0007898335149462055,0.027929956747146725,0.7275797526001235,0.53942871093,0.85913085937,0.006717591732877934,0.08145341307525324,0.6102762104518519,0.46301269531,0.79553222656,0.009636691424127904,0.09755880239662948,0.9867856808946915,0.87786772512,1.13364546176,0.0032830746665756,0.056943330430951206,973.1147446965922,973.09770292732,973.13788614563,0.00019097942651523958,0.04018321830994864,0.013733959946698569,0.0004976119653319355,-1.4266812135194673,0.42,0.58,0.0823122123733582,Lift down
0.31400171915260416,0.16247558593,0.41320800781,0.006587712739664951,0.08074088637090943,0.7574183146119792,0.67956542968,0.81701660156,0.001265521890037241,0.035388407287547614,0.5647875467904167,0.44836425781,0.72961425781,0.004398129565091463,0.06597208284914986,1.0014055968389586,0.96449830361,1.05018512308,0.0005811864145783679,0.023981917968054805,973.2475293485336,973.13724006006,973.34891052769,0.005036623963911821,0.21167046763002872,0.07059857740035846,0.0024910945895196437,-1.4595925546292994,0.49,0.51,-0.03106054812325882,Lift down
0.4436179540454838,0.41882324218,0.4658203125,0.00022511373704944306,0.014922907197718114,0.7932955834135482,0.78039550781,0.79943847656,2.5496910864798823e-05,0.0050222256553165015,0.437299174642688,0.41076660156,0.45202636718,0.0001296143962850314,0.011323457647696256,1.0088000667255912,0.99159623348,1.02026329944,4.437913474755968e-05,0.006625853888388582,973.4507995554255,973.34517204955,973.57046053747,0.005263033078184325,0.225288487920011,0.07215567423741158,0.0026762894323789487,-1.2806631623437914,0.49,0.51,0.111446059532197,Lift down
0.47866563911518056,0.40026855468,0.54431152343,0.0012485182595623088,0.035120875144177194,0.6127797322059035,0.51354980468,0.82568359375,0.01173968286507621,0.10769512942954466,0.6369187688214456,0.44006347656,0.72546386718,0.01093212227188509,0.1039250208340434,1.016560518794217,0.98560525068,1.06803760181,0.0005285184009701048,0.02285061726501391,973.6829074884532,973.58987819131,973.82621577587,0.005642009109263333,0.23633758455991938,0.0746594474658011,0.003003602746991366,-1.2606612529673864,0.57,0.43,0.39015349132294425,Lift down
0.4809618498119735,0.44714355468,0.51135253906,0.00043449101481180094,0.020706859437751624,0.5424130088373683,0.49133300781,0.56481933593,0.0002747716087901604,0.016466820970819678,0.7034028705757894,0.68103027343,0.73132324218,0.00013991181003630292,0.011750355959178607,1.0104674747592104,0.98523331113,1.03180559681,0.00010665840700055531,0.010259386283225851,973.9505653142754,973.82621577587,974.07784065007,0.005454073763160137,0.2516248742000471,0.07336422585087028,0.003332163826036168,-1.1205562078743672,0.5,0.5,-0.04402938564460698,Lift down
0.4018541273134066,0.20153808593,0.51770019531,0.00859467701614216,0.09219669200120346,0.5635704627372528,0.5126953125,0.62451171875,0.0013833347548832214,0.03698828563289098,0.747692736945824,0.68969726562,0.84985351562,0.0028401394866914126,0.05299933171901167,1.0247237762085715,0.98616202438,1.07372411957,0.0007697689163417385,0.027591845122446234,974.2047911125214,974.07784065007,974.322462081,0.004963645252759401,0.24462143093001032,0.0700649677123402,0.0026548942891994384,-1.0802080936383263,0.46,0.54,-0.14974335870461622,Lift down
0.2526123046845263,0.08654785156,0.36242675781,0.008684968821497784,0.0927013920988297,0.5893580386479998,0.4423828125,0.78332519531,0.010674535904314792,0.10277243000182441,0.8184017783673683,0.58435058593,0.9541015625,0.014374722435467537,0.11926193679345382,1.0552314690234734,1.00923760515,1.10949958853,0.0008115646339693094,0.028337640133726374,974.3999943459742,974.322462081,974.44602471101,0.001464698645165855,0.1235626300099284,0.038069420335624035,0.0013501282321802335,-0.955267790085625,0.42,0.58,-0.5426767501898028,Lift down
0.42491096047552934,0.32666015625,0.5126953125,0.0030900292411240263,0.055260075605579224,0.6735193589119998,0.63610839843,0.71105957031,0.0003627824599947796,0.018934477311340403,0.6146613625888235,0.552734375,0.6767578125,0.001432725369794974,0.03762804508885827,1.0082730468258827,0.97322734474,1.02989807522,0.00020214318541158906,0.01413382574850489,974.4567580286506,974.44304042672,974.46626328997,4.975609635617759e-05,0.023222863249998227,0.007012184432592539,0.0002482093804801933,-0.9268736050417483,0.51,0.49,-0.3470410245065851,Lift down
0.33961815169746845,0.25439453125,0.43347167968,0.0018906349128485374,0.043205356442738964,0.6955705473655696,0.63562011718,0.78149414062,0.0014999547018058228,0.03848334618284296,0.6439023561073416,0.39221191406,0.72424316406,0.005821284609139564,0.07581291092016208,1.0108412172054433,0.88421948315,1.04266795989,0.0010780677742992847,0.032625470828426505,974.4702251696693,974.46285487464,974.48228729617,3.0605066563258556e-05,0.01943242153004121,0.005497059273592975,0.00018655126783333526,-0.20874485041627988,0.62,0.38,0.8898303123465322,Lift down
-0.9561877128373075,-0.99035644531,-0.94079589843,0.0001213017167513309,0.01094287743404678,0.42486259264448717,0.39514160156,0.443359375,0.00014183224190985385,0.011832746081704218,0.03703268979999999,0.01684570312,0.06091308593,8.801055766080289e-05,0.009321063092693456,1.0471197396091025,1.03673525885,1.06978826841,6.22769286840595e-05,0.007840823076784947,974.4949094098804,974.45055719054,974.5478931745,0.0006517220352363002,0.09733598395996523,0.025364672766037065,-0.001065755999136589,-0.419737553905835,0.47,0.53,0.2685048275880423,Lift up
-0.9412936740412221,-0.96228027343,-0.92321777343,0.0001459042101179746,0.012011788052899321,0.410965983069111,0.39685058593,0.42553710937,6.901898075051309e-05,0.008261483110593309,0.037947591142333335,0.02575683593,0.05419921875,7.083784329705194e-05,0.008369632975782564,1.0278510110557777,1.00921844768,1.05194090911,0.0001736541774874932,0.013104376621057602,974.3543578725457,974.26035890714,974.45055719054,0.0031580290034471624,0.19019828340003642,0.055883269341527875,-0.0021429591233104645,-1.1643904672965553,0.51,0.49,0.040055227741704565,Lift up
-0.46189735813915805,-0.94543457031,0.11279296875,0.18254914867270886,0.42500303373820797,0.6851061369207367,0.38952636718,0.99035644531,0.039259960136178634,0.1970956554516184,0.3318256578911578,0.03979492187,0.59606933593,0.0368559614977027,0.19096597604875376,1.023342492211684,0.95724175921,1.12134696014,0.001556665214247719,0.03924639174018497,974.1300026888083,973.99549451802,974.24835606658,0.007981676339990286,0.252861548559963,0.08886877232361308,-0.0031223730269229794,-1.6215734259215566,0.46,0.54,-0.10328163442277079,Lift up
0.19514500817267444,0.13098144531,0.26977539062,0.0013590651562838975,0.03665053987421323,0.8852851335363954,0.7392578125,0.962890625,0.002767616575689801,0.05230138609635872,0.4005566973969767,0.33044433593,0.50756835937,0.0020045157434832772,0.04451075623806716,0.9929703792793027,0.85796401626,1.04749537348,0.0023541134732220147,0.048236294019572946,973.8758081516314,973.77831130871,973.97680001236,0.004287554626756286,0.19848870364990034,0.0650976139378292,-0.0026091041425272193,-1.2718185490677956,0.55,0.45,0.07906045991015397,Lift up
0.177719116209,-0.12048339843,0.30187988281,0.023962184361540375,0.1538267111298331,0.8708419799763749,0.72338867187,1.15209960937,0.016787150744927034,0.1287529081637205,0.4219573974579999,0.07043457031,0.59741210937,0.0399845803747524,0.1987077580772024,1.0224182770135,0.92653118614,1.15546399541,0.002413662774472657,0.04882101995853578,973.7136010455594,973.61093178634,973.85095524994,0.0031255229167052507,0.24002346359998228,0.05555586269914666,-0.0008036045649647448,-0.10502949903758818,0.41,0.59,-0.005610725655294668,Lift up
-0.004248288598415841,-0.13537597656,0.0703125,0.0062065082841961175,0.078390418465045,0.9002020807507921,0.83374023437,1.04699707031,0.0038253422155143557,0.06154240440633778,0.42284551941188103,0.20983886718,0.55163574218,0.008437321894398804,0.0913990374886968,1.0031465108702968,0.95577952211,1.10742947072,0.001175190005166884,0.03411091409741567,973.3452273753802,973.248217432,973.54399625814,0.013218496672956359,0.2957788261400083,0.11440113840462263,-0.0034752086781440756,-1.0263156963577043,0.7,0.3,0.8556373482777552,Lift up
0.059425184458,0.01745605468,0.09313964843,0.00033992558866863297,0.018334356756740226,0.8244032118009998,0.74938964843,0.86853027343,0.0008095841878178541,0.028294678085343385,0.5346381293367777,0.44445800781,0.62780761718,0.002444867776700881,0.04917013910069792,0.9859754396423333,0.94309382521,1.02250680028,0.0004214932226583463,0.0204159242903379,973.1830636224755,973.1309329299,973.248217432,0.0011571448328382631,0.11728450210000574,0.03382732132506133,-0.0012795407976015124,-0.841847022986161,0.51,0.49,0.27824388904695235,Lift up
0.076287841793625,0.02111816406,0.1015625,0.00045092192634180227,0.02110178670782476,0.8378906249962499,0.80517578125,0.89343261718,0.0006457389909749787,0.025252074243273394,0.5652633666961251,0.4873046875,0.62353515625,0.0017492670211962471,0.0415620161136499,1.0148751842741248,0.9899719086,1.04958675517,0.00026877974809286047,0.01629171572430908,973.1188096452008,973.10703643316,973.13213169242,4.237575957693032e-05,0.025095259259956038,0.006468853266400366,-0.0002353623424891679,-0.055997205509030756,0.59,0.41,0.30971925507394427,Lift up
0.023873034815185185,-0.01379394531,0.04956054687,0.0001937374242126036,0.013832772829790712,0.5760513117245678,0.45300292968,0.79113769531,0.016565852423565362,0.12791143704523897,0.793912157595926,0.60815429687,0.90844726562,0.010244054724333838,0.10058620637504086,0.9942808463139505,0.93954779768,1.05121275398,0.0007871320890663185,0.027882152157865946,973.1196241295495,973.10415881509,973.13092124931,6.99748314396151e-05,0.026762434219904208,0.00831329926273069,0.0001922466286427439,-1.1071859624536902,0.48,0.52,-0.4031419704689156,Lift up
-1.2069702148400003,-1.89624023437,-0.31958007812,0.14168978148479897,0.374272187494025,0.23283524946545456,-0.18469238281,1.02197265625,0.06836006128545434,0.25996777186261094,0.08415083451329546,-0.30590820312,0.34680175781,0.013805955367834478,0.11682923226394075,1.274216118870909,0.33931895546,1.9134490334,0.11708650902412819,0.34022930578139554,973.1819360582144,973.13729074736,973.44142242624,0.003856127103980585,0.3041316788800259,0.06174388615724627,0.0009534143569719603,11.241767984990128,0.64,0.36,3.301877229308012,Stairs down
-0.5843413147694935,-1.234375,-0.22668457031,0.03365949246048364,0.1823003646065125,0.8473657535570883,0.130859375,1.41296386718,0.06106747125369619,0.24554931335367144,-0.07163209552924055,-0.41137695312,0.18481445312,0.028464715096220117,0.16764367642980416,1.0701561560508857,0.65625745905,1.48951803466,0.04153854607463735,0.20251602823960807,973.2314216423855,973.18579127276,973.44142242624,0.0023573416341753695,0.25563115348006704,0.04824418997821564,-4.486581346440561e-05,10.795944206023755,0.61,0.39,3.0482528082472373,Stairs down
-1.1680501302048147,-1.84716796875,-0.66369628906,0.08408329412374252,0.2881756907932904,0.26626699941851856,-0.07409667968,0.88012695312,0.060708390466129324,0.24486507338548377,0.21588511525580245,-0.15295410156,0.54797363281,0.028217119382682863,0.16693938985191967,1.248996998675309,0.67018646042,1.91008323498,0.09388405718509937,0.30450779095240804,973.3331757551106,973.2378669215,973.41774181252,0.0029780843102639254,0.17987489102006293,0.05423391777566603,0.0021215071946262963,-1.0216158132220998,0.48,0.52,-0.38619588057344867,Stairs down
-0.7949477686990909,-1.71520996093,-0.17712402343,0.2126836330534725,0.45884127269425085,0.653517597849596,0.00537109375,1.83349609375,0.2346901150706338,0.48199534006844724,0.16614509351141415,-0.20983886718,0.40209960937,0.031431744541180105,0.17639232458380177,1.2024802244027273,0.55261053848,1.86595401163,0.11581159531862628,0.33858792244334224,973.5172972856843,973.39814472762,973.84849556145,0.01956238594815066,0.4503508338300435,0.1391574147865953,0.0031355781566331964,1.4510243532649625,0.85,0.15,1.7777062459798272,Stairs down
-0.5075738456786517,-1.16870117187,0.45642089843,0.237223020975701,0.48431146359933175,1.0747522932739326,-0.20043945312,1.98217773437,0.2860648988936706,0.5318370864715536,0.3378124451347191,-0.19982910156,1.43884277343,0.17165864402756517,0.41198288219083407,1.4487525491904496,0.74716613753,2.25027122452,0.11640307527595845,0.3392567988320303,973.5235645056293,973.29151471718,974.33214514053,0.07495023013754115,1.0406304233499668,0.2722280160458607,-0.003846379694836194,3.321505692724375,0.8,0.2,2.0495588709231765,Stairs down
-0.99685932677,-2.35961914062,0.28112792968,0.3842239398547048,0.6160198328174181,0.8558213975669136,-0.12951660156,1.916015625,0.35604846030399445,0.5930032042917149,1.2815875771553087,0.30017089843,2.10949707031,0.3284576189780767,0.569563505366183,2.0457720024612347,1.36123432509,3.3279387395,0.24196546308214387,0.48885400186851097,973.5090814400427,973.45572085551,973.62661565029,0.0008594442522206469,0.17089479477999703,0.02913475294821848,0.0006237806418539004,1.9028605101970024,0.36,0.64,0.19333909310642455,Stairs down
-1.0863332647998947,-2.13525390625,-0.03747558593,0.393181941837341,0.6237332639476932,0.575682308796421,-0.109375,1.62145996093,0.25978293967090266,0.5069993909377101,0.22847193667526317,-0.28735351562,0.43347167968,0.03364685270183645,0.1824628052644566,1.4176140311710532,0.40110343193,2.186705261,0.23596808418579066,0.4832020380911218,973.5444901907794,973.48235493042,973.68662584764,0.0030852538523237637,0.20427091722001478,0.05525194563075144,-0.0007008796774725622,0.786838898972634,0.71,0.29,1.3441202149567706,Stairs down
