avg_accX,min_accX,max_accX,var_accX,std_accX,avg_accY,min_accY,max_accY,var_accY,std_accY,avg_accZ,min_accZ,max_accZ,var_accZ,std_accZ,avg_magnitude,min_magnitude,max_magnitude,var_magnitude,std_magnitude,avg_pressure,min_pressure,max_pressure,var_pressure,range_pressure,std_pressure,slope_pressure,kurtosis_pressure,Pressure_below_avg,Pressure_above_avg,skew_pressure,Label
0.11603759765240002,0.09753417968,0.1337890625,8.780401764911581e-05,0.009323410184724506,0.7593090820270999,0.72888183593,0.80004882812,0.00017094209338370682,0.013008945862362167,-0.6801147460902999,-0.70166015625,-0.65747070312,7.881946636313392e-05,0.008833531100273694,1.0260437674736,0.98868559304,1.06623632872,0.00014085971441161275,0.011808942258623192,968.8894309066128,968.87543335586,968.9142665385,0.00014798371208389299,0.038833182640019004,0.01210387850910005,1.2988136657778533e-05,-0.8468831122678298,0.61,0.39,0.669145192116696,Lift down
0.12449096679329999,0.10620117187,0.14318847656,0.00012228014943679077,0.01100260641586451,0.7257861328082998,0.70788574218,0.75378417968,0.00013429032430430725,0.011530282783230608,-0.6391577148411,-0.66357421875,-0.62622070312,8.530327165894406e-05,0.009189681112114533,0.9751555216042,0.95973580903,1.01317272502,0.00019824194516294697,0.014009265709212512,968.90581996164,968.87486294516,968.96184900053,0.0007017700304938316,0.08698605537006188,0.026358154908659545,0.0008316615871407065,-0.6891295499989138,0.63,0.37,0.6915197029979221,Lift down
-0.1215686035164,-1.16638183593,0.86279296875,0.3505174989911094,0.5890775195177612,0.7741625976524,0.15686035156,1.8759765625,0.12640942763254417,0.35375886328997996,-0.2013500976542,-0.67614746093,0.43615722656,0.10313745743569307,0.3195404244557113,1.0494533029479,0.3089800481,1.97031897514,0.1288485049903439,0.3571554562658122,969.0192246698222,968.81316645779,969.21551251009,0.01240677518772207,0.402346052300004,0.11082737674349623,0.0030682065887659956,-1.1198548964815533,0.55,0.45,0.00972237406848971,Lift down
-0.9223681640582001,-1.04052734375,-0.8583984375,0.0014585599514556626,0.03799966252404231,0.4248974609331999,0.37255859375,0.48425292968,0.0009151182752586577,0.03009928724249249,0.10922607421620001,-0.107421875,0.19360351562,0.0037636286018853512,0.061040906905668574,1.0236604332836001,0.97306892342,1.13761767339,0.0014408775331067704,0.03776862133803275,969.3143139323907,969.16976797746,969.44978361591,0.006421488924121955,0.28001563844998145,0.07973251554341387,0.0027181574765788212,-0.8591581630237664,0.43,0.57,-0.2621296085481512,Lift down
-0.9179016113243,-0.94018554687,-0.90063476562,0.0001213741347590204,0.01096176962955481,0.4230712890580999,0.38122558593,0.45471191406,0.0004389665343564479,0.020846507357657865,0.1113696289022,0.06872558593,0.14697265625,0.0005617636081374943,0.023582747339021364,1.017342079955,1.00438519938,1.03423886224,6.247831164385264e-05,0.007864701426463316,969.5405663581414,969.44978361591,969.64428086201,0.0033869231509012125,0.1944972461000134,0.05790556034952257,0.001995817631948385,-1.1781797649341408,0.55,0.45,0.07691427462978018,Lift down
-0.9205480956997999,-1.02954101562,-0.85607910156,0.001720900383504578,0.04127579653585782,0.42502441405889985,0.27746582031,0.73400878906,0.003410631358004663,0.05810787420328347,0.07195312499769999,-0.11401367187,0.26977539062,0.007821865249795555,0.0879979920071907,1.0219601072547997,0.95074789479,1.19053130619,0.0016699024657451486,0.04065960453678438,969.7703551867069,969.64428086201,969.96220257475,0.004892246132989094,0.31792171274003067,0.06959399163476114,0.00215579105852176,-0.6927365146400368,0.55,0.45,-0.022271045089730355,Lift down
0.2137976074192,-1.0126953125,0.716796875,0.4123873663203302,0.6389550004946568,0.7685754394504,0.55798339843,1.2568359375,0.040128515842926496,0.19931691018199443,-0.2170080566391,-0.45690917968,0.28344726562,0.05221900459799543,0.22736933511803098,1.0627430408173,0.63557828088,1.5904885983,0.054318067475177534,0.231894128430251,969.9861802632768,969.88796623054,970.22146504959,0.009802697951523632,0.33349881905007805,0.09851228843148653,0.0021643497042929433,-0.08093484897803238,0.72,0.28,1.0899231178103652,Lift down
-0.33185913085900004,-1.03735351562,0.76843261718,0.43904666047988467,0.6592846076430768,0.7438330078091999,0.4384765625,1.40832519531,0.07559482993513941,0.2735669600587542,0.042420654296000004,-0.43432617187,0.71728515625,0.0887279099554196,0.29637920111887983,1.0958721764716999,0.65595568006,1.7593151748,0.0622398155102149,0.2482285587016787,970.1142236065259,969.90999527196,970.29589442888,0.015342013703265276,0.3858991569200043,0.12324201218023269,0.003628220376141251,-1.0742158740254812,0.35,0.65,-0.43220515302257195,Lift down
-0.6974804687462001,-0.89489746093,-0.52038574218,0.024827604678976205,0.15677795965054028,0.6641882324170999,0.45922851562,0.82727050781,0.015375336449267418,0.12337577997635818,0.2667187499969,0.13232421875,0.46142578125,0.01737854935883587,0.1311669312946198,1.0265162077868,0.90152254759,1.10404243385,0.002054600707097233,0.04510049556297869,970.4206892095249,970.27457166214,970.52721712179,0.0056940354368342876,0.2526454596500116,0.07508059058415793,0.00245775306817957,-1.2661640089861124,0.43,0.57,-0.36732849511841165,Lift down
-0.3474108886687002,-0.53381347656,0.03430175781,0.04781741761588552,0.2175758337677387,0.8531433105419001,0.74719238281,0.95092773437,0.00692271294460059,0.08278578268733457,0.3914916992153,0.33227539062,0.47680664062,0.002800611986133869,0.05265553974913305,1.0283969305818,0.9761814671,1.11673736173,0.001190578521672841,0.03433180357126774,970.6097941219658,970.48954051369,970.72520948455,0.003989162172306548,0.23566897085993332,0.0628432219939707,0.0018783817620873582,-0.4240596389811002,0.59,0.41,0.15411662797112097,Lift down
0.30000366210480006,0.03088378906,0.56225585937,0.018940589239914353,0.13693496028230048,0.9414636230433999,0.74853515625,1.09069824218,0.009257804701800883,0.09573519026347038,0.24190185546479995,0.03723144531,0.4814453125,0.017458766464100658,0.13146930744268662,1.0363174136538,0.89717007677,1.20170441274,0.006181076187370791,0.07822573378049633,970.8255561872994,970.55731439225,971.50432815655,0.0727393615078166,0.9470137642999816,0.2683504572247613,0.0014987343528694709,1.597100952014081,0.84,0.16,1.775422252786248,Lift down
0.5801452636684,-0.11730957031,0.8369140625,0.025757862875714087,0.15968808423597844,0.7353112792925001,0.16064453125,1.16674804687,0.06653776796590279,0.25665617133870705,-0.02354614257919999,-0.31677246093,0.21423339843,0.01836675733383089,0.1348446875501315,0.9698505491718001,0.48499168086,1.27545624428,0.04722353718010734,0.21622049349750885,970.8855797418946,970.73802385639,971.04469790453,0.007167741564153768,0.30667404814005295,0.08423813951240988,0.00244499336354589,-0.692593559919989,0.56,0.44,-0.002430483212114376,Lift down
-0.8017114257772998,-1.35241699218,-0.11730957031,0.06509701494577394,0.2538622555566625,0.6617639160119998,0.4375,0.84155273437,0.02055594958902919,0.142654793446063,0.2492822265584,0.02880859375,0.740234375,0.03234162634065185,0.17893632967411996,1.1053080703051001,0.74687750827,1.72236165838,0.03830609487218698,0.1947383730122677,970.9810939691737,970.82796085335,971.129891557,0.006514818259652673,0.30193070364998675,0.0803098379842479,0.0016750526817574441,-0.5237176766162346,0.48,0.52,0.03347201175453428,Lift down
-0.9314306640581997,-0.95007324218,-0.92358398437,5.056222279306838e-05,0.007075068944196777,0.3843701171836,0.37329101562,0.41284179687,8.34516563911981e-05,0.009089397110220575,0.144221191403,0.13354492187,0.16235351562,7.234150111179112e-05,0.008462746959508669,1.0179388196344001,1.00789226541,1.04739484405,0.00010916393138461483,0.010395782417440675,970.9814820125981,970.96215409202,970.99747797478,7.362908403643891e-05,0.03532388276005349,0.008537727636559656,5.254164722164701e-06,-0.012951716354078435,0.64,0.36,-0.20653626861946708,Lift up
-0.9588574218706001,-0.97302246093,-0.92102050781,9.334566615376767e-05,0.009613126936238281,0.41977050780939995,0.39575195312,0.42956542968,0.00011444968406611427,0.01064449093312842,0.1648999023402,0.14892578125,0.18542480468,0.00010921678760915191,0.010398298886503522,1.0597030370650002,1.01572381052,1.07490804578,0.00015164418936643585,0.012252662872729808,970.9524279082439,970.87366264849,970.99887930528,0.001272974740872431,0.12521665678991667,0.035499929485334286,-0.0011714094907609872,-0.5877986605603276,0.37,0.63,-0.6454571571226612,Lift up
-0.9193725585901998,-0.93078613281,-0.90966796875,2.751702612475771e-05,0.005219373129362389,0.40256835937099994,0.38928222656,0.41821289062,6.84137055444484e-05,0.008229797597086086,0.15595458984,0.14733886718,0.16491699218,3.4160138376868664e-05,0.005815370752849725,1.0157433861332,1.00832461866,1.02705308116,2.3417207971003e-05,0.004814876518800142,970.7760236370132,970.66885195119,970.87366264849,0.003629802299144524,0.20481069729999035,0.05994584452781593,-0.002056740644867361,-1.1296379440308806,0.53,0.47,-0.24987666736178188,Lift up
-0.9194531249965999,-0.92663574218,-0.91235351562,1.019200892654425e-05,0.0031764900184446995,0.4031103515585999,0.39208984375,0.41955566406,6.101290385007102e-05,0.007771922208280929,0.1568115234346,0.150390625,0.16625976562,1.665438063637843e-05,0.004060521743571219,1.0161412886432,1.00848254766,1.02663185924,2.5980503410946235e-05,0.0050715577860098145,970.5663885800515,970.46150377702,970.66887307985,0.004226496485779053,0.20736930282998856,0.064685636125196,-0.002229522527792658,-1.3139052253669117,0.49,0.51,-0.05252938568893256,Lift up
-0.914433593746,-0.92309570312,-0.89343261718,6.446932301235252e-05,0.00798903184260953,0.4026074218714,0.39147949218,0.41296386718,2.7041459319717194e-05,0.005174074286915489,0.163544921872,0.150390625,0.21655273437,0.00014665666252001953,0.012049485295846431,1.0125385750437998,0.99695156783,1.01990617603,3.0196774969352966e-05,0.0054676143993207344,970.3494780665043,970.2263165446,970.46150377702,0.004516250968257027,0.23518723242000306,0.06686619817646623,-0.0022994983450523527,-1.0218130675681845,0.49,0.51,-0.196931824540481,Lift up
-0.9152734374956001,-0.9326171875,-0.90502929687,6.264920187184292e-05,0.007875449819097605,0.3939648437465999,0.36254882812,0.44067382812,0.0006161679884729309,0.024698305783761802,0.2165698242154,0.14294433593,0.26818847656,0.0016320552549608216,0.040196202586951085,1.0207881318315999,1.00421765614,1.03982250842,0.00011677362562434355,0.01075201792074865,970.1314529402387,970.01686987698,970.24056406274,0.004177808100978103,0.2236941857599959,0.06431197415698202,-0.002203201754794311,-1.0829574967264448,0.49,0.51,0.1733240972776336,Lift up
-0.9265063476534,-0.93591308593,-0.91638183593,3.2572077981090565e-05,0.005678587606199244,0.3833618164023999,0.36328125,0.40478515625,0.00011524241981368554,0.010681291851435792,0.1593945312454,0.14306640625,0.16979980468,4.865217690143527e-05,0.006940148062716019,1.0153600537844,1.00697982011,1.02424522004,2.5630599845219113e-05,0.005037290327821787,969.9246611436373,969.7997708649,970.01686987698,0.003649784336283906,0.21709901207998428,0.06011061880334511,-0.002051823890261457,-1.3071083602959104,0.53,0.47,-0.09137162093699279,Lift up
-0.9244506835898001,-0.93737792968,-0.91625976562,2.2643292787693212e-05,0.004734644639232841,0.38389404296479995,0.37658691406,0.39270019531,1.5030611640269762e-05,0.00385749990588037,0.1627368164032,0.15112304687,0.17492675781,3.268321956992767e-05,0.005688267519572932,1.0141583859984002,1.00780239395,1.02698800052,1.9591605960975722e-05,0.00440405380318701,969.7029920079752,969.59395024407,969.7997708649,0.0037844771677531,0.205820620829968,0.06120974102277814,-0.0021126253198335493,-1.164636420100187,0.49,0.51,-0.05933573910975978,Lift up
-0.9247338867153999,-0.93127441406,-0.91796875,1.5899442668474174e-05,0.003967423375667063,0.38222656249699993,0.36962890625,0.39013671875,2.626457600418245e-05,0.005099208786090311,0.1671704101524,0.15283203125,0.17993164062,4.136334163452975e-05,0.006399195904032354,1.0145161263741997,1.00869036299,1.02390155026,1.5731072000882215e-05,0.003946360510758412,969.4902634904538,969.36408718007,969.59395024407,0.004398310466985431,0.22986306400002832,0.0659873272857416,-0.0022748420530115067,-1.1348254611937603,0.45,0.55,-0.1311036699844261,Lift up
-0.9309399414027999,-0.97338867187,-0.91748046875,0.0001847044446188594,0.013522477590022872,0.4073535156205999,0.36840820312,0.90258789062,0.008900123389032594,0.09386757776326321,0.146572265621,0.12658691406,0.20397949218,0.00018744338640594915,0.013622369564135662,1.0294238627346,1.00310417522,1.34250985627,0.003571262198792655,0.05946048752579084,969.2738570832485,969.18614643908,969.36408718007,0.00317176452360332,0.17794074099003865,0.056036121193095506,-0.0018789008776498746,-1.4379850183925649,0.53,0.47,0.20038905366824727,Lift up
0.043625488279000015,-0.97265625,0.30700683593,0.12979984276640483,0.3584715390916562,0.9001171874962001,0.68835449218,1.04577636718,0.007728002023188807,0.08746840574148428,-0.19626220702959998,-0.41772460937,0.22863769531,0.04233335322123956,0.2047193681336164,1.0028575754844,0.69666957222,1.409918271,0.02320430069251375,0.15156601758174096,969.0682315952653,968.84525273267,969.30972407079,0.02440520922891289,0.4644713381200063,0.15543859603272206,-0.004986151965851957,-1.4302138946531822,0.53,0.47,-0.028737490049892223,Lift up
0.1120288085908,0.05334472656,0.26049804687,0.004085081881894506,0.0635942691056007,1.0021215820278,0.87548828125,1.03442382812,0.0010520429864025193,0.032272628596668324,-0.0727832031222,-0.279296875,-0.00793457031,0.003961086610366746,0.06262168749134024,1.0152122410678,0.95401154389,1.07013554746,0.000451362348168728,0.0211387966707436,968.806169876384,968.74815426145,968.95671642706,0.0029633084415790585,0.20856216560991925,0.054163413455609204,-0.0015919721869979925,0.7928878334443339,0.57,0.43,1.2252530248931024,Lift up
0.02977050781,-0.01135253906,0.08276367187,0.0007962034446497571,0.028075637307161158,0.9886572265585998,0.95397949218,1.03820800781,0.000607212890270173,0.024518172064154197,-0.1096264648404,-0.1767578125,-0.02111816406,0.0019444669195999211,0.043875075503113634,0.9965796565887998,0.96081339026,1.04026543387,0.0004957061112097214,0.02215285647715942,968.6147967095625,968.45188804311,968.74815426145,0.007455178378605833,0.2962662183400653,0.08591057324229524,-0.002732309279558059,-0.9686706570465451,0.41,0.59,-0.3354094074453625,Lift up
0.054523925776399994,0.01062011718,0.09313964843,0.0007269428294005517,0.02682672922863587,0.9967602539019998,0.95129394531,1.02563476562,0.0003071621271075051,0.017438191013876128,0.0045922851556,-0.11206054687,0.11218261718,0.005965645800296546,0.07685043488682143,1.0015321482138,0.95272682815,1.03436670242,0.0003919804720804238,0.019699255502673686,968.4878754911223,968.3945476295,968.5893664772,0.004023993427341058,0.19481884769993485,0.06311698260426941,-0.00021722837113439335,-1.301069842823153,0.47,0.53,-0.05015590756570932,Lift up
0.047199707028,0.01416015625,0.09423828125,0.0007826508957473064,0.02783566752908637,1.0180908203085999,0.99487304687,1.03649902343,9.004937278274202e-05,0.009441868409108156,0.0004150390638000001,-0.09069824218,0.13818359375,0.006335566139624103,0.07919728832622909,1.0226099235600001,0.99687822903,1.04780931912,0.0001434656327719068,0.011917674959663388,968.4865647003229,968.36865434505,968.5893664772,0.003404690755010425,0.22071213214996988,0.058057246295878696,0.00012699415010863758,-0.4941447043446163,0.49,0.51,-0.412690802197462,Lift up
0.10147949218420002,0.06530761718,0.14929199218,0.000322117010728231,0.01785765495861505,1.0027197265598,0.98828125,1.05712890625,0.00030150018556173455,0.01727672375498657,-0.189599609371,-0.22045898437,-0.10131835937,0.001115623748665747,0.03323352992354393,1.0262557147818,1.01342383788,1.07423907174,0.00021616732629612892,0.014628932053747726,968.4600210278463,968.44083299068,968.46932634281,6.11421895924984e-05,0.02849335212999904,0.007780152164101511,0.00016496593635481,0.88566785536598,0.32,0.68,-1.40190435810102,Lift down
0.11006347655960001,0.091796875,0.12731933593,8.78035179146213e-05,0.009323383652702225,0.9627685546826001,0.93286132812,1.01159667968,0.0005015736878102559,0.022283580298779485,-0.18698974608999996,-0.22045898437,-0.16381835937,0.0003052683129541108,0.017384350140990882,0.987069316013,0.95975652091,1.04204651423,0.0005881700527633288,0.024130651715933732,968.4587577412951,968.44068362324,968.48956705206,0.00017468459771275436,0.04888342881997687,0.013150579901115648,0.00024183655503397735,-0.018775176748622613,0.48,0.52,0.5678048148303476,Lift down
0.1327124023392,0.11462402343,0.14245605468,4.517772584417947e-05,0.0066877461514128714,0.9937573242150001,0.94543457031,1.02478027343,0.00040523994453672157,0.020029666624568527,-0.18104492187120003,-0.19360351562,-0.1728515625,3.1245862592922875e-05,0.005561780647148325,1.0188279754477998,0.96991581909,1.05095437903,0.00041400832653101387,0.020245202969239498,968.589836096939,968.48956705206,968.68711029651,0.00318020267483439,0.19754324445000293,0.056110610833300024,0.0019184421035815414,-0.9198188766752415,0.58,0.42,0.2195475193597076,Lift down
0.14885253905940002,0.12512207031,0.171875,0.00014303067715853356,0.011899595387530965,0.9989062499961999,0.98840332031,1.0244140625,6.337235674126567e-05,0.007920772258678634,-0.157702636715,-0.18200683593,-0.14099121093,9.532182507712316e-05,0.009714350561223942,1.0222910132882002,1.01132139113,1.04871486428,6.130106559687829e-05,0.0077902538431625905,968.8022259273287,968.68711029651,968.9155896588,0.0038078501149042816,0.2284793622899315,0.06139846589089371,0.0021105776624163694,-1.1322314102306663,0.5,0.5,-0.11115660114620773,Lift down
0.14847412109040004,0.13781738281,0.171875,7.946157096385424e-05,0.008869439399094833,0.9962109374961998,0.98767089843,1.00500488281,2.6573412345044185e-05,0.005129101112436149,-0.1746752929646,-0.18286132812,-0.1640625,2.114062959385444e-05,0.004574846805950545,1.0222974930810003,1.0133065758,1.03104855997,2.6256658349500957e-05,0.005098440130668002,969.0086101135926,968.9155896588,969.12561496383,0.0032090251373450493,0.210025305030058,0.056364305069534916,0.0019394697787667625,-1.0417548803689392,0.54,0.46,0.06660797825600391,Lift down
0.148260498043,0.1416015625,0.15441894531,1.5052994992497762e-05,0.003860371101665329,0.9990612792938001,0.98962402343,1.00805664062,2.8789854706007865e-05,0.005338722333943561,-0.16852905273069996,-0.17883300781,-0.15954589843,2.883272188760534e-05,0.0053426954497453145,1.0239881806695998,1.01329225256,1.03260568172,2.7082163870762435e-05,0.005177966997968876,969.2419471127702,969.12561496383,969.34047367248,0.003714432926108966,0.2148587086500129,0.060640651355735584,0.0020591126946543155,-0.7234599132336514,0.5,0.5,-0.24170223184926462,Lift down
0.14870361327800002,0.1376953125,0.16027832031,3.312012763793883e-05,0.005726161573127276,1.0005346679654,0.99072265625,1.00854492187,2.0989799732847394e-05,0.0045584977498644135,-0.1650903320268,-0.17492675781,-0.1591796875,1.4716380770505715e-05,0.0038169643648848306,1.0249282722401998,1.01360062071,1.03275319562,2.7655492724514525e-05,0.0052324886810455095,969.4441141454809,969.34047367248,969.55171207623,0.0036053824764242875,0.21123840375003056,0.05974385869409545,0.002058582401590286,-1.128005232808521,0.42,0.58,-0.08829617498587537,Lift down
0.14401123046439998,0.12585449218,0.15771484375,4.34185579649847e-05,0.006556246821569094,0.9966967773402001,0.97619628906,1.02233886718,0.0001348446174068812,0.01155405432014288,-0.1574340820274,-0.18713378906,-0.12585449218,0.00013417682865630366,0.011525409336320364,1.0193651920965998,0.99892372088,1.04352445478,0.00013445594950463435,0.011537390953312972,969.658044028769,969.55171207623,969.79238890579,0.003898669786465738,0.24067682955990222,0.062126347780962314,0.002112244430991211,-0.8673529067484256,0.5,0.5,0.16231109537582417,Lift down
0.19485107421460002,0.11315917968,0.69885253906,0.014369171851949927,0.11927061722582989,0.9676123046832,0.10095214843,1.25891113281,0.04550080976103569,0.21223996245623805,-0.18906738280860005,-0.39428710937,-0.14685058593,0.00446345791680042,0.06647423062836015,1.0281984856836,0.65858649796,1.30394107916,0.016651482540103842,0.1283937993623633,969.8540714198602,969.79238890579,969.91487554262,0.001609427218323628,0.12248663683010363,0.03991657482976704,0.0004238881875776208,-1.349655362734926,0.5,0.5,0.03651889714581434,Lift down
0.6795629882782,0.1025390625,0.99633789062,0.1198333263932541,0.3444343088737264,0.4170874023402,-0.0107421875,1.05432128906,0.16475493214930112,0.4038655504345575,-0.259741210933,-0.49426269531,-0.16796875,0.006006307072187426,0.0771118927368895,0.9918062325647999,0.72751017263,1.13581949562,0.007315424130476339,0.08510152694970623,970.0869456069752,969.87905860781,970.30426102114,0.012863279842728908,0.4252024133299983,0.1128478933977131,0.003559419728432027,-0.6386689206635654,0.54,0.46,0.07332946922354286,Lift down
0.1665429687474,0.13330078125,0.18603515625,0.0001303640519717517,0.011360475846197385,1.0484545898395998,0.998046875,1.08190917968,0.00022399450189041628,0.014891425615820405,-0.10743164062040002,-0.19323730468,-0.08288574218,0.0005837900711202401,0.024040635815407163,1.0673653245486001,1.02528401865,1.10151430795,0.00019714736469401048,0.013970536533972858,970.3332209182004,970.17273263863,970.37303855489,0.0007370180073417797,0.20030591625993566,0.027011994137204346,0.00017664273721972601,22.210456520339974,0.42,0.58,-4.103201027405654,Lift down
0.1576489257778,0.14831542968,0.1689453125,2.788185471438e-05,0.005253859168957253,1.0084301757771998,0.99499511718,1.02233886718,4.426542557427435e-05,0.006619876986661581,-0.07085693358999999,-0.08752441406,-0.060546875,5.383275373639658e-05,0.007300303158022454,1.0231719867978,1.00982189206,1.03989412972,4.9610022161680546e-05,0.007008132557255445,970.3655419437264,970.35141457911,970.38959537452,0.000146743041976669,0.038180795409971324,0.012053033292781628,0.00039029907773958526,-1.2231283274556954,0.58,0.42,0.48195741909679346,Lift down
0.1505493164032,0.14392089843,0.15869140625,2.061733694027124e-05,0.0045178715752961065,1.0073095703087998,0.98559570312,1.02978515625,0.00010830383110823963,0.010354747355544569,-0.0825439453084,-0.09106445312,-0.072265625,2.1472723798648113e-05,0.004610639495846712,1.0218551025964002,1.00148597222,1.04525253198,0.00011334268821379365,0.01059288729911046,970.3875994210077,970.37614370169,970.40893239703,7.417565638012763e-05,0.03278869533994566,0.008569358191622424,0.0001573803668670544,0.7444123504588678,0.54,0.46,0.8864607342499634,Lift down
-0.4698950195282,-0.6025390625,-0.33532714843,0.005311910486124766,0.07251752464931162,0.7266137695275998,0.53125,1.00964355468,0.017364605562560576,0.13111429939916916,0.5315747070278001,0.39538574218,0.69970703125,0.005582693014605662,0.07434289531932158,1.0210006874864,0.84268967796,1.26840687772,0.01704523406318333,0.12990297041465795,970.3901562595341,970.2957673446,970.44797922095,0.0014810035340255363,0.15221187634995204,0.03829090621394695,-0.0006628705646323257,0.004541169072999729,0.4,0.6,-0.5707476957358119,Stairs up
-0.7297753906215999,-1.16040039062,-0.3515625,0.05000567101397443,0.22249857146470556,0.6139453124965999,0.33837890625,1.01879882812,0.0352506180963239,0.18681036351166563,0.23000488280780002,0.05908203125,0.58679199218,0.02529254164364337,0.15823911092775683,1.0262308004989997,0.80512404405,1.33224887132,0.01888575774172763,0.13673660872023394,970.2826548441633,970.22640680811,970.43118756713,0.0021390384289287872,0.20478075901996817,0.04601791004206405,-0.0007487821408903324,1.3427982983540279,0.64,0.36,1.3542694722496895,Stairs up
-0.17380859375119997,-1.16040039062,0.48120117187,0.34781371243842657,0.5868011377920482,0.8609374999957999,0.44921875,1.23913574218,0.05193879387576552,0.22675847489566484,0.045358886720199984,-0.2685546875,0.70190429687,0.07789380206436437,0.27769563202132064,1.0906906234554001,0.76911665306,1.65084336069,0.05731721613202288,0.2382100836881232,970.2559917267084,970.02717862533,970.7053814818,0.018303183813492465,0.6782028564700795,0.1346111138627028,-0.00289694253740099,3.0184303782765083,0.46,0.54,1.0658377887545596,Stairs up
0.19418945312279995,-1.0751953125,0.56420898437,0.10036885738188367,0.31522241165257403,0.4599023437460001,-0.10693359375,1.26049804687,0.1592605554935398,0.397074237314138,-0.4348950195298001,-1.21350097656,0.38061523437,0.28201435347055565,0.5283883135875075,0.9641602024384,0.5017608096,1.38941598691,0.045430121429657605,0.2120750343990566,970.1478740719639,969.96910280946,970.67536839779,0.02773208449454585,0.706265588329984,0.16569479065317771,-0.002302668091406902,2.399141990333117,0.6,0.4,1.698242933751337,Stairs up
-1.0099853515589,-1.32763671875,-0.67175292968,0.025071466812191363,0.15754603182584273,0.5041394042935,0.201171875,0.89807128906,0.03789437211376054,0.19368899915230842,0.255656738277,0.0712890625,0.4453125,0.00928791280340586,0.09589073821476088,1.1681168392964998,0.7561381809,1.66146128354,0.04709250618064681,0.21592031196448458,970.1041706447027,970.05928768195,970.15517742556,0.0004560363555677215,0.09588974361008695,0.021247964420434355,-0.00012885999140903052,-0.21896723705752086,0.56,0.44,0.7292457091263793,Stairs up
-1.0298242187470001,-1.17358398437,-0.84765625,0.010421194476356291,0.10157254812001483,0.40933837890259994,0.17492675781,0.58801269531,0.012215977515854027,0.1099718952309884,0.1793945312466,-0.01745605468,0.38525390625,0.013079769683407448,0.11379354984608475,1.1332641563575998,0.89150375381,1.29865536221,0.011465001994160836,0.10653803064736661,970.0476396689396,969.9872282257,970.1162794716,0.0011677556526769556,0.12905124589997286,0.034001148453400604,-0.0007783780259660866,-0.514943392823564,0.62,0.38,0.5306485358762068,Stairs up
-0.9781787109340001,-1.2021484375,-0.75402832031,0.01928318182627479,0.13816783275427041,0.40681396484039994,0.23352050781,0.54614257812,0.007189425488998441,0.08436546232972623,0.2001098632774,0.03540039062,0.40612792968,0.012211927410430676,0.10995366358756023,1.0874640607527999,0.88327512181,1.34977216056,0.018277531153994987,0.13451674930080282,969.9750754451511,969.93552706455,970.06903007449,0.001165260374425805,0.13350300994000008,0.033964801937911356,-0.0005213366659607657,0.2265428237171685,0.46,0.54,0.8079197968412559,Stairs up
-1.0183813476522,-1.24841308593,-0.76599121093,0.019344246200846335,0.13838642902697457,0.3922045898402,0.201171875,0.61169433593,0.01500068915600121,0.12186337540229712,0.193505859372,0.09753417968,0.26062011718,0.0016211060562981007,0.040061140719344475,1.1134197552138,0.82099999274,1.3616199208,0.024517532172282905,0.1557958820077093,969.9100333597682,969.85912610543,969.98552588738,0.0013054325501262991,0.12639978194999912,0.03594966237150269,-0.0004326164189988007,-0.4073281138423508,0.64,0.36,0.6772981714503847,Stairs up
-0.9604711914018,-1.18713378906,-0.69470214843,0.02004070395760196,0.14085558887749516,0.43163330077699996,0.23352050781,0.5615234375,0.00842135808082892,0.0913079651510241,0.1544287109338,0.03967285156,0.24841308593,0.002587631398922895,0.05061378354691206,1.0692907696320002,0.83804884441,1.2963438325,0.020219079896107744,0.141481055612215,969.8475245446293,969.81595277173,969.96708904652,0.0010316626309817814,0.15113627478990566,0.03195850441857321,-0.0003819569913843519,2.1456544160129516,0.54,0.46,1.353227220888898,Stairs up
-0.9813549804651999,-1.17199707031,-0.79602050781,0.011857258436531699,0.10834521610189525,0.4162988281205999,0.22839355468,0.58874511718,0.01355010478203839,0.11582143037546205,0.1622094726532,-0.00500488281,0.29418945312,0.008274183544140123,0.09050658378647777,1.0878215327136003,0.87577849055,1.29373041059,0.012791181069303945,0.1125311923806502,969.8451532805167,969.80969233805,969.9606913704,0.001633642691257414,0.15099903235000056,0.04021574647255525,1.9227469018325684e-05,1.5126503996293614,0.68,0.32,1.5471832177678786,Stairs up
0.130449218749,-1.14392089843,0.77783203125,0.476167082637657,0.6865896968432315,0.7742065429659999,0.43432617187,0.984375,0.022847768182776607,0.15039710935037562,-0.0038427734366,-0.26147460937,0.36010742187,0.03213191046769299,0.17835523923623903,1.059160984345,0.82706442882,1.29373041059,0.02064731279445219,0.14297146451830053,969.830727541814,969.74124105205,969.90848847802,0.001848938652403623,0.16724742597000386,0.04278375002123571,0.00025986520723227433,-0.5742243128075346,0.64,0.36,0.4181309816733042,Stairs up
0.5953759765589999,0.42602539062,0.96606445312,0.020097106056899714,0.14105365998913574,0.8198144531209999,0.49890136718,1.12316894531,0.02650183008194099,0.16197781261988192,0.039365234374199996,-0.12072753906,0.21044921875,0.012865373726420597,0.11285707770962525,1.0370691652252,0.81416705479,1.22696512745,0.011591036356844548,0.10712201451277932,969.8081668306634,969.70369421358,969.99294882766,0.007695791483084081,0.2892546140800505,0.0872859299558253,-0.0003188999209698306,-0.12937040304928837,0.66,0.34,0.951275960990945,Stairs up
0.6337023925741999,-0.07153320312,1.03002929687,0.09044543730290075,0.29923399360679553,0.6257922363239,0.23913574218,1.11083984375,0.0719018670334182,0.26680114010829115,0.3462145996070001,-0.25903320312,0.57568359375,0.047252500807243025,0.21628679062571204,1.0550189696397998,0.88941134194,1.22193868744,0.006264700826857917,0.07875311942132411,969.8526054638493,969.60375156575,970.49893862927,0.06364002790629854,0.8951870635199839,0.2510052342626256,-0.0025688125781993436,2.0255908844052737,0.66,0.34,1.771629337571611,Stairs up
-0.4160375976523,-1.00439453125,-0.01452636718,0.11168724309921203,0.33252123340956724,0.8622998046836,0.62170410156,1.20275878906,0.026262229717276233,0.161243937622794,-0.17608154296550002,-0.34777832031,0.03662109375,0.009282530985647363,0.09586295257184023,1.0397940548650002,0.8253519124,1.24408709831,0.012364598809511513,0.11063883957009128,969.8167257087384,969.77212506722,969.88574297829,0.0008830280150128294,0.11361791106992314,0.029566835049810475,0.00010384863062452063,0.12443598446825543,0.56,0.44,0.6127490692382429,Stairs up
-0.9320117187463999,-1.09155273437,-0.75231933593,0.005833003834166232,0.07599127447164293,0.44890502929289994,0.33227539062,0.62170410156,0.004884311723731937,0.06953753379646575,0.1106054687478,-0.09265136718,0.29296875,0.01283019349985501,0.11270266884531377,1.0482184582542002,0.8323768113,1.18180601995,0.007015390569924745,0.08333808651646316,969.8205749542306,969.76972867577,969.86455292789,0.0005831580719110593,0.09482425212001999,0.024027619340915754,-6.62378603431877e-05,-0.65234901977457,0.56,0.44,-0.07949157112783467,Stairs up
-0.7161877441360999,-1.04431152343,-0.39221191406,0.05125618056059552,0.22526344300616016,0.6518774414026999,0.42846679687,0.95153808593,0.023569101751275544,0.15275277651736083,-0.15729614257790003,-0.58166503906,0.36694335937,0.12097924443358773,0.3460772341389301,1.0677738945961999,0.89586564863,1.37726270834,0.016481365083253353,0.12773625731334395,969.803338601377,969.70761535241,969.99323533158,0.006888306925046237,0.28561997916995097,0.08257980295323897,6.351273018774813e-05,0.16596989124446138,0.68,0.32,1.1358694344707496,Stairs up
0.3199450683596,-0.61401367187,1.13720703125,0.3946077743805066,0.6250293566199123,0.6017358398407999,0.19372558593,1.30419921875,0.1280758851054482,0.3560830328089134,0.1054895019506,-0.52136230468,0.65759277343,0.08652916552130335,0.2926839146008716,1.0237066904758,0.74640295601,1.44646427038,0.03103455694027447,0.1752832318588168,969.607434909108,969.5593928179,969.75034368528,0.001772820184692126,0.19095086738002465,0.041893817954982385,1.382582067627703e-05,0.678317167756076,0.66,0.34,0.9309899068405703,Stairs up
0.9779052734336,0.82495117187,1.12268066406,0.008012067789982603,0.0890614793953187,0.2605200195278,0.13269042968,0.36584472656,0.003920913760150315,0.06230332753993812,0.09478027343300001,-0.01721191406,0.22692871093,0.005150196022202796,0.07140514030502824,1.0203676915094,0.86353464852,1.17399239303,0.009004873269886592,0.09441834851970102,969.5472419326129,969.52218371134,969.59871703682,0.0005176189151080068,0.0765333254799998,0.022637197838003862,-0.0007128367128275112,-1.2155755643094375,0.58,0.42,0.5261376775391184,Stairs up
0.290422363281,-1.298828125,1.16247558593,0.6466832028509089,0.8001352203361628,0.4142846679653998,0.12951660156,0.84680175781,0.04792088733149814,0.21781110728836386,0.2953076171844,-0.01635742187,0.85070800781,0.0652522296371008,0.25416472481587565,1.0219401620530002,0.63186195001,1.58798261143,0.05159554118883589,0.22600793299560865,969.5188979799266,969.45974056495,969.57330173504,0.0007324011645269404,0.1135611700899517,0.026927256690603873,0.00013639824052567783,-0.10231603865427052,0.58,0.42,0.387421193353304,Stairs up
-0.9381811523398997,-1.16430664062,-0.68542480468,0.014902744383694542,0.12146487945022462,0.4073413085901999,0.29028320312,0.5478515625,0.005152012910480323,0.07141773436182024,0.20934082030910006,-0.03662109375,0.39172363281,0.014074791464660353,0.11804254974378413,1.0513214528411,0.82172704169,1.25596476419,0.015431949937262846,0.12360271209763246,969.4882477905674,969.44929926985,969.61280415112,0.0017884491518101499,0.16350488127000062,0.042078078143993794,-0.00012179441976845862,3.3084910041125486,0.76,0.24,2.011055661340985,Stairs up
-0.9434045410118,-1.16589355468,-0.7177734375,0.02146004656832357,0.14575817679512987,0.3923596191372,0.25549316406,0.57043457031,0.008337585701954447,0.09085268210094243,0.14350952147940002,0.05847167968,0.21569824218,0.0016412718894931943,0.04030954192989871,1.0343741958169996,0.77999942823,1.27921611152,0.02600779761129117,0.16046095984749142,969.4417500338631,969.40338851538,969.49151079984,0.0007000074502593936,0.08812228445992787,0.02632503325271973,-0.0005575793745638279,-0.6510029337492367,0.62,0.38,0.5068625929227454,Stairs up
-0.9633508300743999,-1.10314941406,-0.78515625,0.010311921694801817,0.10103861874478391,0.39528198241819995,0.22692871093,0.54675292968,0.010950863474166652,0.10412182691167585,0.1539587402297,0.06066894531,0.27758789062,0.005964657530303669,0.07684406909450223,1.0591585742519998,0.84204078557,1.22399759297,0.013266913114855313,0.1146047293252192,969.4206191870579,969.37763201806,969.51622513027,0.0014499754347861186,0.1385931122099464,0.03788767187936278,0.00032032753688749304,-0.06333573439413076,0.64,0.36,0.9933273520271393,Stairs up
-0.9903540039023997,-1.17199707031,-0.80480957031,0.015423243087951207,0.12356783827951226,0.3985314941366,0.20947265625,0.56494140625,0.012882475556555393,0.11293206276779788,0.16531982421560001,0.03759765625,0.2763671875,0.005608305034115111,0.07451323361506974,1.0870568374968,0.84592576653,1.29438457014,0.01903168145074787,0.13726385043499398,969.4153007535377,969.3809846377,969.47508809053,0.0007411258747208652,0.09410345283004062,0.02708716699792831,-1.1022628274308842e-05,-0.3941504339410482,0.54,0.46,0.6259132001020371,Stairs up
-0.9889562988238001,-1.15270996093,-0.80078125,0.012001198787433462,0.10900085687534354,0.4083642578094999,0.20947265625,0.55615234375,0.00795532383110717,0.0887455384388201,0.1225610351528,-0.01879882812,0.2158203125,0.004275806618388908,0.06506188248279493,1.0816793043032,0.88556241163,1.25831263532,0.01391618582245074,0.11737556800384923,969.4287340520422,969.38853863597,969.52735850915,0.001613837574720299,0.1388198731799548,0.03997122964049387,-8.530752309962494e-05,1.2778332854247445,0.64,0.36,1.4457468327029024,Stairs up
-0.9799951171843998,-1.11242675781,-0.84790039062,0.007632588280657421,0.08692676456564369,0.36086303710459994,0.20886230468,0.48889160156,0.008472624961501248,0.09158547216609321,0.14001098632460002,-0.00061035156,0.25061035156,0.006359032445135896,0.0793438221960887,1.0599282671242998,0.89846168983,1.20294411649,0.009098292251388484,0.0949068455322091,969.4250025330635,969.38291004464,969.50680408665,0.0013642133427134392,0.12389404201007892,0.03675011849350019,0.0002924980052588773,-0.15911245871968172,0.6,0.4,0.9804365328484942,Stairs up
-0.9929443359342,-1.2724609375,-0.7578125,0.02246646327216113,0.14913684534493654,0.3349011230440999,0.212890625,0.54162597656,0.0070757680754262135,0.08369594013255333,0.15821044921480001,0.04809570312,0.22058105468,0.002196429299573302,0.04663115918114806,1.0641641745561998,0.81070204019,1.32635546215,0.022326915507039347,0.1486729509761912,969.4150935835536,969.37867827081,969.49640640149,0.001058983336653165,0.11772813068000687,0.03237890522063143,-0.0002959555809806296,0.867350187830823,0.7,0.3,1.308380968770259,Stairs up
-0.9629919433547,-1.23559570312,-0.73229980468,0.01874137799385737,0.1362129370284585,0.3611169433549999,0.22839355468,0.52465820312,0.004668257409564444,0.06798216556913143,0.1385327148398,0.03894042968,0.28918457031,0.004106521311455925,0.06376092924621916,1.0414433058778998,0.787659739,1.29331482119,0.01978492789748188,0.1399538446006649,969.3734890967555,969.31639592849,969.43212152155,0.0012988790267406977,0.11572559306000585,0.0358593117122079,-0.0008654871791561136,-1.1897401512448507,0.54,0.46,0.1351846151426742,Stairs up
-0.9759497070273,-1.27893066406,-0.73889160156,0.02220212870786166,0.1482568967056273,0.3271411132769,0.22534179687,0.48059082031,0.005101754755640372,0.07106853880645056,0.1352624511679,0.05090332031,0.28601074218,0.0037361438392232386,0.06081761587592041,1.0421107199316002,0.7958502632,1.33471276656,0.02275751896106689,0.15009977938510174,969.3266935630681,969.27635768867,969.41096002353,0.0011509503712634375,0.1346023348600056,0.03375560497977785,-0.0005797450886094889,0.8102763460290241,0.54,0.46,0.8497956402573961,Stairs up
-0.9552319335896999,-1.16394042968,-0.77514648437,0.013488779350931073,0.1155590392718015,0.3631164550748999,0.21398925781,0.47802734375,0.004360307760653265,0.06570163379282688,0.1288208007782,0.05139160156,0.17602539062,0.0012486623694025342,0.03515929102966254,1.0318030746067999,0.81642907398,1.2430139887,0.015359184673943753,0.1233109598827465,969.2578380677578,969.2068072389,969.29892136375,0.0006569455969186441,0.09211412485001347,0.025502473232011394,-0.0006461306114068821,-1.1777061233446668,0.58,0.42,0.2516148950074388,Stairs up
-0.9708178710891999,-1.17907714843,-0.75341796875,0.01633356792121516,0.12716222804749455,0.3388659667918999,0.22973632812,0.5078125,0.006543609378127372,0.0804871001114222,0.12321899413710001,-0.01147460937,0.18603515625,0.0034712589432571808,0.05862206371175113,1.0394403228933002,0.78907841014,1.2719094581,0.018332494764491235,0.13471885471917552,969.1987390288618,969.16267165278,969.26065409502,0.0007396783348076899,0.09798244223998154,0.02706070123739614,-0.0006421449815980178,0.2047923845433699,0.58,0.42,1.0307771886499888,Stairs up
-0.9837341308547,-1.18139648437,-0.78112792968,0.015827958745057033,0.1251785890542247,0.35019531249639996,0.15234375,0.5078125,0.006538592203626938,0.08045623830126952,0.16958862304330002,-0.05859375,0.26318359375,0.004589195761584969,0.06740403403335085,1.0631890128078,0.87352971458,1.26169411957,0.015601222685403314,0.12427876109194717,969.1335433743512,969.08583957568,969.18004436789,0.0006627571915627776,0.09420479221000733,0.025615027223236556,-0.0005992731775464401,-0.5643860246182659,0.42,0.58,-0.06734682475011326,Stairs up
-0.9078674316369998,-1.24841308593,-0.68017578125,0.01968445060679705,0.13959801610599298,0.4885412597619998,0.15234375,0.82604980468,0.0251132823767573,0.15767735903733843,0.16537353515300005,-0.05859375,0.26428222656,0.008462566504193459,0.09153109219905291,1.0608712211720002,0.82173952683,1.41369338513,0.017701202656637265,0.1323789659654089,969.0704030567456,969.02594847057,969.13897254834,0.0010790078501940591,0.11302407776997825,0.032683600959688,-0.00048538503131248875,-0.5493466876136432,0.66,0.34,0.6771589808876215,Stairs up
-0.9619531249968999,-1.20153808593,-0.78723144531,0.01596547644535318,0.12572120617023863,0.34307983398060005,0.17687988281,0.466796875,0.0074191778280371275,0.08570289405706645,0.1607360839796,0.03295898437,0.28662109375,0.005478966529745849,0.07364901129308112,1.0397555659067999,0.83683883346,1.25899870246,0.01654244810982886,0.1279727456481675,969.0238960321105,968.96157576877,969.11927138587,0.001508495265876375,0.15769561709998925,0.038644667332215596,-0.0006528768733991943,0.7367839583484108,0.38,0.62,0.952028082851429,Stairs up
-0.9603283691362,-1.16577148437,-0.70288085937,0.01202857057724557,0.10912508818540818,0.4441748046837,0.27465820312,0.83837890625,0.02401658407369141,0.1541960383179623,0.20473632811999998,-0.1318359375,0.57800292968,0.027564148710023297,0.16519233403194916,1.0941897499040998,0.85928463894,1.4877071024,0.027435150778688345,0.1648053375073194,968.9732176749212,968.92603249256,968.99752290195,0.00044747973262758536,0.07149040938998041,0.021047682421143413,-0.00029554597886022094,0.10726893413631489,0.32,0.68,-1.0427073595863237,Stairs up
0.8155859374959,-0.70288085937,1.09606933593,0.11149842873870626,0.33224004040951954,0.2974890136677,0.16760253906,0.80517578125,0.01613074313973119,0.12637023268291422,-0.10524902343440001,-0.24523925781,0.54577636718,0.02230473780794993,0.14859909296449433,0.9444437624637001,0.54956610535,1.20009223985,0.02143236541635394,0.14566414027546518,968.9483030429785,968.90543161545,969.01092817097,0.0012253862018445601,0.10549655552006243,0.034830049380184844,-0.0009889664734442291,-1.308997375804422,0.56,0.44,0.43295100812463067,Stairs up
0.9051904296837998,0.69165039062,1.0439453125,0.007830247397543549,0.08804513003890739,0.38033447265169984,0.11804199218,0.73376464843,0.02190523782776325,0.14726230152175954,-0.12696655273330001,-0.34375,0.32495117187,0.03446635630751074,0.18472058018649581,1.0182794829916,0.87437339042,1.16859970146,0.006880048713546895,0.08253028672197514,968.9523426160744,968.82251408573,969.16330349469,0.0103491559490752,0.34078940896006316,0.10122086933821725,-0.0018107090984359842,-0.4981276995918207,0.61,0.39,0.7120199705693208,Stairs up
-0.6076550292948,-1.08776855468,0.69165039062,0.32700424094475444,0.5689764481376245,0.6001379394487999,0.35229492187,0.97204589843,0.031215143641362186,0.1757924691360485,0.10789550781039998,-0.14819335937,0.35461425781,0.021370440203123623,0.14545355204013544,1.0472646555167002,0.77733928353,1.30035838565,0.0202851408563161,0.14171199472081725,968.9248807561444,968.81788342589,969.05958465222,0.002398591543061127,0.24170122632995117,0.04872992538092498,0.0008675287322828314,1.1118447698356393,0.53,0.47,0.31664459510000265,Stairs up
-0.9622082519485999,-1.0947265625,-0.69616699218,0.010162260223840165,0.10030272988110424,0.4721948242140999,0.2939453125,0.62915039062,0.00669321375052932,0.08140197548600418,0.1833825683568,-0.09033203125,0.57946777343,0.024412334523381474,0.15546128514246774,1.1002498645998002,0.8123038587,1.23511872641,0.012875964014485,0.11290351798921126,968.9762500498733,968.92686010156,969.04031360192,0.0010577127735897243,0.11345350036003765,0.03235947536431682,-0.0004612343284748413,-0.8880094830997924,0.51,0.49,0.5011950665975126,Stairs up
-0.9828356933554997,-1.14099121093,-0.82409667968,0.00670788652222744,0.08149115078954994,0.4061975097618999,0.23498535156,0.61706542968,0.01432389510220959,0.11908256023107454,0.08342041015530001,-0.13439941406,0.57946777343,0.021425937997166734,0.14564229680005417,1.0831903918158001,0.91219512405,1.26756822085,0.006720302429890434,0.08156653361269883,968.9993661825173,968.93953573076,969.05587914564,0.0008070433160956796,0.11634341488002065,0.02826610837973142,-0.0001227170565943195,-0.5930089661506335,0.64,0.36,0.5983173805583356,Stairs up
-1.0440380859342,-1.1796875,-0.87829589843,0.005714705833354026,0.0752167453099407,0.3480578613241999,0.15441894531,0.61657714843,0.016291272548521956,0.12699747959324523,0.14362304687130004,0.02941894531,0.2783203125,0.00413241721161163,0.0639616528827665,1.1182242713934,0.92831587386,1.26756822085,0.007311989703506082,0.08508154797881277,968.96515386899,968.93697215895,969.0039565719,0.00046151908705947744,0.06698441294997792,0.02137531043491258,-7.247204458015217e-05,-1.4383817873086258,0.51,0.49,0.09997242854239718,Stairs up
-0.9832397460896,-1.11535644531,-0.79479980468,0.006931529352238742,0.08283848175043018,0.4089135742136,0.19067382812,0.64599609375,0.018334831366851354,0.1347274398672477,0.132064208983,-0.20202636718,0.42761230468,0.03417508579574974,0.18393839984568813,1.0970302070438998,0.88622207007,1.26613355356,0.006851941058972922,0.08236153014838415,968.926189312248,968.87045771045,969.03661645977,0.0021903917001051525,0.16615874932006136,0.046567024632287825,-0.00014080291951250882,0.3547864525753197,0.6,0.4,1.072369571988048,Stairs up
-1.0086633300733998,-1.23425292968,-0.73571777343,0.016530302273835142,0.1279257567931368,0.39796264648139995,0.24841308593,0.60205078125,0.01072944020256409,0.10306379480951809,0.09732788085650002,-0.05444335937,0.20739746093,0.004176395015844883,0.06430109692444161,1.0948245584526999,0.80680348597,1.36766215667,0.017908747625405032,0.13315276996424438,968.8621863754187,968.81878025133,968.93572369483,0.00118780696508935,0.116943443499963,0.034291819657732606,-0.0006698915456464732,-0.6464912611421498,0.59,0.41,0.6866860553912529,Stairs up
-0.9913085937466,-1.09875488281,-0.7939453125,0.006060853148889213,0.07746124590658429,0.3660351562452999,0.15734863281,0.59899902343,0.01275180997264554,0.11235787410288202,0.12649169921599998,-0.09460449218,0.29309082031,0.011239120929927357,0.10548331489211023,1.0740817034608,0.86935337334,1.23893257364,0.008863004158085065,0.09367162919744812,968.8033394435595,968.75091568018,968.84737721017,0.0010117432041388263,0.09646152998993784,0.03164847187618129,-0.0004628141018133053,-0.9417047651970121,0.48,0.52,-0.42618767870468205,Stairs up
-0.9768945312464001,-1.16357421875,-0.826171875,0.010492183367312358,0.10191791566569262,0.36595947265159995,0.21618652343,0.52624511718,0.006756970924561191,0.08178875971253984,0.09364501952950001,-0.13781738281,0.22998046875,0.010213664390288401,0.10055609253737696,1.0549352621868,0.88192236594,1.22830925013,0.011432761187809653,0.10638812704400598,968.7309193566153,968.68856565986,968.84737721017,0.0015203893736123772,0.15881155030990612,0.038796719962855795,-0.001075299990291186,1.9508072369063871,0.63,0.37,1.4354265677265103,Stairs up
-1.0079895019495,-1.38525390625,-0.73303222656,0.023031002456325583,0.1509989815586924,0.36913574218419987,0.16589355468,0.49584960937,0.007272297059930447,0.08485030400258531,0.18420166015339998,0.10217285156,0.28857421875,0.002218684758811684,0.04686681033763197,1.0926120337142005,0.78353191903,1.45318006595,0.024878779813105736,0.1569394533410088,968.6791988360329,968.62746904771,968.75580934617,0.0013323352155208852,0.12834029846010253,0.03631820292037694,-0.0004860282822739817,-0.3736354068466725,0.63,0.37,0.792353505661548,Stairs up
-0.9776049804652999,-1.16638183593,-0.7548828125,0.01136424006234106,0.10606883454492017,0.3352880859339999,0.19665527343,0.47180175781,0.006380570922242465,0.07947808007884967,0.18554687499709996,-0.00256347656,0.45715332031,0.016241706380965504,0.12680413761843834,1.0608194288372,0.8534969965,1.24078802531,0.010975790717411725,0.10424026482236894,968.6104373100767,968.54818720551,968.70866989238,0.0015076252901901161,0.1604826868700684,0.03863352219625095,-0.0004240853479704288,1.226837240963257,0.55,0.45,0.9484434476720562,Stairs up
-0.9699645996054999,-1.13354492187,-0.71911621093,0.013782500731629517,0.11681042643665514,0.35335083007429985,0.21520996093,0.49047851562,0.0069460445507715475,0.08292517172284801,0.16196411132439997,0.08020019531,0.24926757812,0.0028800216874161747,0.053396830154439065,1.0479809569096,0.76523468227,1.24502279484,0.01720091132662898,0.13049483596435027,968.5563878050722,968.51447630151,968.6195428788,0.0007181412397649048,0.10506657729001745,0.026663829945588382,-0.0005917672979486881,0.32792539718648284,0.55,0.45,0.6813383374579302,Stairs up
-0.9675756835903999,-1.18872070312,-0.78442382812,0.012359851773270276,0.11061759921250132,0.3719189453078999,0.22399902343,0.52319335937,0.007179213027833474,0.08430552115701047,0.10374511718340002,0.00024414062,0.22326660156,0.003372383021398409,0.05778113179217265,1.0453135798273,0.83801958563,1.26181723148,0.015445765522234329,0.12365802791170488,968.520390679569,968.47319758343,968.58007805589,0.0009846962311462427,0.10688047246003407,0.031222576268379588,-0.0002999235419596356,-1.21554205824024,0.51,0.49,0.1367414293512679,Stairs up
-0.9870568847617998,-1.17016601562,-0.82751464843,0.008555926293803653,0.09203459692347013,0.3575915527305999,0.22204589843,0.54370117187,0.00953353080341165,0.0971503756831518,0.1722949218713,0.01379394531,0.27819824218,0.005577609490872635,0.07430903979977072,1.0696775942445997,0.86877095794,1.29388357339,0.011170497715074166,0.10516079468092386,968.5086856990958,968.46223829202,968.58575488022,0.000835886814775502,0.12351658820000466,0.028766785476096336,3.4072917536563913e-05,1.010684720337582,0.48,0.52,0.8396845896692889,Stairs up
-0.9896850585896999,-1.17346191406,-0.82727050781,0.012207717456126673,0.10993470917578946,0.38591796874579987,0.23266601562,0.50891113281,0.007805168123056182,0.08790401834856937,0.1485815429655,0.06384277343,0.22778320312,0.0026332556539534926,0.05105803656050591,1.0763036750872998,0.87372590014,1.28091778751,0.014621967193972511,0.12031520071060342,968.5097755810344,968.47230106734,968.58006049008,0.0005173344236014629,0.10775942273994588,0.022630976102798753,-4.012755409950591e-05,-0.19713420281320282,0.39,0.61,0.23038852257473083,Stairs up
-0.9651708984340999,-1.1240234375,-0.79724121093,0.012115560661970575,0.10951897121207298,0.3976684570270999,0.22595214843,0.95910644531,0.023815956230078383,0.15355063226108057,0.14486938476020003,0.02514648437,0.41955566406,0.009379122550844811,0.09636042406162586,1.0674811706581002,0.86376120744,1.41616497962,0.016185542303097933,0.12658470239356315,968.5097087956016,968.47752156602,968.56446226344,0.0007671593192544415,0.08694069742000465,0.02755880487361339,-5.509259289184586e-06,-0.56481252774747,0.61,0.39,0.7632444324520873,Stairs up
0.26180419921739995,-1.12890625,0.91052246093,0.4323862006838075,0.6542647313411976,0.7685717773393997,0.46105957031,1.22827148437,0.04006864898712842,0.19916817641695958,-0.13747192382559997,-0.52722167968,0.7666015625,0.15337024404802443,0.3896620864384219,1.1014154030429,0.61811018433,1.79669741292,0.08544797799520967,0.29084961443202495,968.5251104539741,968.40464528744,968.64403323503,0.004256241873430482,0.23938794758998938,0.06491286047229915,-0.0005836487248898919,-1.0439217880252978,0.52,0.48,-0.05799729494938337,Stairs up
-0.13112426757909998,-1.25830078125,0.95202636718,0.6121983242266186,0.7785090500336861,0.6354846191374999,0.20483398437,1.19653320312,0.043208219154368586,0.20682392744270403,0.0369396972653,-0.31701660156,0.43725585937,0.06514669334333995,0.25395910381379627,1.017940288062,0.37107216621,1.50158352018,0.10054958610226086,0.3155060859020603,968.3661151551319,968.24870971745,968.60394524701,0.005573338977668581,0.35523552955999094,0.07428058688440671,-0.00012032198940672647,2.0266995564611436,0.44,0.56,1.0167228712045995,Stairs up
-1.0391955566369,-1.39282226562,-0.69201660156,0.035344299672669166,0.18705843118112178,0.35069702148049997,0.1640625,0.59252929687,0.01733776959944935,0.13101294555674586,0.15979492187130004,-0.095703125,0.37658691406,0.014953477189586171,0.12167145276395079,1.1220886039641003,0.72261295704,1.50551743342,0.03669351385552421,0.19059532711210148,968.4119174390705,968.35799322867,968.49982640961,0.002611694501834199,0.14183318094001152,0.05084857477664303,-8.191644264171536e-05,-1.0204194144539527,0.72,0.28,0.7723807602632337,Stairs up
-1.0061865234335,-1.26184082031,-0.72033691406,0.023574244157338015,0.15276943973113416,0.3502319335889,0.18334960937,0.48315429687,0.009697286618983727,0.09798119081126688,0.17454833983979998,0.08654785156,0.2275390625,0.001562394126454891,0.03932899929047702,1.0841704497128999,0.77903025949,1.31913973283,0.024849365467162335,0.1568466506256691,968.349621194343,968.30714648563,968.41949059572,0.000792541457677998,0.11234411009002088,0.028010998609496556,-0.0005858277657545023,-0.3859087192626589,0.39,0.61,0.2935344233419368,Stairs up
-0.9803881835906,-1.26184082031,-0.75769042968,0.015485144088967302,0.12381555899028857,0.36923828124649993,0.21887207031,0.49743652343,0.004998869968174925,0.07034828546946383,0.14701416015190003,0.06762695312,0.22741699218,0.0017647021406042764,0.041797788448651604,1.0605716144661002,0.84612418742,1.31913973283,0.016490042193036156,0.12776987818381058,968.3015404622062,968.24160820089,968.38560007709,0.0013028621307596083,0.1439918761999479,0.035914252177262615,-0.0008911265318225986,0.43705283041116916,0.59,0.41,1.044328341319166,Stairs up
-0.9744580078095999,-1.14575195312,-0.79724121093,0.012612742944249529,0.11174352560576847,0.3359802246058999,0.21044921875,0.49157714843,0.005922183356531013,0.07656997794805548,0.1424169921833,0.0341796875,0.20263671875,0.00198014724125957,0.044275792131219675,1.0439855316108,0.87991144978,1.25368800893,0.013270558146400782,0.11462047184049093,968.2266559101977,968.17906485966,968.27972109562,0.0007428562170423047,0.10065623595994566,0.02711876942030891,-0.0005133509275924557,-0.681332927166618,0.35,0.65,-0.07399924646641313,Stairs up
-0.9555163574183999,-1.19848632812,-0.77526855468,0.012248280100976526,0.11011719802086666,0.36113037109060003,0.2216796875,0.49475097656,0.005050557063109522,0.07071104222452408,0.1819970703095,0.06604003906,0.38488769531,0.006641813504587677,0.08108881161752095,1.0420835081477,0.8447500413,1.26539526137,0.01445736770593385,0.11963608999325626,968.1655806801028,968.10561727883,968.26228323516,0.001568235570699449,0.15666595633001634,0.039402451890617855,-0.0007765619184934803,0.5887454302504533,0.51,0.49,0.8290597726476939,Stairs up
-0.9837072753863998,-1.29626464843,-0.74560546875,0.021623019453845843,0.14631059175366418,0.3262048339798999,0.20227050781,0.45581054687,0.005858396597256681,0.07615650091281842,0.1235607910123,-0.05712890625,0.38488769531,0.009881884249481361,0.0989093797725299,1.0503607893363998,0.78752421576,1.36168042171,0.023321965616853495,0.1519498139540979,968.1242923515975,968.06765719925,968.22001987196,0.0016479369044018067,0.1523626727099554,0.04039130519502667,-0.0007855050208955778,0.08365068440428747,0.48,0.52,0.7885265378431957,Stairs up
-0.9047705078095999,-0.93920898437,-0.87744140625,0.0005332729069922743,0.022976948838397834,0.3110485839806001,0.28979492187,0.33142089843,0.00012902114578944036,0.011301811108470445,0.22937011718320005,0.22058105468,0.23620605468,1.6290732109942194e-05,0.0040159463129930874,0.9838879246870001,0.95721567673,1.02071009187,0.0006140349971447379,0.024655519608665532,968.1033109550555,968.08910668284,968.12434241899,8.941198308393015e-05,0.03523573614995712,0.009408393234399317,-0.00014653735855798433,-1.0691607494660924,0.52,0.48,0.14701198869150253,Lift down
-0.916685791012,-0.94763183593,-0.87854003906,0.000422920390534353,0.020461944839848666,0.3137451171839,0.28369140625,0.34252929687,0.0002278793941727504,0.015020006665478645,0.229030761715,0.18725585937,0.2529296875,0.00025195593186507723,0.015793554778656592,0.9957829871270001,0.95721567673,1.02700372878,0.000519089414267668,0.022669329944332083,968.1945283930105,968.12434241899,968.29103522357,0.0027712196422688567,0.16669280458006597,0.0523785017525909,0.0017821086250572908,-1.361901070721586,0.49,0.51,0.14430652861707505,Lift down
-0.9317248535121999,-0.9443359375,-0.92529296875,2.3221938007297117e-05,0.004794759496285934,0.3264672851521,0.31591796875,0.34216308593,3.4481341183238756e-05,0.005842647325605609,0.24347412109030003,0.23095703125,0.25927734375,6.573893205817958e-05,0.008067313229173501,1.0168854302699,1.00932896541,1.03344575164,3.83515789536629e-05,0.006161823039014206,968.4051412546194,968.29103522357,968.50932686821,0.004056784686002953,0.21829164463997586,0.06337362889359362,0.002185309116177999,-1.1339194371119725,0.49,0.51,-0.08744610745491488,Lift down
-0.9347900390578998,-0.94226074218,-0.92529296875,1.878058066505016e-05,0.004311934004411438,0.3174999999968,0.30688476562,0.33068847656,3.157538597312776e-05,0.0055910313997863115,0.2517382812468001,0.23889160156,0.26599121093,6.049844953437403e-05,0.00773908683495865,1.018950392976,1.01145352013,1.02694445635,1.560421021852851e-05,0.003930415768890516,968.6213088370819,968.50932686821,968.72615426304,0.004329611326454148,0.21682739483003388,0.06546995656932733,0.002256915558353109,-1.165748045791822,0.53,0.47,0.03934394488237124,Lift down
-0.9307128906211998,-0.93762207031,-0.91320800781,2.587202823116911e-05,0.005060959192569865,0.3150537109336,0.30700683593,0.32250976562,1.7925850076593084e-05,0.004212670361638465,0.2461914062468,0.23681640625,0.25573730468,2.480757355970842e-05,0.004955754011662739,1.0129841952524004,0.99479055987,1.02076527391,2.674102934096385e-05,0.00514525208785286,968.8311962929671,968.72615426304,968.92598725716,0.0037048866615814824,0.19983299412001543,0.06056267658356645,0.00208131438176999,-1.163979841570392,0.45,0.55,-0.13818354900603422,Lift down
-0.9306591796836,-0.9404296875,-0.921875,1.809630730847143e-05,0.00423265215147509,0.32161621093240006,0.30578613281,0.33764648437,7.13012675987581e-05,0.008401681672306476,0.2476855468712,0.22436523437,0.26342773437,8.706429992265231e-05,0.009284053905672123,1.0154198725420003,1.01005457095,1.0212669214,8.894643728157774e-06,0.0029674395176441585,969.0548533622906,968.92598725716,969.15914629725,0.003980842331282468,0.23315904008995858,0.06277765452746417,0.0021614868681296795,-1.0497993316519052,0.53,0.47,-0.1827303461495204,Lift down
-0.9333007812456,-0.94421386718,-0.92468261718,2.420309818552715e-05,0.004895004310894106,0.3173974609332,0.30212402343,0.33483886718,0.0001119776446563822,0.010528906315938915,0.24954101562040001,0.24047851562,0.25854492187,2.6140887329127208e-05,0.005087187676490414,1.016960734858,1.00963839646,1.02479320015,1.391629494909499e-05,0.0037117559186460583,969.2685421611263,969.15914629725,969.37266973465,0.00386973777858915,0.21352343739999924,0.06189539886617791,0.002133957329099011,-1.213085298175547,0.53,0.47,0.050753239284241046,Lift down
-0.6183642578103999,-1.11389160156,0.572265625,0.3264640652494364,0.5685063100766271,0.4755322265587999,0.27844238281,1.02551269531,0.05387133790960997,0.23093857306763171,0.26921386718400003,0.11901855468,0.42639160156,0.0051107141707344445,0.07113091472086593,1.0044079205764,0.52858961367,1.53245822767,0.05428055086750591,0.2318140318419721,969.5293571387476,969.37266973465,970.11915541055,0.029283001792162842,0.7464856758999758,0.1702650045494999,0.003333009312279782,3.9706283011911214,0.76,0.24,2.1011987246964243,Lift down
0.23770996093400007,-0.85498046875,0.50073242187,0.09333827847073091,0.30398173577704235,1.0790478515592001,0.83117675781,2.13513183593,0.08327693178145613,0.28713091520009054,0.14893066405879998,0.03234863281,0.69152832031,0.028840763978254635,0.1689744251017653,1.1598964343275997,0.995785789,2.38662270635,0.10209324272807208,0.31791871649966025,969.6321719448393,969.42963498239,969.7108424701,0.0018699058720629397,0.28120748771004855,0.04302565296822711,0.0004783588707992647,3.1171007335343592,0.57,0.43,-0.7061993857931905,Lift down
0.5208642578087999,0.40270996093,0.61694335937,0.0034034058542715983,0.05804629011167623,0.8208593749963999,0.71716308593,0.90832519531,0.003585391719090177,0.059577997632509226,0.33976562499639995,0.2294921875,0.4521484375,0.005580474487559553,0.07432812215227798,1.0356138456412,0.99510931848,1.08691126573,0.0005029399680595286,0.022313909751070816,969.9588190213466,969.67369507681,970.36284117344,0.03815859850191281,0.6891460966299974,0.1943630945341571,0.004625975781485793,-0.6077182872292335,0.65,0.35,0.8413090705700816,Lift down
0.40502441405879996,0.36706542968,0.43176269531,0.000299553052356611,0.01722084556091962,0.9312402343719998,0.90319824218,0.97607421875,0.00039424862526181247,0.01975616711331412,0.1375292968712,0.048828125,0.2119140625,0.002300882435787077,0.04772707419724371,1.0260490998563998,0.99938320718,1.08297403349,0.0003590298476995729,0.018853104498267048,970.0653980084436,969.61975477186,970.37119564684,0.050470359990147484,0.7514408749799486,0.2235299899124187,0.004734123845040152,-0.7309124861195806,0.32,0.68,-0.7444506445998812,Lift down
0.2852392578089001,0.17309570312,0.40979003906,0.00502685371078051,0.07054491600159933,1.0034729003871,0.8935546875,1.07043457031,0.002080578206471825,0.04538471575769872,0.127374267575,0.07312011718,0.16186523437,0.000704685658837719,0.026412852974439203,1.0542647940075,0.98862449806,1.11576927304,0.0008113541031437274,0.02834149893905208,970.2557226903962,969.95324120803,970.39201960533,0.012471070320218618,0.43877839729998414,0.11111417378991949,0.0035385585600180972,0.49629698338281214,0.49,0.51,-0.9682622879955202,Lift down
-0.5069677734364,-1.04516601562,0.16613769531,0.2317669137761064,0.47900860601699563,0.7100195312463998,0.31921386718,1.06713867187,0.07190033416564527,0.26679829614146494,0.21294921874639997,0.08850097656,0.31103515625,0.003004642592519882,0.054539858512785706,1.0510279236711997,0.96104806558,1.25857816813,0.00549182132474736,0.07373535862461025,970.4460632260754,970.39201960533,970.54452490016,0.0010673868750003335,0.1525052948300072,0.032507122392643896,0.0006517161967693546,1.0550480520852563,0.41,0.59,0.7447108499275239,Lift down
-0.9059863281212001,-0.95227050781,-0.79858398437,0.0017491274169428644,0.041612932398155215,0.34513183593440006,0.21203613281,0.42236328125,0.0027976345775649783,0.052627542520901814,0.2743994140584,0.09753417968,0.37561035156,0.0030168358967159886,0.054650412054703015,1.0106166995159998,0.90762262968,1.05785345395,0.001377876693311239,0.036933696354117154,970.4763698120063,970.35885379211,970.58796831688,0.00287813787071784,0.22911452477001149,0.05337936391538084,-0.00020826847100128252,0.6538391167582458,0.49,0.51,-0.07631776162704752,Lift down
-0.8882763671848,-1.07727050781,-0.71594238281,0.009191762654461547,0.09539310786381232,0.41993164062159993,0.24682617187,0.53576660156,0.006427974315757543,0.07977276836489985,0.3361523437452,0.17028808593,0.53894042968,0.012885804465430459,0.11294665298616048,1.0477738040967999,0.87201230837,1.20330203599,0.008854976739980829,0.0936291993588593,970.4172355509393,970.37393932628,970.47436798135,0.0008457021365418801,0.10042865507000442,0.028935188182841687,-0.0009341644646832423,-0.8187099003252336,0.52,0.48,0.19237972687467753,Stairs up
-1.0119677734332,-1.24060058593,-0.81042480468,0.009391715406087946,0.09642509140274158,0.351772460934,0.22729492187,0.5712890625,0.00970130559178736,0.09800149251858101,0.225244140622,0.02355957031,0.34423828125,0.008437764765095756,0.09139686601544278,1.1015754391592,0.86787316991,1.40853150516,0.01246928421262535,0.11110621661499907,970.3717427873585,970.34043489109,970.41575441034,0.0005287561425247447,0.07531951925000158,0.022879435768818627,-0.0006154458822913672,-0.7440585738991032,0.68,0.32,0.6975373323198898,Stairs up
0.47611816405959984,-1.38598632812,1.07360839843,0.5250932073079283,0.721000884350948,0.16356933593720002,-0.33996582031,0.96325683593,0.15537679734615897,0.3922027911332317,-0.1202343749988,-0.43762207031,0.5537109375,0.11070943899619841,0.33106244819706815,0.9861170230759998,0.54555407804,1.72675296975,0.0795359643951728,0.28060756360301675,970.2870508847685,970.22919375922,970.39303127644,0.0019408922809836773,0.16383751721991757,0.04383472776434046,-5.461582034246301e-05,0.3945432942371525,0.4,0.6,0.7489720267680764,Stairs up
0.9763085937468,0.80944824218,1.19702148437,0.011820872528415245,0.10817885099746204,0.19819335937239999,-0.24194335937,0.4140625,0.02363524051569839,0.15296695104022112,-0.1866064453112,-0.35803222656,0.14929199218,0.018882127385323078,0.13672346584061512,1.0344044141611997,0.86532952192,1.22764537778,0.011195362971190297,0.10527777230488113,970.1575698966949,970.10941809227,970.1755371749,0.00038292845188320505,0.06611908263005262,0.01947046911002334,0.0004890148712186936,0.8990223330797869,0.28,0.72,-1.454161463412796,Stairs up
0.07593261718600006,-1.20703125,1.02197265625,0.7356996650351272,0.8534299434545145,0.5185937499959998,0.39343261718,0.70532226562,0.009251745927112181,0.0957038581659123,0.17866699218720006,-0.21301269531,0.83715820312,0.12576267439641906,0.3528527279935,1.058562704684,0.77442255773,1.56753977052,0.04856472600623486,0.219269420453862,970.1318720831982,970.06275910494,970.15950191195,0.0008625302563922244,0.09674280700994586,0.029221652140635414,-0.000391469778361148,0.4867492802682176,0.24,0.76,-1.3462069986788336,Stairs up
-0.9844091796831997,-1.13464355468,-0.76623535156,0.011618178926221395,0.10724736424248002,0.3707177734339999,0.17590332031,0.53625488281,0.011618269718036105,0.10724778329110465,0.2997949218704001,0.12866210937,0.44262695312,0.0077326501499297515,0.08749470640233302,1.1034347661192003,0.92545886804,1.29518510838,0.009556788373565201,0.09726880532745094,970.0939550656865,970.04891912414,970.13830846925,0.0008218794486972,0.08938934511002117,0.028524737583547163,-0.0005221826761233119,-1.2847050186475444,0.44,0.56,-0.0471204568962572,Stairs up
-1.0368749999967999,-1.35400390625,-0.74401855468,0.031128817038160995,0.1755492206413329,0.33410156249679995,0.15393066406,0.61853027343,0.0181884229542578,0.13418844482560793,0.26825683593440003,0.08862304687,0.41284179687,0.0050222694030800765,0.07051274146598809,1.1313977058828002,0.7920536436,1.44565323086,0.03275827790888008,0.1800852440645576,970.0323966343655,969.98932618108,970.07302157442,0.000646336592498671,0.0836953933400082,0.025295715577419116,-0.0006114038294511285,-1.236592264220626,0.44,0.56,-0.05397476787740289,Stairs up
-0.9592871093724,-1.33410644531,-0.69348144531,0.030081390274877082,0.1725704968183389,0.3591845703087999,0.12890625,0.546875,0.011484240137058113,0.10662737798374079,0.22724609374639995,0.11193847656,0.28491210937,0.003005610571960464,0.05454864312007091,1.0550407620947997,0.76960873092,1.39688170322,0.032222848250084736,0.1786074460026342,969.9656085571648,969.92536435029,970.02598519457,0.00048357868984702664,0.10062084428000162,0.021880194307833657,-0.0004410232813365538,0.42136612367990445,0.44,0.56,0.45756543283253637,Stairs up
-0.9814501953096,-1.17309570312,-0.7373046875,0.015273598083402335,0.12296691466637809,0.35420898437039994,0.19018554687,0.46520996093,0.008350193765361629,0.09092134968041342,0.2603124999956,0.13928222656,0.37670898437,0.004663639742898593,0.0679485345351142,1.0811590991092,0.79954627104,1.28219753793,0.01572792709483673,0.12478240189982065,969.9449957234389,969.9168249384,970.01756888447,0.0004233215627351669,0.10074394606999704,0.020471647396040585,7.622353326873554e-05,3.8115220023398324,0.64,0.36,1.681094684360328,Stairs up
-1.0162646484339999,-1.15222167968,-0.80651855468,0.009379742458759084,0.09636360845345869,0.31463378905760003,0.09155273437,0.52331542968,0.01305412899354861,0.11368195856692971,0.2628076171828,0.14880371093,0.48266601562,0.011070135771715506,0.10468731735028054,1.1048093432339998,0.84816908375,1.26310371113,0.013556952300837321,0.11585069174514646,969.9440657410559,969.9099945202,969.99155390185,0.00044060768128747964,0.08155938164998133,0.020885440011515315,0.0002878293782755565,-0.008168445827120063,0.68,0.32,0.7228938198875654,Stairs up
-0.9695947265592,-1.05603027343,-0.869140625,0.002952651447678997,0.05406593135424754,0.35706054687040006,0.17468261718,0.54895019531,0.015071296306766782,0.12214983972031693,0.21579589843400002,0.01574707031,0.38037109375,0.009346323784060672,0.09619179043047314,1.0655064234564002,0.91285750851,1.18772039125,0.006026937454900626,0.0772442106591272,969.945598432694,969.9113550387,969.98842913998,0.0003232634179040245,0.07707410128000447,0.017889404230576944,-0.00015535420860049453,-0.04288849297390929,0.48,0.52,0.24030299849484466,Stairs up
-1.0523046874968,-1.19482421875,-0.84497070312,0.009950913708778394,0.09925424208410746,0.3686572265587999,0.13269042968,0.6142578125,0.02278219386786731,0.1501811304032189,0.261621093746,0.07470703125,0.45727539062,0.012425386544324249,0.11091047145730203,1.1581087419271998,0.87501339391,1.33257829502,0.01534338764017927,0.12324753045711495,969.9474153096971,969.90607556615,969.98800546811,0.000694891000233658,0.08192990196005212,0.026228650179361525,-0.00019777182324968073,-1.2761698689258951,0.52,0.48,0.1877665535714813,Stairs up
-1.0167578124971999,-1.31616210937,-0.73266601562,0.022434973379403162,0.14903229061384357,0.32723144530959997,0.08740234375,0.48132324218,0.014070638165071214,0.11802513199916576,0.2553173828092001,0.13195800781,0.35681152343,0.003124409348061461,0.055616231934398845,1.1045598656824003,0.77985934464,1.39015608285,0.025500058429181086,0.15888693415409988,969.9419810258227,969.91257589898,969.98083950331,0.0005701188232963653,0.06826360433001355,0.023757475351211074,-0.0003667087357050073,-1.2319525747069742,0.64,0.36,0.5609989537239372,Stairs up
-0.9719042968716001,-1.28308105468,-0.75366210937,0.018362049719237356,0.13482740530784154,0.30717285155920004,0.09631347656,0.48046875,0.013322883037690034,0.11484621982160811,0.3144970703092,0.14819335937,0.568359375,0.013812911486588017,0.11693922512023985,1.0781476758896,0.85765969143,1.38487904975,0.02070907577694051,0.14318514245259914,969.896831554897,969.85229465073,969.95360195333,0.0008177509260297101,0.10130730260004839,0.028453003651098298,-0.00018003812008974044,-0.7123450228248065,0.48,0.52,0.23869900480360512,Stairs up
-0.9606787109340001,-1.19519042968,-0.77429199218,0.01720497622627345,0.13051025424850998,0.29827636718359996,0.17199707031,0.45874023437,0.006184232499910105,0.07824570387510744,0.24901367187040008,0.15881347656,0.33898925781,0.0022708152520815902,0.04741420778164256,1.0391115009248,0.85925743859,1.31376318091,0.01972817982469147,0.1397529893291895,969.8456660391295,969.79630403944,969.88951301509,0.0006113757872266527,0.09320897564998631,0.024602073679964177,-0.0007018200791983332,-0.440286674711456,0.36,0.64,-0.6544044825054499,Stairs up
-0.9946630859340001,-1.19445800781,-0.77368164062,0.010835990183227095,0.10357427422576913,0.32647460937119993,0.15026855468,0.46215820312,0.007842800978681128,0.08811567947246572,0.25076171874560005,0.18273925781,0.31042480468,0.0010647969775835397,0.03246766095375064,1.0800810017272002,0.85529671424,1.25620535538,0.011912067311044217,0.10859533432856945,969.7800496995958,969.72970279806,969.8320331205,0.0007940646355340386,0.10233032244002516,0.028037902724324767,-0.0007664879762436324,-0.5965785102951107,0.52,0.48,0.19422308079386977,Stairs up
-0.9834960937464001,-1.15441894531,-0.78967285156,0.012484047148100311,0.1111719689338068,0.2992919921832001,0.15502929687,0.43286132812,0.006765536587619863,0.0818405841972286,0.25463867187199996,0.19641113281,0.29443359375,0.0007407087268630146,0.027079542824693045,1.0631444075232002,0.89405148563,1.25583255911,0.011308560103078834,0.10580866931422986,969.7165358334564,969.68894809771,969.75000789232,0.0003537970738859743,0.061059794610059726,0.018715210475629566,-0.0004477160383951898,-1.2321872281695831,0.4,0.6,0.09476075700681964,Stairs up
-0.9980615234331998,-1.17846679687,-0.82189941406,0.012626000510207597,0.11180223837251882,0.3060742187467999,0.17626953125,0.46228027343,0.00823743280725368,0.0903053624054582,0.27028320312080006,0.205078125,0.31140136718,0.0008305644506500977,0.028675055468884394,1.0822846097464,0.89080880594,1.27068983763,0.013129619319586719,0.11401018869553217,969.6541473190711,969.60997783314,969.69539967184,0.0006157865430578758,0.08542183870008557,0.024690659724424073,-0.0005251146266318616,-0.9256129360716852,0.48,0.52,-0.4204413021112348,Stairs up
-0.9557568359336,-1.12414550781,-0.78454589843,0.008647134905997198,0.0925238539887808,0.3190869140588,0.20764160156,0.42004394531,0.004262646617266477,0.06496168217567809,0.2678417968716,0.08715820312,0.43286132812,0.009695660803073814,0.097972976861189,1.0498564587788002,0.90498006566,1.19135762725,0.007280424417582565,0.08489770417041169,969.5994712859678,969.57185159504,969.65324204086,0.00045212691953298265,0.08139044582003407,0.021156692802459767,-0.00031122868862409675,-0.08515820116605921,0.52,0.48,0.7610518904536975,Stairs up
-0.949379882808,-1.27172851562,-0.74047851562,0.02004258406284753,0.1408621958589992,0.29764160155880004,0.17150878906,0.40747070312,0.004844306117339444,0.06925217004662056,0.20633300780840003,0.1396484375,0.29260253906,0.002269722620588168,0.047402799436133375,1.0192320691868,0.8021143354,1.33058504704,0.02074447554263231,0.14330746940479405,969.5511065749178,969.50105585743,969.60879066995,0.0006650589223549853,0.10773481252010697,0.02565946868373224,-0.000457031596978255,0.19384549533988205,0.52,0.48,0.16737900370520326,Stairs up
-0.9682177734340002,-1.09020996093,-0.79357910156,0.006185901140725278,0.0782562593619068,0.3444726562468,0.18212890625,0.50842285156,0.010154238758615413,0.10026313565328615,0.22796874999640007,0.10754394531,0.31616210937,0.003917794179369296,0.062278537535619787,1.0578810903708,0.83059936314,1.21197478259,0.009110880853078157,0.09497248045906442,969.5190113860326,969.48634162662,969.56306342953,0.0005135599140806553,0.07672180291001496,0.022548266340006028,-9.315580521159613e-05,-1.1646447618371938,0.48,0.52,0.37316376941312307,Stairs up
-0.9744116210900999,-1.14587402343,-0.80822753906,0.009918966913377628,0.0990947891881498,0.35481811523039997,0.18688964843,0.50183105468,0.007524218840792792,0.08630745421100582,0.2335205078079,0.09509277343,0.37976074218,0.0076571889597143675,0.08706673917241431,1.0696109190298002,0.8821628425,1.24978458217,0.01079553801906669,0.10338076532351664,969.5225072517186,969.49440832823,969.59426592288,0.0007871886630226799,0.09985759465007504,0.027916245743159183,7.706216644990219e-05,1.0747127128410323,0.56,0.44,1.3776117729259134,Stairs up
-0.9851318359339999,-1.16125488281,-0.78698730468,0.011104959430134946,0.10485184707878827,0.3308203124948,0.17895507812,0.50659179687,0.010325246290671957,0.10110387642303947,0.22545410155839998,0.14025878906,0.31384277343,0.003611293609691291,0.05979281456491556,1.0680649581447996,0.83858396391,1.22834139196,0.01493403511107725,0.12159233018561029,969.5211613018275,969.49045452046,969.57876439406,0.0006692848034590352,0.08830987359999654,0.02574086159056151,0.0001206369788809749,-0.5188454516375356,0.52,0.48,0.7283416943168534,Stairs up
-1.0307080078083999,-1.15319824218,-0.89477539062,0.006544966986770291,0.08049544904466704,0.38358886718319984,0.07800292968,0.61730957031,0.024829977546144792,0.15678545139994127,0.2993798828096,-0.15161132812,0.48486328125,0.0342746902226202,0.18420625212080613,1.1655816790351998,1.05087059378,1.29185436087,0.005596180332442238,0.07443264424375783,969.5198002786212,969.47859732111,969.56261728919,0.000658778287707003,0.08401996808004242,0.025538020769627648,-7.479296578106623e-05,-1.4040571781097133,0.48,0.52,0.04655382895946647,Stairs up
-1.0612988281224,-1.3056640625,-0.95202636718,0.007596852418348061,0.08672302977966453,0.32067871093440004,0.0849609375,0.56494140625,0.02001097828444758,0.14075108703524497,0.24764160155920004,0.12170410156,0.39270019531,0.006210254563283038,0.07841015251643252,1.1458565604683997,1.00618347575,1.4031724155,0.0111202507922067,0.10492401195286345,969.5219187161624,969.48863129493,969.54803942889,0.0003566305373587396,0.059408133960005216,0.018790003512111228,6.474415151269143e-05,-1.145024017904474,0.44,0.56,-0.34428235887844566,Stairs up
-1.039506835934,-1.17504882812,-0.81982421875,0.008356916639520064,0.09095794343060348,0.3345019531216,0.0517578125,0.57214355468,0.016429941196410787,0.12753682520921822,0.2214453124972,-0.09997558593,0.57507324218,0.02610810708473602,0.16077010298525238,1.1309173173252,0.86597271624,1.31191271176,0.013046547139105111,0.1136489404601471,969.4771113375791,969.40401511507,969.53818549092,0.0012223008058278632,0.13417037584997615,0.034786172508190445,-0.0007950551668475375,-0.7473818777616246,0.44,0.56,-0.3388684028367724,Stairs up
-0.28726562499959996,-1.31860351562,0.97399902343,0.7438736859156925,0.858157881194676,0.5716015624963999,0.09973144531,1.17639160156,0.05912937549624162,0.24194644395253923,0.021953125,-0.33715820312,0.61071777343,0.08734290007243387,0.2940569180817032,1.0937589095744,0.43154169044,1.7347475717,0.09582401499991715,0.30800288123639036,969.4458515746738,969.37100460404,969.50511884792,0.0013569076213854013,0.1341142438800489,0.036651583119580895,-0.00041686072897986103,-1.0266955080959836,0.64,0.36,0.06485983000650873,Stairs up
0.7375830078099999,0.40637207031,0.97229003906,0.029688965816546686,0.17144117404632184,0.6588476562468,0.42468261718,0.87890625,0.028405075747719256,0.16769324670433827,-0.0406542968744,-0.39514160156,0.14208984375,0.02454574478933456,0.15588549432657683,1.0258534497356002,0.87783418333,1.21967442617,0.009292714708533352,0.09591552304735673,969.3700466246962,969.25504897855,969.52682858675,0.008864012300587585,0.2717796081999495,0.0936769564918807,-0.001214689152536478,-1.1444861707898473,0.52,0.48,0.408849952941518,Stairs up
-0.6445068359352,-1.21337890625,0.38159179687,0.2768521670115919,0.5235299851407519,0.5790380859344001,0.24462890625,1.13830566406,0.06438348765320942,0.252467132072033,0.23625976561999998,0.12023925781,0.40356445312,0.004318740729069306,0.06538771537359761,1.0608601016791999,0.74437009222,1.36543602061,0.023401555038399042,0.15220886796772076,969.3072902451029,969.28540749969,969.3300189605,0.00018303607708201682,0.04461146080996059,0.013461267262453289,6.646918983752686e-05,-1.0646270731400735,0.48,0.52,0.1830689969292345,Stairs up
-1.0320898437464001,-1.19274902343,-0.87121582031,0.008894694357164312,0.09383894401362725,0.37617675780880006,0.166015625,0.58776855468,0.017081380949839187,0.13004063649621525,0.24692871093360008,0.17236328125,0.31774902343,0.0029413937075870966,0.0539627628139185,1.1340352745572,0.93639014034,1.31623577746,0.010388360958574375,0.10141241220377628,969.2806986845765,969.20736751484,969.31901647662,0.0008135577089942176,0.11164896178001982,0.028379960040568687,-0.0006149993242182544,-0.23110544195342264,0.4,0.6,-0.7197312800412362,Stairs up
-1.0063574218708,-1.29528808593,-0.75903320312,0.017885519904216635,0.13306639209497817,0.3036035156208,0.09704589843,0.52941894531,0.01339402502256545,0.11515244145192839,0.172592773434,0.03234863281,0.34436035156,0.008468857100630299,0.09156510541480305,1.0757860999312,0.78869519324,1.33815871288,0.01692303625928207,0.12943649368199545,969.2119061516685,969.16567666401,969.25862135566,0.0007149951863973293,0.09294469165001829,0.026605361011145027,-0.0005459505578539981,-0.9147925127096581,0.48,0.52,-0.23659748092239646,Stairs up
-0.994394531246,-1.16381835937,-0.77307128906,0.011350620780335047,0.10600525728722937,0.3160693359336,0.22216796875,0.5185546875,0.0071247398010636205,0.083985072501326,0.182255859372,0.00598144531,0.3642578125,0.0126491345298132,0.11190461645756652,1.0684213041439998,0.85453083931,1.28476068966,0.011340074925129744,0.10595600113197197,969.1522127391536,969.11280203156,969.20538894397,0.0007086974748576993,0.09258691240995631,0.026487931216105237,-0.0003808647684409918,-0.8043336427482095,0.48,0.52,0.29622610390248877,Stairs up
-1.011713867184,-1.24145507812,-0.82836914062,0.012117898199548723,0.10952953582277812,0.31360839843319993,0.19897460937,0.38830566406,0.002814781689829384,0.05278857710652079,0.20118164062200003,0.09936523437,0.27941894531,0.0023631133456154412,0.04836819422057523,1.0809048929135998,0.88783953746,1.29522653738,0.011269370627027767,0.10562517181409689,969.1231272933123,969.09037689127,969.16812509107,0.00047567402556071797,0.07774819979999847,0.021700628684559138,-0.0005793112973225918,-0.8383010196903902,0.64,0.36,0.5402540740154292,Stairs up
-0.9094567871057998,-1.17797851562,-0.48352050781,0.020041988309573763,0.14086010232311355,0.43070678710630006,0.201171875,1.20495605468,0.07600627715374104,0.27431043432980023,0.2912036132776,0.06274414062,0.52783203125,0.018013420556524377,0.13354132825069223,1.0855872325262999,0.76782324568,1.45950786998,0.030067079043900772,0.1725294417004291,969.07167092191,969.03795605103,969.1065205312,0.0003748666292226056,0.06856448016992545,0.019264422205983223,0.00019279269164213607,-0.754697338615359,0.56,0.44,0.42965136186407193,Stairs up
0.5256591796839999,-0.2001953125,0.72045898437,0.0454216677730008,0.2120553019739681,-0.46358398437119985,-0.71350097656,0.91955566406,0.15776566028401715,0.3952062799111079,-0.33585449218319985,-0.53063964843,0.39501953125,0.05482957666469289,0.2329834348146794,0.909702804538,0.41566052751,1.13310176839,0.032225724005406145,0.17861541581104382,969.0803841648365,968.93412551425,969.29331336355,0.01040557292717691,0.3591878493000422,0.10149639007326883,-0.001965257285007998,-0.6047467649903755,0.64,0.36,0.744935572319377,Stairs up
0.7006640624964,0.56335449218,0.82958984375,0.006078566782609031,0.07757435861663918,-0.49477050780919996,-0.72937011718,-0.24523925781,0.017055842226106135,0.1299433869184772,-0.4850146484335999,-0.64624023437,-0.34191894531,0.006762533814043965,0.08182242037426861,0.9951667958352002,0.77125313105,1.18398097914,0.010311328211274865,0.10103571115779864,968.9702224089951,968.86568164203,969.05695165478,0.0026885311784973684,0.1912700127500102,0.05159114135888442,-0.001095210300164852,-0.8854586230631205,0.52,0.48,-0.016505916768173826,Stairs up
-0.47379882812359997,-1.2041015625,0.94372558593,0.653263255653581,0.8041956373277868,0.3709326171851999,-0.10034179687,0.9248046875,0.04739666553460755,0.21661647878049692,0.1397656249976,-0.56384277343,0.48181152343,0.08830793635798331,0.29567694701211233,1.0613320465063998,0.55849419887,1.36786505122,0.03662952725608103,0.1904290733672782,968.9958062400113,968.89611275095,969.09930910026,0.0025029129436307932,0.2031963493100193,0.049778346840714645,0.00034955476478073583,-0.3666088746398479,0.48,0.52,-0.3996680619671901,Stairs up
-0.9947314453088001,-1.13830566406,-0.85339355468,0.0053374727327041675,0.07269180150042456,0.38176269530919993,0.18920898437,0.57531738281,0.012975183400244292,0.11333768819877106,0.22577148437160005,0.029296875,0.44140625,0.014524863368225553,0.11991503131193895,1.1011721759751998,0.98150975409,1.24798681744,0.0061971213510495895,0.07832719921929479,969.0559217902843,969.01134202666,969.09930910026,0.000883444423715654,0.087967073599998,0.02957380563063363,-0.000102887332626453,-1.4774539156932605,0.48,0.52,-0.12221213124330824,Stairs up
-0.9979541015576,-1.12646484375,-0.82299804687,0.007041902590196168,0.08349541043850378,0.3555712890583999,0.15393066406,0.55932617187,0.013876119864054546,0.11720647876894008,0.2493994140584,0.11987304687,0.35180664062,0.0054199068474383785,0.0732509916585707,1.0958781202660004,0.91747107305,1.25819837089,0.009766761299480111,0.0983315498021124,969.0546327178812,969.02507952163,969.10434134537,0.00030317940626591576,0.079261823740012,0.01732476874891139,5.856165711506774e-05,0.7944010335519329,0.36,0.64,0.46679048278167234,Stairs up
-1.011440429684,-1.13598632812,-0.80615234375,0.00845332160133242,0.09148108211711914,0.34660156249639995,0.15844726562,0.55456542968,0.008536537343725609,0.09193025601121947,0.23056640624640007,0.12683105468,0.34460449218,0.004725860826911517,0.0684003086151108,1.1002350954396,0.90803632127,1.23328693335,0.007360152475571827,0.08536129656241234,969.0380568053987,969.00421577459,969.07546886949,0.00045271838502041747,0.07125309490004383,0.021170526709796647,-0.0003099725195239413,-1.0471357058928472,0.64,0.36,0.22026769154195458,Stairs up
-0.940454101559,-1.11047363281,-0.70959472656,0.012351191405311143,0.11057883835191086,0.36488403319979995,0.25573730468,0.4638671875,0.003540625071081156,0.059204888483725265,0.20005371093339996,0.0576171875,0.45166015625,0.005861604671246065,0.07617734981300942,1.0332979726151998,0.79288723719,1.21164146388,0.012830317782477634,0.11270321470416386,968.9844238299493,968.93990699885,969.04537616362,0.0011564929010403683,0.10546916476994284,0.03383678430391938,-0.000768132580551924,-1.240174128413576,0.64,0.36,0.4139208991755193,Stairs up
-0.9725268554652999,-1.23681640625,-0.71911621093,0.019527472576773296,0.1390402742050143,0.32727905273119995,0.18688964843,0.4521484375,0.004165972800933547,0.06422081495063896,0.18987182616790002,0.03356933593,0.45166015625,0.010346277270418008,0.10120679076877118,1.0513738774678998,0.80492588326,1.29498394433,0.017458251037458797,0.13146736677626206,968.9480055312127,968.90374052051,968.99926887272,0.0005983997626162806,0.09552835220995348,0.02433959253952534,-0.00045807315074152097,-0.33531164306484174,0.48,0.52,0.41747977507274653,Stairs up
-0.9621789550747999,-1.26440429687,-0.76708984375,0.0149865102450732,0.12180576810078604,0.30014282226169997,0.11730957031,0.439453125,0.008687268259280815,0.0927383177369959,0.21965087890369997,0.11437988281,0.306640625,0.0030111678863756846,0.05459904951106684,1.0360808697544999,0.84997608557,1.34194397432,0.017247567879115685,0.13067169624798067,968.8892624999609,968.83610586862,968.94796986104,0.0007211484083488299,0.11186399241989875,0.026719598130685678,-0.0007327391036863212,0.2669862411217534,0.4,0.6,0.17122724606518983,Stairs up
-0.9779199218718,-1.10180664062,-0.8388671875,0.006898933371989323,0.08264347547307913,0.30182495116790004,0.14807128906,0.41943359375,0.006549838930483913,0.08052540307989196,0.25192016601260003,0.17028808593,0.34130859375,0.0021897680396169472,0.04656039474940883,1.0577393260064,0.90429082748,1.2214383528,0.007635472668038273,0.08694318801009018,968.8256260236948,968.78721639295,968.87180730229,0.0005619813261381547,0.08459090934002234,0.023587316779930124,-0.0006624183053223838,-0.46518221878534405,0.48,0.52,0.3825196666773712,Stairs up
-0.9784924316376998,-1.1748046875,-0.78723144531,0.011865004353841094,0.10838059932618328,0.28856445312300005,0.17431640625,0.44775390625,0.005554290636612226,0.07415354158936782,0.25367065429240004,0.18762207031,0.29431152343,0.0009663822238301929,0.030930864869768693,1.0539996330425,0.84953964648,1.24034363873,0.012477047690243126,0.11114079904940712,968.7573909442283,968.71618409755,968.78713691893,0.0004891640975294792,0.07095282137993308,0.022006191323220483,-0.000598591186447195,-0.9652582559083132,0.36,0.64,-0.5487336002662231,Stairs up
-0.9089440917931,-1.09826660156,-0.70922851562,0.012875530832510845,0.11290161878461148,0.33217773437229986,0.04064941406,0.712890625,0.013740708731727874,0.11663319272150015,0.35043090819899986,0.17614746093,0.69653320312,0.01978400465670482,0.13995057917042633,1.0430274486111997,0.83186536577,1.3449602665,0.017528498850048528,0.13173159780989543,968.687460979583,968.66402933555,968.72532136753,0.00035554487205825065,0.061292031979974126,0.018761381168178107,-0.0005025531241120821,-0.9415493250568825,0.6,0.4,0.6629433260610718,Stairs up
-0.9591259765588,-1.19274902343,-0.783203125,0.01665511357670506,0.12840779743044428,0.330034179684,0.16101074218,0.4638671875,0.007255296370013499,0.08475106728716378,0.3160937499972,0.18994140625,0.58325195312,0.009422774362921752,0.09658440153198929,1.0729246890315998,0.87194189341,1.26601226792,0.010699920798279078,0.10292191987276708,968.6526191430573,968.6124439509,968.7140658542,0.0006399696013709544,0.1016219033000425,0.025170814554901576,-0.0003059491419515871,-0.44346912814996386,0.6,0.4,0.514477757172875,Stairs up
-0.9611633300748,-1.29553222656,-0.66540527343,0.03956444708223045,0.1979110977469635,0.2852709960902,0.05908203125,0.4931640625,0.015235983308011194,0.12281540406207636,0.21954101562090003,0.10009765625,0.40734863281,0.008374556893103277,0.09105389241637199,1.0360210373112997,0.70427738698,1.40682739484,0.04304686211371956,0.20643738395112055,968.6045309768248,968.55257807503,968.68849284619,0.0012833934468592203,0.1359147711599462,0.03564490864612544,0.0008395221252261272,-0.31196378453614315,0.6,0.4,0.649011738716425,Stairs down
-0.9948193359344001,-1.45324707031,-0.67138671875,0.04091596131384296,0.2012630162267885,0.31058715819870003,0.08728027343,0.54541015625,0.015607591848035547,0.12430412675995592,0.2388122558559,0.14514160156,0.39367675781,0.004244559152899462,0.06482371141311231,1.0758303630894002,0.6924189893,1.55450907119,0.04637439250364936,0.2142677030693447,968.6446173179045,968.60699339924,968.67945236393,0.000454024185158839,0.0724589646899858,0.021201036373424072,0.00029254872289332393,-0.7975497316104381,0.48,0.52,-0.2812388365952042,Stairs down
-0.27444186069118803,-1.3154296875,0.29553222656,0.3421732729283339,0.5820527628496618,0.7744176883476237,0.40100097656,1.25317382812,0.06866264327059199,0.26073514362164146,0.07862415880247524,-0.28442382812,0.51489257812,0.061831188825997495,0.24742473368202558,1.0539274307925743,0.68713882018,1.44642728651,0.038831523118505816,0.19607919979584784,968.7082661272406,968.6285019166,968.82915335528,0.003150141261962088,0.20065143867998358,0.05584757599499658,2.2264906649963828e-05,-0.5497958953967168,0.53,0.47,0.5738591677081193,Stairs down
-0.24262939453060003,-1.75354003906,0.28601074218,0.3439196263211379,0.5835070094334142,0.6566723632783998,0.17004394531,1.18200683593,0.07494331442319627,0.2723855379401856,0.017678222656,-0.99719238281,0.83630371093,0.31866546693639414,0.5616750059126987,1.0571078662067999,0.52350681472,2.0150826301,0.10411739206899427,0.3210548522422677,968.7794421850482,968.67033194309,969.07631139807,0.012538511105516662,0.40597945497995624,0.11141420912281115,0.00041421294262933224,1.5907867891978587,0.55,0.45,1.5054289421377152,Stairs down
-1.0379034485440404,-1.40551757812,-0.66674804687,0.04339134248375535,0.20725116669160284,0.37362270162191913,0.12866210937,0.66320800781,0.024486845257672002,0.15569040878095988,0.19407823350363632,0.03051757812,0.35095214843,0.0061576551590665505,0.07807340534462605,1.1303367554386867,0.68398539631,1.51074004712,0.0506422153225865,0.2238988115066168,968.8586590672447,968.78729191248,968.95881430576,0.002267401438426009,0.1715223932800427,0.04737613738574962,0.001544573106282258,-0.6644045164154218,0.39,0.61,0.06088642687558569,Stairs down
-1.0106604003863,-1.27697753906,-0.66003417968,0.029191868490416405,0.16999985236908954,0.32250366210560005,0.05358886718,0.59130859375,0.024726268430948006,0.15645768036960833,0.2149792480437,0.02001953125,0.33251953125,0.00524171491321054,0.07203678063377371,1.0925113549543999,0.68596201876,1.396396154,0.03701649159846698,0.1914323031321577,968.9296831216989,968.90281418037,968.96828942369,0.00039710877267063095,0.06547524331995191,0.01982769994083844,0.00016405012419798716,-0.8722273440577495,0.52,0.48,0.44167806362603124,Stairs down
-0.9949829101524,-1.32299804687,-0.70690917968,0.02344915346075206,0.15236358464588753,0.34389404296579995,0.16931152343,0.63537597656,0.014776054771170034,0.12094748539534972,0.2052380371048,0.03796386718,0.40197753906,0.007784440269282534,0.08778721926675721,1.0802759606988002,0.75667118371,1.44020256191,0.02922238071745812,0.17008867366842373,968.9818035756974,968.91716655734,969.07390589437,0.001371138711095874,0.15673933702998966,0.036843280581198457,0.000521001199374278,0.036692582281306674,0.4,0.6,0.12899323783504066,Stairs down
-1.0119628906201998,-1.24194335937,-0.81201171875,0.015005422360862136,0.12188259981331837,0.3242761230433999,0.12915039062,0.50830078125,0.012848504099819864,0.11278306193228514,0.19434814452799998,-0.009765625,0.34680175781,0.007078457811912217,0.08371184643641003,1.0871411449101003,0.82474707895,1.31438296217,0.019901301744961127,0.14036484149355746,969.0257926506168,968.99372346534,969.07610830982,0.0004472841008414498,0.08238484447997507,0.02104308104420632,-7.189354818635552e-05,-0.41775134756980625,0.52,0.48,0.32587560549499195,Stairs down
-1.0201708984338997,-1.1748046875,-0.79968261718,0.012101932944647384,0.1094573598037195,0.3932739257769998,0.16821289062,0.60961914062,0.014787187329256398,0.12099303887399404,0.21168457030839996,0.08483886718,0.34790039062,0.0071646809819680655,0.084220153004779,1.1212701988615,0.82157501068,1.27927713742,0.01685838828645169,0.1291890258636049,969.0169257094785,968.96088882368,969.0978703326,0.001140421980643019,0.13698150892003014,0.03360085952526496,-9.838037882561694e-05,-0.16263162319206304,0.48,0.52,0.44653024396776797,Stairs down
-1.0070129394492,-1.17956542968,-0.84338378906,0.011404175461923568,0.10625504085597225,0.2995703124966,0.14526367187,0.56311035156,0.012470350024645768,0.11111096491525628,0.2422253417932,0.10070800781,0.3916015625,0.004931258642161073,0.06987092425136125,1.0853517802152002,0.89961597441,1.25384723964,0.013151301035248284,0.11410428574289312,969.0165615332136,968.98034397263,969.07549855915,0.00044908981192893306,0.09515458652003872,0.021085514312191765,0.00015493740840323217,-0.66833990817485,0.43,0.57,0.2669945750314485,Stairs down
-1.0340844726533,-1.23767089843,-0.79992675781,0.014113183449112963,0.11820343317612156,0.3627978515572999,0.17846679687,0.57946777343,0.014747431759931214,0.12083028363093376,0.20130493163769997,0.02941894531,0.39111328125,0.008264661767011284,0.0904544921457258,1.1219140120234001,0.82591064868,1.35749782102,0.01973699697923785,0.13978421588092652,969.0262162487119,968.94884422429,969.08336036728,0.0011192123296085818,0.13451614298992354,0.03328693747271587,-0.0004237189064658975,-0.5228412393549395,0.53,0.47,-0.10796041729702384,Stairs down
-0.9642297363252998,-1.35998535156,-0.623046875,0.030413432992693695,0.1735203119602047,0.32828857421600005,-0.00048828125,0.52893066406,0.018130929247236922,0.1339761917460134,0.23479370116870002,0.10388183593,0.34777832031,0.004408714522943865,0.06606532659205148,1.0537491591549,0.7087607228,1.44293294344,0.035026979855566236,0.1862168361266257,969.0232992736508,968.96758800013,969.08805625657,0.0011666763754493304,0.12046825643994907,0.03398543234526871,-1.7805266698326772e-06,-0.98906314510588,0.63,0.37,0.6434106408445771,Stairs down
-1.0407788085902998,-1.40112304687,-0.74243164062,0.027798940984974627,0.16589439886604032,0.3133581542933,0.03674316406,0.49072265625,0.01811586499677492,0.1339205225005009,0.21768920897990005,0.05725097656,0.36804199218,0.0083331365460113,0.09082843817082394,1.1190101922852,0.75623761553,1.4559194603,0.03063040974005636,0.17413817973855072,969.0728827728369,969.02343041799,969.1123029367,0.0007010065056009706,0.0888725187099908,0.02634381218701957,0.00043885089529488577,-0.946371332357359,0.39,0.61,-0.5023965981569866,Stairs down
-0.9719848632779999,-1.29235839843,-0.66357421875,0.04038077156337486,0.19994240132533447,0.29465820312109997,0.10339355468,0.45568847656,0.013206691669891281,0.11434432540879486,0.19319458007400006,0.05969238281,0.35668945312,0.00716797642488817,0.08423951958931918,1.0422194510984,0.75010602916,1.36088443678,0.04326129079862166,0.20695090695775037,969.1239158003076,969.07232285506,969.17941360836,0.000765155348410369,0.1070907533000991,0.0275227868306657,0.0004206920615130481,-0.24269623343413205,0.55,0.45,0.4937878961218648,Stairs down
-1.0313382290341584,-1.38635253906,-0.68212890625,0.04829550120773006,0.21867173554999192,0.32037776531188117,0.09545898437,0.49365234375,0.014027354289293059,0.11784935126405857,0.20094223777564355,0.07958984375,0.34533691406,0.005535013165243131,0.07402844760425663,1.105475390303564,0.71342875406,1.46941171613,0.05230629218793453,0.2275706661827615,969.2091786604665,969.13648845796,969.29149122541,0.0017883010158076303,0.1550027674500143,0.042078439433468416,0.0005259417766286229,-0.6341081898734502,0.58,0.42,0.02391337186875647,Stairs down
-0.9810058593709999,-1.27380371093,-0.67443847656,0.03561674043402564,0.1877779886719564,0.3089062499964,0.10339355468,0.48291015625,0.012159865408203718,0.10971903551399675,0.2076391601532,0.08215332031,0.34387207031,0.005097127014926609,0.07103629878292747,1.055517309703,0.69571436295,1.36919504729,0.039533123921471604,0.19783273915673535,969.2836221296207,969.21439892005,969.35546267351,0.0014385467382183519,0.14106375346000277,0.03773806130203522,0.0007837218569709577,-0.6100987620461784,0.56,0.44,0.05853403368125107,Stairs down
-1.0194628906206,-1.54028320312,-0.67993164062,0.04981200150750285,0.22206729046040935,0.33491943358919996,0.16918945312,0.57971191406,0.013239727844927442,0.11448725067219567,0.19650878905959998,-0.00231933593,0.36108398437,0.0074575874538733095,0.08592445274387597,1.0979172123455998,0.70779665198,1.67804633405,0.05502357071156434,0.23339523346557167,969.3692580021396,969.31232932794,969.43609308319,0.0009940079331259737,0.12376375525002459,0.03136985581405681,0.0006376826321204232,-0.840507404986321,0.5,0.5,0.1632031246973667,Stairs down
-1.02106514362,-1.34387207031,-0.67565917968,0.04174762847560383,0.2032878138469656,0.3181818181778788,0.05554199218,0.56530761718,0.03484904318204295,0.18573376818675327,0.21081666271767677,0.07751464843,0.43823242187,0.007826629188420187,0.08802029497752831,1.1031297579603028,0.68368257218,1.43997967948,0.05549317668645059,0.23437713102647967,969.4188678506096,969.35002979431,969.52351342846,0.0029042623298171587,0.17348363414998857,0.05361833964874045,0.0004483000368534909,-1.1534495803741645,0.55,0.45,0.40272522024220775,Stairs down
-1.0485571289024997,-1.39196777343,-0.80407714843,0.024438661029761877,0.15554508805958567,0.31705688476189997,0.08972167968,0.55151367187,0.019121330812854834,0.1375867635520448,0.2537023925752999,0.10400390625,0.41748046875,0.005182998064548762,0.07163217212889243,1.1329106490388,0.81572474092,1.50506345641,0.029425299037776378,0.17067819441099855,969.4728932825551,969.42242890332,969.53510078561,0.0008624789374859399,0.11267188228998748,0.02922078281140121,0.0004653280245421385,-0.15324095601572152,0.49,0.51,0.6319690934038579,Stairs down
-1.0096911621059999,-1.22778320312,-0.80480957031,0.019109880049490408,0.1375455606299073,0.3390624999962999,0.15051269531,0.60375976562,0.015598456666998392,0.12426774360359331,0.24747192382520006,0.056640625,0.33740234375,0.0053970591874703865,0.07309643353540365,1.100240946591,0.82786804387,1.37726422305,0.025107248696030034,0.15765841623291074,969.478469864677,969.43762451312,969.52733105259,0.0007366129795656579,0.08970653946994389,0.027004570905126438,-5.2035120273930185e-05,-1.1328169489422195,0.63,0.37,0.3901728738829599,Stairs down
-1.0061608886682,-1.14233398437,-0.82348632812,0.010176486576206751,0.10037291323083475,0.32850219726139995,0.14343261718,0.53967285156,0.014190294554546855,0.11852591112917625,0.2342346191378,0.125,0.36682128906,0.0038656340628997624,0.06186257125492574,1.0907544632991,0.8691243288,1.30045297277,0.013478864774968525,0.11551656213382927,969.4847844883569,969.43918466521,969.54406047964,0.0007713956962578726,0.10487581443010185,0.027634792188386253,5.237662749993724e-05,-0.3735640634960955,0.6,0.4,0.6593168685568604,Stairs down
-0.9926123046837,-1.18359375,-0.81909179687,0.013291359694286955,0.11471027023481413,0.3232092285126999,0.17663574218,0.546875,0.012394586252260878,0.11077292263788237,0.21481079101240003,0.10290527343,0.2958984375,0.0023279448516957545,0.04800693078274008,1.0708924263989998,0.84723718014,1.30095905658,0.016980032031058207,0.12965427764153262,969.4864269979247,969.44565992525,969.54741029922,0.0005891120812762423,0.10175037397004871,0.02414996812551685,0.00034569664992880266,0.3943401522945642,0.6,0.4,0.8251846911511268,Stairs down
-0.9992822265593,-1.40356445312,-0.61962890625,0.04634378392265893,0.21419697963190876,0.29891113280799997,0.03283691406,0.4931640625,0.017307745952785145,0.130899459484206,0.2270300292940999,0.09350585937,0.3564453125,0.004091406426992533,0.0636434785561145,1.0765310007898001,0.72276905313,1.49696160087,0.0480828071849274,0.2181787778705301,969.492949025479,969.43359538281,969.57020539213,0.0014114367211946516,0.13661000931995204,0.037380775192372685,0.0006975199166559815,0.012676957551644108,0.71,0.29,0.9761535340775158,Stairs down
-0.9887011718705,-1.267578125,-0.63879394531,0.026401762504815077,0.16167171948045497,0.2976599121057,0.06311035156,0.55065917968,0.018551124543397145,0.13551978932230957,0.24801025390199996,0.06555175781,0.34350585937,0.005918135396092484,0.07654380472730343,1.072458249033,0.76028254166,1.33234572404,0.028117305936439536,0.16684164011743333,969.5597066554014,969.51632116662,969.61700424784,0.0009044865734140106,0.10068308122004055,0.029923932022377517,0.0007361016881841327,-1.0121629394517155,0.51,0.49,0.20214023564312109,Stairs down
-1.0524121093708998,-1.42492675781,-0.71948242187,0.045154113215593566,0.21142982779976346,0.33773925780879993,0.02392578125,0.560546875,0.02836099330814863,0.16756307282652447,0.2147949218716,0.06530761718,0.3974609375,0.007679510598219658,0.0871935518959829,1.1390188767098,0.73084079223,1.50914645113,0.05130765871648568,0.22537653411418151,969.6221820658694,969.54877692646,969.73165929488,0.00245661050251911,0.18288236841999606,0.04931576216073233,0.0012429751550134794,-0.17103074962116516,0.56,0.44,0.48357928873542366,Stairs down
-1.0296423339806997,-1.32299804687,-0.69201660156,0.04148852947247524,0.20266633706106815,0.34728881835590003,0.07336425781,0.58337402343,0.024362619324955204,0.15530290767305566,0.2376794433551,0.12377929687,0.35131835937,0.0042295492825790496,0.0647089931134248,1.122858003613,0.71750696127,1.44902418737,0.04629714332879879,0.21408916809477027,969.7001874846993,969.62161818855,969.77081392807,0.00200534213829029,0.1491957395199961,0.04455657882857914,0.0010107097455526399,-1.3560251799158054,0.47,0.53,-0.10447642229577597,Stairs down
-0.9882111502120792,-1.29235839843,-0.66430664062,0.03692284326148625,0.19119955689260104,0.29162718517613867,0.03845214843,0.48620605468,0.018201748578357893,0.13424430433317797,0.2044508527968317,0.0693359375,0.37451171875,0.007212373623208276,0.08450422464808804,1.0611730906163368,0.68521716674,1.36382563195,0.03942967611494928,0.19758361086418075,969.7931699892721,969.72090342506,969.86558152245,0.0017555277233731075,0.14467809739005588,0.041691081309621285,0.0006624359021246006,-0.9171342717902173,0.54,0.46,-0.09976455155396131,Stairs down
-1.0076635742153999,-1.46105957031,-0.66430664062,0.06360017969768321,0.250926638483654,0.35870117187139994,0.13659667968,0.58959960937,0.01677143889250535,0.12885544033365567,0.2078100585904,0.00463867187,0.37121582031,0.010599614929869937,0.10243836576484044,1.1018197631934001,0.68521716674,1.55832949527,0.06393147532712343,0.25157933256500264,969.863560003996,969.81107406724,969.95972965998,0.0017597501694484848,0.14865559273994222,0.041739102383185005,0.0003207282557922341,-0.12259062251441488,0.56,0.44,0.937487717975037,Stairs down
-1.0022021484339998,-1.35571289062,-0.6728515625,0.04468469785920775,0.21032796029205358,0.3306054687453999,0.07873535156,0.51354980468,0.02035719724605033,0.14196346457307185,0.21894042968340002,0.0830078125,0.41442871093,0.00883471975424055,0.09352204315934369,1.08751704004,0.72096356284,1.47343145654,0.05261471755059087,0.22822920578901587,969.9224933522422,969.84551652296,970.01279921041,0.0017470169427166872,0.1672826874499833,0.04158782001126676,0.0007736635674258485,-0.22467907689680455,0.62,0.38,0.5917168195972897,Stairs down
-1.0136523437456,-1.24194335937,-0.80493164062,0.02229486833919978,0.1485662130358305,0.3068725585904,0.11901855468,0.59399414062,0.01641487909699367,0.12747835230353322,0.229882812496,0.04565429687,0.34399414062,0.006443414423181659,0.07986851869760601,1.0916050065807996,0.81496299134,1.31249679837,0.027886958108590564,0.16615681908216906,969.956910991508,969.91454088195,970.01523978014,0.0007136819767588651,0.10069889818998945,0.026580917158579697,8.9361045554805e-05,-0.6929282826504775,0.66,0.34,0.49808891835647306,Stairs down
-1.043722133439192,-1.2197265625,-0.81591796875,0.017546430546653714,0.13179223753493713,0.3149093473761616,0.12573242187,0.59399414062,0.016383482663503965,0.12734988394038757,0.2215884430203031,0.03112792968,0.30639648437,0.0052945669644473455,0.07239534853883217,1.119140258957273,0.84294961124,1.30683496623,0.024223260462670614,0.1548501890991993,969.956089301215,969.91932084683,970.01157705156,0.0004888331381860411,0.09225620473000617,0.021997623274333876,4.1756355650274826e-05,0.06960961812686195,0.44,0.56,0.3410421849601516,Stairs down
-1.0044396972613001,-1.23510742187,-0.79931640625,0.01660067886243543,0.1281977849801278,0.32071777343389996,0.11071777343,0.6083984375,0.022623306838109366,0.14965651930246232,0.24356079101109995,0.10778808593,0.35900878906,0.005003311530230861,0.07037953122129013,1.0916584278164,0.81512581651,1.3172300687,0.023381571499721227,0.15214386541929323,969.95683432275,969.91646382528,970.01648809849,0.0009352140950232405,0.1000242732100105,0.030427979789545808,-0.00010980135179662203,-0.7243093458682939,0.64,0.36,0.6197126618211805,Stairs down
-1.0108850097616,-1.34838867187,-0.65368652343,0.0339663588805939,0.18337583071873992,0.3164428710893,0.109375,0.56616210937,0.015258621537369312,0.12290661219802464,0.243432617183,0.08679199218,0.32116699218,0.0026143789291785784,0.05087470039112557,1.0959726828009,0.66843235368,1.41743909648,0.03176654246754555,0.17733831239433315,969.9685008610593,969.9104837444,970.04499161276,0.0011107417893284955,0.13450786835994677,0.033160735387430876,-7.558605312204977e-05,-0.008039787181457925,0.55,0.45,0.5327983958033449,Stairs down
-0.9847778320274,-1.29626464843,-0.59521484375,0.045872083065291,0.2131041112570053,0.2852819824171,0.07958984375,0.455078125,0.01773765757074908,0.1325152104289979,0.19648559569969998,0.05432128906,0.3330078125,0.007248608721337969,0.08471199817100639,1.0526327172732999,0.62215838564,1.36923737122,0.052418086517590085,0.22780233899680263,970.0285269108007,969.97514845736,970.1285639079,0.0016610151267489792,0.1534154505400238,0.040551263549752546,0.0007632359048408313,-0.7365533821799093,0.51,0.49,0.4440332090065629,Stairs down
-1.0016113281208998,-1.39001464843,-0.70080566406,0.039639699940724034,0.19809922498918767,0.32127685546500007,0.07934570312,0.58947753906,0.02498897985414614,0.15728664932410721,0.2340795898403,0.1220703125,0.36462402343,0.004289476913525474,0.0651658050237256,1.0894025421345,0.73617173616,1.50670195977,0.04309939514203376,0.20656331036903292,970.0941423918401,970.03508612488,970.17026711991,0.0008560179785416257,0.13518099503005487,0.029111128434950943,0.00010965917346904233,-0.41577483557444594,0.48,0.52,-0.26551257474125084,Stairs down
-1.0210290527316,-1.33715820312,-0.66943359375,0.04293116772252636,0.2061597828028083,0.3629663085896999,0.05603027343,0.6748046875,0.03552276292859035,0.1875300917167814,0.20727783202769998,0.04064941406,0.40966796875,0.009242229383531718,0.09565462398491983,1.1221570498449998,0.67300304817,1.4460619504,0.045244162888704836,0.2116405472961592,970.1758895536545,970.11566592487,970.29407112876,0.0024309065814840155,0.17840520389006542,0.04905708425568295,0.0011603469899893755,0.2975300275927135,0.55,0.45,0.9133179692178932,Stairs down
-1.0177966308547999,-1.31970214843,-0.63720703125,0.03447938997761449,0.18475550351163655,0.24674072265110003,0.01281738281,0.49108886718,0.023107769362886735,0.15125042700520838,0.21660644530979994,0.04016113281,0.35888671875,0.007884940812179778,0.08835208771759714,1.0809840755678,0.64088269609,1.39194196319,0.040404167341005,0.20000031416874062,970.2563677457142,970.18864582408,970.32093085669,0.001219871323820808,0.13228503260995694,0.03475158428881481,0.0010004758221853133,-0.8787998616775248,0.43,0.57,-0.47732323499775686,Stairs down
-0.9893484587673267,-1.39514160156,-0.71081542968,0.03236684401463967,0.17901502789574547,0.3672032120173267,0.1240234375,1.18041992187,0.0703028457350146,0.2638309647396605,0.31162254408683165,0.06494140625,0.95715332031,0.048682829056010214,0.21954685342207678,1.1251289441817824,0.80030193405,2.06299630609,0.09564297994261574,0.3077271839554707,970.3901742428149,970.31998713459,970.79755693244,0.007407635035083784,0.4775697978500375,0.08564048174750269,0.0021460822084038173,9.781915059257294,0.66,0.34,2.9380300651073568,Stairs down
0.5028784179665999,-0.71081542968,0.919921875,0.11070652266181964,0.33105808770546813,0.792260742184,0.31896972656,1.28015136718,0.06198317535019498,0.24771625622209986,-0.1240454101548,-0.49951171875,0.18298339843,0.023013108119204602,0.15094030952006346,1.0132782826108002,0.56042996293,1.56006783973,0.06359995020381183,0.25092618576341075,970.3739923314973,970.19556856923,970.79755693244,0.01739945738852425,0.6019883632100118,0.13124581065557486,-5.297992903257556e-05,3.92758037603482,0.62,0.38,1.774730270275897,Stairs down
0.3559985351536001,-1.70837402343,1.099609375,0.32638321717834534,0.5684359110810663,0.8144311523406,0.45751953125,1.2353515625,0.05785451073263988,0.23932397628594065,-0.0716552734356,-0.41491699218,0.68505859375,0.062108452270158786,0.24796646496544084,1.0647253358598001,0.51168582897,1.97945104404,0.1044547623282192,0.32157458653465915,970.4503996205787,970.3204775982,970.5497255462,0.006945558711583369,0.22924794799996562,0.08292227158289583,0.0004258228246031549,-1.5881365594526875,0.52,0.48,-0.19170282845782619,Stairs down
-1.0887719726534002,-1.70837402343,-0.87170410156,0.030143250293124344,0.17274784453125053,0.4013183593714,0.14123535156,0.83935546875,0.03224563116959778,0.17867057636304248,0.3164550781212,0.033203125,0.68505859375,0.03185386308506239,0.17758188098511563,1.2218188517533999,0.92184050543,1.97945104404,0.04755925360786791,0.21698769797338566,970.51850091979,970.3946631326,970.58627127115,0.0023805957400561623,0.19160813855000924,0.048546779323201256,0.0013310081065033938,-0.724864243344387,0.44,0.56,-0.7108403149302601,Stairs down
-1.0374829101521998,-1.20031738281,-0.87854003906,0.008692425555717318,0.09276584123566252,0.37119873046519997,0.13354492187,0.59387207031,0.017344439878631324,0.13103814513280096,0.2692822265588001,0.13940429687,0.36950683593,0.0037798730772447254,0.06117249665063768,1.1417801278707997,0.94911053515,1.3438314646,0.012655469318358804,0.1119326343171428,970.5436884308787,970.50848202737,970.57975769825,0.0004526846566619042,0.07127567088002706,0.021169738073374578,-5.019571109434642e-05,-1.0517201491050696,0.48,0.52,-0.09188151713446814,Stairs down
-1.0020068359333998,-1.2490234375,-0.81213378906,0.016190665033282533,0.1266047328615708,0.34265869140199995,0.06762695312,0.640625,0.020131385934636436,0.14117390720416456,0.24134277343300004,0.11291503906,0.39721679687,0.00522532959179398,0.07192410093894841,1.0958445419555998,0.87282438238,1.36325441569,0.020137029254586804,0.14119369306750545,970.5550467033224,970.5132920869,970.61113441563,0.0009653951022315815,0.09784232872993925,0.030915063500003774,-0.00022780380854447467,-0.9462716792764034,0.68,0.32,0.5595587447302133,Stairs down
-1.0045585246962627,-1.37268066406,-0.70874023437,0.04596983174965992,0.21332015848206862,0.316788490369394,0.08337402343,0.61242675781,0.020442163654296516,0.14225216045015965,0.19776623658,0.00573730468,0.34790039062,0.005911225413471476,0.07649520289443419,1.0795155722798988,0.73093709364,1.47329305545,0.055402697143180725,0.23418598151835274,970.549033443206,970.48660566891,970.60857343475,0.001148805654880069,0.1219677658400542,0.033722419209719044,0.00020113590372993704,-0.799515169313143,0.51,0.49,-0.08287199355075153,Stairs down
-0.9813366699178,-1.51635742187,-0.69067382812,0.03091478826304968,0.17494467805686226,0.3513427734340999,0.16418457031,0.66528320312,0.01952002686655496,0.139013764059137,0.20369750976250003,0.03186035156,0.33898925781,0.006612102399795465,0.08090723932873689,1.0718935672417997,0.72762030845,1.67267597031,0.03583505910594476,0.18835261748880824,970.6123953139107,970.53869874726,970.72230022885,0.002292571883433033,0.1836014815900171,0.04764080356793641,0.0011323884383005252,-0.6264760631806849,0.59,0.41,0.5027640621892334,Stairs down
-1.0521533203086,-1.51635742187,-0.69702148437,0.04191437788671563,0.2037037901165525,0.3483239746060999,0.04260253906,0.62170410156,0.033517244023043104,0.18215946745314301,0.23816528319989996,0.06872558593,0.37414550781,0.008842355185994894,0.09356244777759369,1.1473220734501999,0.70900392111,1.67267597031,0.05268909085248511,0.2283904550193818,970.6737809792595,970.62385154009,970.78400897008,0.0014140259067209312,0.16015742999002214,0.0374150457390302,0.0006052731739004284,1.4735227292065511,0.64,0.36,1.4194662096209776,Stairs down
-0.975311279293,-1.25952148437,-0.72143554687,0.027620339445807298,0.1653606242469749,0.3433239746059,0.02209472656,0.55334472656,0.020068908127586816,0.14095467018269012,0.20637451171510002,0.10717773437,0.3837890625,0.004780425802723166,0.0687940516665208,1.0631842392959998,0.73877798253,1.40129505995,0.033614274847965225,0.182422948390507,970.7499654977807,970.66226663432,970.83421006299,0.001988222548727208,0.17194342867003343,0.044365981598967645,0.000826623343302372,-0.374056125090485,0.47,0.53,-0.14207662140427704,Stairs down
-1.0296582031211998,-1.33459472656,-0.71545410156,0.031015468944114402,0.1752293190498475,0.38299926757579994,0.048828125,0.72961425781,0.03649543675943227,0.19008019989424976,0.22729248046490003,0.05480957031,0.46813964843,0.011610763235494044,0.10721313167303297,1.1387315654648997,0.72189251519,1.43864211549,0.040572929250753446,0.20041756399638708,970.8567033633831,970.77286248173,970.99921650955,0.0021805577102832433,0.22635402781997982,0.04646237330550831,0.0010008012717506985,1.7039058757254342,0.51,0.49,0.9078105343520066,Stairs down
-1.0327404785122998,-1.50805664062,-0.65258789062,0.053880133199764244,0.23095742436164854,0.33563598632440006,0.08068847656,0.57348632812,0.026694968028212175,0.16256696573390933,0.22899780273099998,0.07629394531,0.40161132812,0.006583448123229961,0.08073173875247369,1.1212548375021,0.66801002999,1.63494387603,0.06133228097349524,0.24641217129792978,970.9493396768361,970.86049713685,971.0786482799,0.0030115765655761954,0.21815114305002226,0.054602754508545015,0.0013063526662512902,-0.43327972550333804,0.59,0.41,0.2643362839327768,Stairs down
-0.9960671604237623,-1.541015625,-0.44213867187,0.07621476757661608,0.27470013818242184,0.3460753790190098,0.0615234375,0.55383300781,0.019041337483091766,0.137305532988295,0.22657942063386138,0.07043457031,0.3779296875,0.007688990840100846,0.08725171756430718,1.083229731702574,0.45192119581,1.63494387603,0.08349063668167422,0.28751347223135293,971.0133710621623,970.94875345846,971.11432810864,0.0016237391064114672,0.1655746501800195,0.040095666618669805,0.0009842630543528187,0.09899699187646682,0.58,0.42,0.7300110591970868,Stairs down
-0.9324975585909999,-0.9462890625,-0.919921875,3.295955634105767e-05,0.005712264067569626,0.3291357421835999,0.31298828125,0.34118652343,6.157162212949612e-05,0.007807426330629138,0.22472045898099996,0.2138671875,0.23901367187,2.647171567599657e-05,0.00511927714811736,1.0141280259392,0.99839684757,1.0259516825,4.5917285947157704e-05,0.00674226320219599,971.1574842053566,971.1443860498,971.16724110534,3.2797497569158745e-05,0.022855055540048852,0.005698203453147944,4.630694389374974e-05,0.5234893638305493,0.38,0.62,-0.5036938226575421,Lift up
-0.9449487551257577,-0.97888183593,-0.92932128906,0.00021609055140567798,0.014625587802314011,0.3372778073673737,0.32165527343,0.35986328125,6.990134102041855e-05,0.008318369243349152,0.22889170020131316,0.21447753906,0.24975585937,0.00011637249672926349,0.010732987327129453,1.029172231431414,1.0098966222,1.07222344709,0.0002815415858436955,0.01669424246383267,971.1598784556375,971.15312379279,971.16659684934,1.874042205867191e-05,0.013473056549969442,0.004307101678177574,-2.744958436728348e-05,-1.5112316267730892,0.52,0.48,-0.01648217920031583,Lift up
-0.9634301757768,-0.98669433593,-0.93139648437,0.00027279305336674393,0.016433658230384264,0.3453247070269999,0.32995605468,0.35986328125,5.6994232267434476e-05,0.007511610342979735,0.23658203124659993,0.21984863281,0.25305175781,9.489471262856148e-05,0.009692562380623396,1.0504684377622002,1.01302437507,1.07675749669,0.0003579907425984764,0.018825802377919823,971.1081890293078,971.03025716418,971.15445264913,0.0014474089868733177,0.12419548495006438,0.03785412655186465,-0.0012727923355977152,-1.0709415137748737,0.45,0.55,-0.53582007785923,Lift up
-0.9309374999976001,-0.94262695312,-0.9169921875,3.95567489349121e-05,0.006257889536062696,0.33763427734019996,0.32531738281,0.35632324218,7.940196628451446e-05,0.00886611226083165,0.2175708007766,0.20666503906,0.23132324218,3.279135081950942e-05,0.005697669463150204,1.0139507795786,1.00240074257,1.02351708139,3.296630678924282e-05,0.005712849002148612,970.9200748782242,970.81735444528,971.03025716418,0.003845889335711551,0.21290271889995438,0.0617043794422603,-0.0021286207561833645,-1.1702426061413231,0.53,0.47,0.06623302471815587,Lift up
-0.9306930693031683,-0.94409179687,-0.91687011718,3.4370764654875806e-05,0.005833563238221772,0.3489675993922771,0.33483886718,0.36584472656,4.94717519013004e-05,0.006998709350697809,0.2202208868311881,0.20056152343,0.23132324218,6.088357456560608e-05,0.007764068965216608,1.0181181665880197,1.00289172552,1.03142307736,4.434475373640431e-05,0.00662613739434349,970.7077175533524,970.60115434637,970.81735444528,0.003962076702195947,0.2162000989100079,0.06263264500239461,-0.0021371762840490865,-1.167632917377201,0.46,0.54,0.022704134198901302,Lift up
-0.9321032714801,-0.94201660156,-0.92260742187,3.2510208053366695e-05,0.005673191868149095,0.3414208984337999,0.32653808593,0.36096191406,7.288855737386165e-05,0.008494684914705373,0.214818115232,0.20654296875,0.22399902343,2.604912476688223e-05,0.005078251029558642,1.0156971748757997,1.00611658603,1.02421778861,2.1155135986427454e-05,0.004576416133456745,970.4983705685365,970.39640558967,970.60115434637,0.00353864077277005,0.20474875669992798,0.05918829584506002,-0.002040346240671007,-1.274885554625776,0.54,0.46,0.04777549912440264,Lift up
-0.9343200683548,-0.94116210937,-0.92395019531,1.5059015668296273e-05,0.003861143031747634,0.3390563964808,0.3291015625,0.34655761718,1.3878362044008966e-05,0.003706693732097228,0.21402832030850003,0.20483398437,0.22216796875,1.617901253591334e-05,0.004002152222311666,1.0167359411432997,1.00842690036,1.02345082223,1.4185087333644323e-05,0.003747430647831642,970.289029126762,970.1864343222,970.39640558967,0.0035395338150395307,0.20997126747010952,0.059195764011364324,-0.0020420217910054952,-1.1867105365762367,0.54,0.46,0.08771182199440125,Lift up
-0.9359729003867,-0.94274902343,-0.91870117187,4.051023509669945e-05,0.00633286133953148,0.3228637695263,0.30554199218,0.33581542968,6.972223219224532e-05,0.008308129143815884,0.21864501952800006,0.21020507812,0.22509765625,2.0895046410255514e-05,0.004548196999488144,1.0139945899162999,0.9996713903,1.0232451309,3.708722980830829e-05,0.00605940240537177,970.080231721726,969.98779303828,970.1864343222,0.0036778441117031515,0.19864128391998292,0.06034124352866885,-0.002080215641940507,-1.2328358665645975,0.46,0.54,0.07051068624618682,Lift up
-0.9360937499965999,-0.94689941406,-0.92639160156,2.547480844054116e-05,0.005021957821023167,0.33101806640180004,0.32092285156,0.33801269531,1.438985568671394e-05,0.0037743816884155744,0.2194201660108,0.20434570312,0.22961425781,4.217675688925661e-05,0.00646181006532721,1.0168772852933,1.00450871717,1.02687802655,3.180402445854533e-05,0.005611237315776253,969.8739013074986,969.77187234906,969.98779303828,0.0039259637090893985,0.21592068921995633,0.062343436478898916,-0.002151394459632903,-1.0945837507273075,0.5,0.5,-0.022524409110369875,Lift up
