avg_accX,min_accX,max_accX,var_accX,std_accX,avg_accY,min_accY,max_accY,var_accY,std_accY,avg_accZ,min_accZ,max_accZ,var_accZ,std_accZ,avg_magnitude,min_magnitude,max_magnitude,var_magnitude,std_magnitude,avg_pressure,min_pressure,max_pressure,var_pressure,range_pressure,std_pressure,slope_pressure,kurtosis_pressure,Pressure_below_avg,Pressure_above_avg,skew_pressure,Label
-1.0037451171831997,-1.45422363281,-0.73217773437,0.03648490703473801,0.1900527767868458,0.14892089843400003,-0.15869140625,0.33239746093,0.016542276324158223,0.12797208117756248,-0.40972167968359996,-0.63073730468,-0.27490234375,0.012554129061018954,0.11148357623618273,1.1104026398212001,0.87273612241,1.52371347813,0.029782854381721867,0.17171204336884657,975.372595927904,975.30280779054,975.46124372018,0.0019432820207398198,0.15843592964006348,0.043861705399270805,-0.001146933742398629,-0.5029227709688922,0.52,0.48,0.4356183233905817,Stairs up
-1.0115820312464,-1.22485351562,-0.830078125,0.011524379036643573,0.10681355366374222,0.1769531249968,-0.04736328125,0.32458496093,0.010190838515009841,0.10044366644970575,-0.43110351562120003,-0.72937011718,-0.20581054687,0.022700964802496965,0.14991315871020794,1.1250398702107998,0.87622143439,1.39561739598,0.01890723892604672,0.1368143506244365,975.2517550857752,975.18352348978,975.36426312405,0.0021323780273818566,0.18073963427002582,0.04594621036721133,-0.0013825850157027507,-0.20715195580555168,0.56,0.44,0.7137020635591527,Stairs up
-0.8686865234344,-1.25341796875,-0.51306152343,0.04602747194741419,0.21346474469555868,0.23676269530879998,0.13598632812,0.53137207031,0.010471454870907136,0.1018171907007754,-0.47703613280919993,-0.85070800781,-0.185546875,0.02556250952720806,0.15908137676024803,1.027286450672,0.5832514677,1.60534014964,0.06480776983882104,0.2532976354813302,975.1210976132896,975.05324921171,975.20441795845,0.0018348937784839622,0.15116874674004066,0.04262094368616352,-0.0011442580096176851,-1.1092342502274346,0.56,0.44,0.12446825548456661,Stairs up
-0.9450244140591999,-1.30322265625,-0.63952636718,0.03859965594168944,0.19548314347347842,0.1821435546836,0.10388183593,0.25109863281,0.0019447337739004465,0.043878086058549114,-0.39730468749599984,-0.60766601562,-0.19921875,0.012627260275353831,0.11180781579388935,1.0461786239464002,0.72123965009,1.37675125049,0.04267540674483848,0.2055447704939002,975.0376238874213,974.97850818393,975.09713902795,0.0010644319092117706,0.11863084402000368,0.03246209466623577,-0.0007176543536738018,-0.8177765406697715,0.44,0.56,-0.12982172236430686,Stairs up
-0.8584374999968,-1.18884277343,-0.59228515625,0.029928045706071434,0.17213008234765567,0.1832031249956,0.08361816406,0.28747558593,0.0016178193717845746,0.040020509467855715,-0.4836523437468,-0.68469238281,-0.26513671875,0.015572341909244489,0.12416367621068589,1.0067509821380003,0.71454589141,1.38859777883,0.03787616252831118,0.193642456354561,974.9385122238319,974.88931210817,975.04261296737,0.0009017942166237126,0.15330085920004421,0.029879362015569802,-0.0006950504522731175,3.7652381283174243,0.52,0.48,1.3144449716721287,Stairs up
-0.9036767578088001,-1.07556152343,-0.67785644531,0.012467110903428521,0.11109653367407209,0.16863769530919995,0.05480957031,0.27465820312,0.003162319154307894,0.055952622483354746,-0.4684716796836,-0.63684082031,-0.27355957031,0.014143071415477779,0.11832852868739221,1.0404816966996,0.89167591465,1.24968658928,0.011523924082100553,0.10681144527287115,974.908235818462,974.87694114094,974.94650602923,0.00047259475310611204,0.06956488829007412,0.021630275208028467,-0.0001125723979603342,-0.9223607934099687,0.6,0.4,0.36467134544955243,Stairs up
-0.9080908203092001,-1.09045410156,-0.65771484375,0.017375780982214224,0.13115648353166565,0.18340332030880002,0.0634765625,0.28759765625,0.00370496942535761,0.06056335303716295,-0.5028222656199999,-0.67395019531,-0.29919433593,0.016728057187158946,0.12868868099132633,1.0651793031379997,0.86216593022,1.30130036909,0.014060321534277645,0.11798185588866988,974.9077861878287,974.87142863049,974.94220898464,0.0005378795640946622,0.07078035415008799,0.023075978168946933,0.0002443354547950103,-1.0982246362248693,0.4,0.6,-0.14278969633159644,Stairs up
-0.8946777343707999,-1.1025390625,-0.63757324218,0.01775618153385317,0.13258438715970533,0.1561572265584,0.02722167968,0.26489257812,0.004605063621428639,0.06752046345526927,-0.5397607421835999,-0.697265625,-0.34790039062,0.009813178091371482,0.0985649344871581,1.0634576959907998,0.85301670532,1.31845569965,0.01725797418394668,0.1307111106299201,974.9080151552754,974.87335030808,974.9528978614,0.00052308179256241,0.07954755331991237,0.02275633921870532,0.00014724301753930773,-0.9320849033986667,0.48,0.52,0.430735733993381,Stairs up
-0.9179541015592,-1.11828613281,-0.68225097656,0.018571221852553957,0.13559317694496437,0.2001171874964,0.14477539062,0.33581542968,0.0024871788602769626,0.049621639147394085,-0.4368652343711999,-0.6005859375,-0.28161621093,0.007452448209122857,0.08589484109672493,1.0403675496940001,0.82574060244,1.30814386292,0.01959490533294499,0.13928013598361952,974.900756657453,974.84824373901,974.98645189775,0.0016134639611914128,0.13820815874009895,0.039966602577395774,-0.0006294384681756143,-0.48089576165078807,0.6,0.4,0.7549961103693321,Stairs up
-0.9184033203076,-1.32604980468,-0.71557617187,0.02439589100634968,0.15540891897277384,0.15295898437119998,-0.05773925781,0.25354003906,0.006332054860525976,0.07917533903887444,-0.4373535156207998,-0.62036132812,-0.26818847656,0.010709311022915599,0.10296707198268018,1.0359182109731997,0.79492795787,1.39115597199,0.02629853714798787,0.16135535868544307,974.8333154289217,974.76336381658,974.88779448693,0.0011761588812389187,0.12443067035007971,0.03412326614535205,-0.0005680151928752988,-0.27636454437389224,0.48,0.52,-0.38854133481611897,Stairs up
-0.908208007808,-1.19592285156,-0.58374023437,0.025990384371756284,0.1604072334031066,0.16954101562120005,0.09948730468,0.22485351562,0.0011219584821296567,0.03332774965863072,-0.4654687499968,-0.70495605468,-0.24768066406,0.014330240596241169,0.11910893413291362,1.0396319808823997,0.74133748015,1.39924241987,0.030748081403176315,0.1744723490675372,974.7527936227536,974.6799741572,974.83531399981,0.0019447482060479123,0.1553398426099193,0.043878248871023026,-0.001184498310211911,-1.0158635962003613,0.52,0.48,0.29704455107093436,Stairs up
-0.9374511718715999,-1.35864257812,-0.56091308593,0.05400388770629398,0.23122250934809752,0.15844238280839998,0.08874511718,0.23034667968,0.0012467563513651001,0.035132446368726575,-0.43717285155919994,-0.6943359375,-0.22265625,0.018113536931103038,0.1339119171761498,1.0510082329983996,0.67538290466,1.49886092507,0.06368790283283905,0.25109962924009,974.6346647590332,974.55245971594,974.73143969632,0.0022678048697539308,0.17897998037994967,0.04738276924216641,-0.001161328842229889,-0.39299339626214014,0.48,0.52,0.19904389700735656,Stairs up
-0.9176416015585999,-1.29797363281,-0.53820800781,0.04102310354063525,0.20152635684998846,0.16977172851209998,0.02990722656,0.25524902343,0.003952018797608497,0.06254996890193001,-0.41332641601089987,-0.67260742187,-0.27709960937,0.01111719266787814,0.10490958364801263,1.0311110654879998,0.64044952315,1.48206030918,0.04681873053766928,0.2152917630386555,974.5390974778271,974.47761990061,974.60279102006,0.0009684776205265988,0.1251711194499876,0.030964380250883966,-0.0003417474725831896,-0.008161804816164686,0.48,0.52,0.05255454926386851,Stairs up
-0.8573303222611,-1.04943847656,-0.62292480468,0.0135599664893303,0.11586356987611333,0.18991333007489997,0.10473632812,0.27490234375,0.0021591652688897783,0.046233901157060935,-0.45999511718349995,-0.64404296875,-0.27502441406,0.009086486089131837,0.09484524884379038,0.9979246431955003,0.76279395096,1.24308047796,0.016406227081240204,0.12744475199249206,974.4615314158905,974.4304815927,974.51950300145,0.00039830023723586705,0.08902140874999986,0.019857422664170402,-0.00034607116715515933,1.168402061724441,0.56,0.44,0.9257372586298884,Stairs up
-0.9250573730425998,-1.11535644531,-0.67431640625,0.0158766198805302,0.1253708645647979,0.197852783199,0.11083984375,0.28552246093,0.0031907695997119667,0.05620375346642648,-0.48057250976159993,-0.63403320312,-0.24548339843,0.014700278602335495,0.12063695874943192,1.0685084412496004,0.86442315195,1.3089383369,0.01772374420230279,0.13246322795508103,974.4566304765415,974.41651846053,974.49162966686,0.00043698519082498096,0.07511120633000701,0.02079940717705029,7.046873793682241e-05,-1.0593802328611595,0.44,0.56,-0.011641691737797158,Stairs up
-0.9153210449181999,-1.12927246093,-0.67541503906,0.019496224653590313,0.1389289833226113,0.18170532226190006,0.06713867187,0.26171875,0.003032018877970413,0.05478776039582846,-0.5122082519483,-0.63427734375,-0.28002929687,0.008584392641328922,0.09218757353849615,1.0703831335059997,0.83460746555,1.29873522662,0.018452717263484776,0.1351598686402511,974.4463358645601,974.4127854214,974.4839549973,0.0004639130091145489,0.071169575899944,0.021430676121471374,0.0001238110377342138,-1.0696434505812304,0.52,0.48,-0.09809286860275633,Stairs up
-0.8791894531208,-1.06665039062,-0.64819335937,0.013896971904761368,0.11729451046708773,0.1522888183555,0.01867675781,0.23828125,0.0025776908780593415,0.050516472256866354,-0.4795153808552999,-0.65966796875,-0.26635742187,0.016057572790747727,0.12608329414652936,1.0234932747366001,0.87847499863,1.27659031757,0.010878190850622329,0.10377576278744524,974.4587521578593,974.42173152087,974.49591135099,0.0005420777565727291,0.07417983011998786,0.02316585804599091,-0.00014736113329553996,-0.9864780098617469,0.48,0.52,-0.016905531753427596,Stairs up
-0.9655847167931,-1.33654785156,-0.66943359375,0.030989904973699727,0.17515708927691945,0.1567407226526,0.05798339843,0.24291992187,0.0019230433124598546,0.04363270424045771,-0.4676342773402999,-0.64538574218,-0.20593261718,0.017931360493989967,0.13323680756101172,1.0897714040709998,0.71470871155,1.47182881511,0.038724716516211226,0.19579956422589176,974.4726676887382,974.41952880577,974.54956149086,0.0010026199683810762,0.13003268508998644,0.03150545617345137,0.0001748561978497387,0.7356906306406734,0.56,0.44,0.8661495806388073,Stairs up
-0.8615100097619001,-1.09362792968,-0.63830566406,0.016458081324460534,0.1276459968475938,0.14429687499590002,0.05798339843,0.19555664062,0.0012384766521455221,0.03501559489176311,-0.4591259765584999,-0.64453125,-0.2646484375,0.009613844096147064,0.09755872926184306,0.9912919252914001,0.79139456443,1.25037170486,0.018379155866695897,0.1348901935206149,974.402178961118,974.37186205075,974.44412371296,0.00040171467832278624,0.07226166221005315,0.01994235521545934,-0.00047033219912385565,-0.27529753802478885,0.56,0.44,0.4664316608941009,Stairs up
-0.9208850097610001,-1.36267089843,-0.57849121093,0.04701532284862646,0.21574329565513778,0.11522583007440002,0.02990722656,0.16955566406,0.0013850792655031362,0.037030102252736286,-0.4766271972614999,-0.73706054687,-0.28930664062,0.014533288989078267,0.11994980658253471,1.0484655570544,0.71504672352,1.46573428232,0.052024250661227144,0.22694494520613337,974.3470083715938,974.25568081751,974.43733158645,0.0026577552500286765,0.18165076894001686,0.05129500655549611,-0.001216528701429228,-0.7192254727594767,0.6,0.4,0.14615689083976052,Stairs up
-0.9045825195270999,-1.24291992187,-0.61218261718,0.03531057552258735,0.1869691679592159,0.12362915038720003,0.03869628906,0.16418457031,0.0011843981330512483,0.03424257805307211,-0.48618530273009997,-0.72888183593,-0.24963378906,0.014315469112669774,0.1190475300942572,1.0386299590719,0.77272427551,1.44454427355,0.04189898637461431,0.20366638532381373,974.2303029442915,974.1540043694,974.30775837754,0.0019017273528437397,0.1537540081400266,0.04339020718221224,-0.001137267044328856,-1.0816490908579592,0.44,0.56,0.11374693563429493,Stairs up
-0.9365539550738,-1.37097167968,-0.61560058593,0.03638110238364652,0.18978222087384808,0.14198852538800003,-0.02954101562,0.24267578125,0.004233461755247604,0.06473891517236852,-0.36495605468349995,-0.65954589843,-0.21545410156,0.015781946880422195,0.12499650959774027,1.0198173440840999,0.69704372818,1.53466013785,0.046759701589412894,0.21515600055196873,974.1179585737092,974.06077543842,974.19431751426,0.0017620632294803752,0.13354207583995503,0.04176652483970352,-0.0008751325871445257,-1.0676349136734264,0.44,0.56,0.26561882679205323,Stairs up
-0.8862390136682001,-1.17224121093,-0.62939453125,0.026224851985701788,0.16112915150848642,0.17108032226199998,-0.02954101562,0.27905273437,0.0039571480000716525,0.06259054657111517,-0.4306896972615999,-0.68054199218,-0.17822265625,0.01624271463105976,0.12680807342101352,1.0080202027917,0.76307577883,1.33697363621,0.030340827855832114,0.1733130681087661,974.0297935959896,973.97451298895,974.10118990404,0.0012391388311369619,0.12667691509000178,0.03502495457278414,-0.0009029855304575764,-0.7348794194970467,0.48,0.52,0.494753234253759,Stairs up
-0.9047229003871001,-1.12255859375,-0.63513183593,0.014586233579598588,0.12016809578171156,0.1562707519492,0.05529785156,0.24853515625,0.0022295394494640038,0.04698131601998143,-0.48681396483909994,-0.62475585937,-0.30249023437,0.00962901114805961,0.09763565453551798,1.0444236597449998,0.83194390138,1.24912599764,0.015445925318618492,0.12365866757098876,973.9946661550291,973.95745236357,974.03878632009,0.0005906624688755411,0.08133395651998399,0.024181725417901544,0.00011523062132816948,-1.0983700729554053,0.48,0.52,0.14011860227727146,Stairs up
-0.8847180175749,-1.03674316406,-0.66442871093,0.013890558389459906,0.11726744137042176,0.16919677733909996,0.07019042968,0.23266601562,0.0021156631997436438,0.045765779439950624,-0.49827392577650004,-0.63854980468,-0.29663085937,0.009437600476503135,0.09666035625704109,1.0356327745560001,0.8727771163,1.21201152547,0.012408651823234907,0.11083575824165483,973.9885721021097,973.95467308141,974.02986132661,0.00038094445628434524,0.07518824520002454,0.019419964256442435,8.77787467697848e-05,-0.235595442062575,0.52,0.48,0.3148944318582032,Stairs up
-0.9020837402301999,-1.10046386718,-0.67626953125,0.014441095113201477,0.11956874241234397,0.16700073241719998,0.02880859375,0.27087402343,0.0042205917276941785,0.0646404347944631,-0.5171264648404998,-0.64135742187,-0.28308105468,0.013433539355653192,0.11532217463305425,1.0623002314892,0.89917184424,1.28584895843,0.012481405825856683,0.11116020766262591,973.9900470783223,973.95083537497,974.03271200852,0.0006916178130292667,0.08187663354999586,0.026166804063526252,-0.00011743020549333222,-1.2528088540120104,0.48,0.52,0.19995360567922887,Stairs up
-0.9039147949178999,-1.08850097656,-0.64404296875,0.016827069646021063,0.1290689697392865,0.12974853515310003,0.02978515625,0.24914550781,0.003848810840112113,0.06172781165496629,-0.49393310546499997,-0.66418457031,-0.287109375,0.012959112874153092,0.1132674787633748,1.0465758124675,0.86003476739,1.2568063562,0.01600430677331336,0.12587399932305413,973.9832404034995,973.94425737986,974.02705951972,0.0005079842788742325,0.08280213985995033,0.022425530898631814,-0.00019862272051007773,-0.5978617102397386,0.4,0.6,-0.07824018853215271,Stairs up
-0.9012866210899,-1.27526855468,-0.66906738281,0.024345973591276538,0.15524984333442585,0.1526098632777,0.08752441406,0.19946289062,0.0012529047992484112,0.03521896862850937,-0.4737426757772999,-0.72229003906,-0.25842285156,0.016884982435467502,0.12929088371232067,1.0334689077004997,0.72751298896,1.47617198684,0.03438434910443141,0.18450069271790578,973.969812334813,973.92908663357,974.05675310382,0.0011498834158593229,0.12766647025000566,0.03373995527117263,-0.0008162043910135394,-0.3013681513977535,0.56,0.44,0.6271308430092678,Stairs up
-0.9252770996041,-1.28686523437,-0.65612792968,0.02451646197179012,0.1557924816930272,0.12850585937190004,-0.06726074218,0.21325683593,0.0045437078521195304,0.06706914919393517,-0.4991577148408999,-0.70544433593,-0.29345703125,0.00971628123445387,0.09807710447453744,1.0651087060065998,0.79773696393,1.3951892903,0.026002042597017612,0.16044320543746138,973.9085836273812,973.85106830896,973.98973564264,0.0014072234221307908,0.1386673336800186,0.037324940561365705,-0.0006817507207967504,-0.7974845350127988,0.37,0.63,-0.06576201002810912,Stairs up
-0.9308740234340999,-1.42907714843,-0.57946777343,0.05026150233809224,0.2230670018508146,0.1300854492147,-0.02453613281,0.18054199218,0.001545888071093679,0.039120700279810204,-0.43315185546429996,-0.68420410156,-0.25805664062,0.014147552811754418,0.11834727408621153,1.0390769819733998,0.67927124168,1.56611328524,0.05725618264145968,0.238083222456025,973.8128880211522,973.7214912844,973.90832727154,0.002277526842189011,0.18683598713994343,0.04748422447263007,-0.0010931160532098739,-0.796289600730856,0.57,0.43,0.19056112680786283,Stairs up
-0.8673571777306001,-1.23657226562,-0.59619140625,0.02874896709822769,0.16870529756722347,0.1006750488255,-0.02453613281,0.1943359375,0.003547230409364671,0.05926008863705001,-0.42561767577859994,-0.7236328125,-0.26037597656,0.012084899592961043,0.10938030260074907,0.9776421077299001,0.70597587768,1.43287880451,0.0320682227016823,0.1781783950838751,973.6974234944518,973.6146031664,973.77404832364,0.002127627963962596,0.15944515724004305,0.045895007182949324,-0.0010976832721955334,-1.0169325746420266,0.45,0.55,-0.10521605550716313,Stairs up
-0.9479968261686998,-1.18395996093,-0.646484375,0.014762949610806068,0.12089383819987687,0.1265002441377,-0.04699707031,0.24267578125,0.005627016315182265,0.07463743130648617,-0.4475195312478999,-0.67199707031,-0.28051757812,0.010274507084372955,0.10085515362900017,1.0635436946307,0.80429515718,1.31903932344,0.014350164576560916,0.11919170663597072,973.6103686058165,973.54258252157,973.69436138372,0.001428712523038576,0.1517788621499676,0.037608847334213664,-0.0008192558323185639,-0.5411558977955795,0.45,0.55,0.18727589252794807,Stairs up
-0.8296008300748001,-1.40002441406,-0.4736328125,0.05113576009287882,0.2249986722004155,0.1504260253873,-0.00134277343,0.30444335937,0.00479489423244467,0.06889807900166901,-0.5242517089808,-0.71301269531,-0.20495605468,0.010572254373367063,0.10230606936850517,0.9991485891385001,0.59306128612,1.54076753367,0.05378318907000827,0.2307495551009973,973.5794326072388,973.46512578672,973.70425231421,0.002248041173468568,0.23912652748992969,0.04717584934830408,0.0007827065848025034,1.065670852459415,0.55,0.45,0.5215419488805944,Stairs down
-0.9035864257778,-1.53430175781,-0.57592773437,0.06205421396574625,0.2478581687701432,0.16108642577730004,0.05554199218,0.35546875,0.00681538617362657,0.08214153828539068,-0.5239465331996999,-0.76000976562,-0.24169921875,0.01649094020893472,0.127773357187034,1.0654767560182996,0.63229104916,1.68703930358,0.06687217414218644,0.2573003155862125,973.710619508092,973.60479787746,974.01350388292,0.008582884115342184,0.40870600545997604,0.09217947317157309,0.0019475152101602953,2.336144187274229,0.59,0.41,1.4140989135136433,Stairs down
-0.9093261718713999,-1.59106445312,-0.52502441406,0.07308864593473413,0.26899397665261354,0.1491528320288,-0.07861328125,0.32299804687,0.013078227494238337,0.11378684115176041,-0.5735583496059,-0.85217285156,-0.28076171875,0.017897853976161275,0.13311226628827136,1.0986285845626997,0.7412999116,1.73625980238,0.07487792714266958,0.2722666852026573,973.8344499281873,973.74856456768,973.9687085196,0.0041043990033433906,0.22014395192002212,0.06374445084326914,0.0012155891796059245,-1.0441414419443302,0.52,0.48,0.2864703263992678,Stairs down
-0.8440478515594001,-1.47302246093,-0.44763183593,0.07755432475671319,0.2770898437495428,0.1361791992149,0.03002929687,0.30480957031,0.00806477671319329,0.08935395316415137,-0.5643164062463,-0.85229492187,-0.3017578125,0.01888324614714213,0.13672751619798668,1.0321564680467001,0.54743069617,1.7069502665,0.08840899594919266,0.29584608496598486,973.9497048650098,973.85217771073,974.16641761331,0.009254951069368966,0.31423990258008416,0.09572043438407118,0.00025535259391518535,-0.23216675895251537,0.68,0.32,1.0121799720832232,Stairs down
-0.9044213867144001,-1.0908203125,-0.67565917968,0.016453902522720155,0.12762979079154269,0.12732299804240002,0.02124023437,0.302734375,0.0065724456716429866,0.08066424991857643,-0.5559387206987998,-0.76440429687,-0.32934570312,0.012761204945754726,0.11239925665366822,1.0733714740369,0.81826862751,1.33226771786,0.02682869503431628,0.16297364229829656,973.967364679165,973.91904782406,974.02264943184,0.0009393809386508163,0.10360160777997862,0.030495690339198883,8.382991330579827e-06,-0.723752452089796,0.48,0.52,-0.12779622379951242,Stairs down
-0.8751450340304952,-1.13122558593,-0.66882324218,0.0181786688306891,0.1341591667035215,0.12678271000594057,0.00317382812,0.30029296875,0.008983022594162957,0.0943084395820383,-0.576197255951386,-0.78088378906,-0.39270019531,0.012865748797975673,0.11286436615030701,1.0611032500735642,0.83450441428,1.35390822866,0.02792345538377366,0.1662738269496699,973.972255559111,973.92514208416,974.01868199322,0.0007622260488113552,0.0935399090599276,0.027471426177919242,0.00027461742605102503,-0.42144286178881973,0.49,0.51,-0.30242387085506867,Stairs down
-0.7023535156218,-1.31494140625,0.13745117187,0.18062089274486248,0.422864852899143,0.151794433592,-0.14147949218,0.41906738281,0.03239279277898252,0.179077817864728,-0.6403491210895998,-0.83911132812,-0.34143066406,0.019897344022187544,0.14035088379474378,1.0537250129600002,0.66194268888,1.42296716643,0.04710557997063286,0.21595028171069036,973.9810217851038,973.71946052933,974.17953947502,0.011876388076531918,0.46007894568992924,0.10843257903308673,-0.00031615032430809314,-0.04838953364675724,0.64,0.36,-0.12766155483649053,Stairs down
-0.858995225689495,-1.16442871093,-0.53967285156,0.020930924247702907,0.14394269960805023,0.1906183416159596,0.0244140625,0.31750488281,0.00639835920656493,0.07958473041726992,-0.528357303500909,-0.71435546875,-0.2568359375,0.01329989349798626,0.1147412355669083,1.0351251516455555,0.75170033156,1.25906265517,0.022329845737645505,0.14867512145714074,973.978908533798,973.82995602088,974.0874953944,0.004342529844688589,0.25753937351998957,0.06556421208909212,0.0017324211931738622,-0.43966846778180013,0.38,0.62,-0.4658459113173302,Stairs down
-0.8142224121042,-1.70690917968,-0.40954589843,0.06116497995154161,0.24607586259531064,0.14348266601299997,-0.01281738281,0.32214355468,0.005820615151510015,0.07591053286596607,-0.49932983398079983,-0.84191894531,-0.24169921875,0.020133109855945235,0.1411799516836076,0.9752222935422004,0.49757042328,1.81870168215,0.06875221314386386,0.26089210607533764,974.108795736349,973.99892434381,974.47988657688,0.012153817247223602,0.48096223306993124,0.10969174570017275,0.0013656113238853336,4.005824624777037,0.67,0.33,2.013359772918892,Stairs down
-0.9458251953075998,-1.70690917968,-0.49743652343,0.09231981002955977,0.30231872573372653,0.1376892089808,-0.04956054687,0.40490722656,0.017934950425192702,0.13325014416855532,-0.5621716308549999,-0.92443847656,-0.24694824218,0.020604188904514164,0.14282208168021154,1.1257808018039999,0.64839469814,1.81870168215,0.0926752596433243,0.3029001601962123,974.2672581643,974.10659544092,974.53144911689,0.01710352903605406,0.4248536759699846,0.13012491592963094,0.0008529845579064276,-0.5757532264118121,0.68,0.32,0.7994392122395773,Stairs down
-0.8842993164023,-1.37121582031,-0.50183105468,0.05684064927166967,0.2372177117732843,0.180697021482,-0.03674316406,0.56628417968,0.031167410796298197,0.17565801060109731,-0.5616174316377,-0.76904296875,-0.24853515625,0.02186995890855665,0.1471436689751587,1.0866922477695,0.56144193638,1.57453068655,0.058515183339344294,0.24068658356034484,974.3509159364181,974.29272612078,974.49664603469,0.001925318229682989,0.2039199139099992,0.043658504868881606,0.0003201660947376088,1.4333898906411182,0.48,0.52,1.0021458110860966,Stairs down
-0.7998873007383838,-1.23779296875,-0.50109863281,0.03186218252843998,0.17759600868510528,0.20297580294808076,-0.03662109375,0.38745117187,0.011728328878287758,0.10774906454266879,-0.5884454900526263,-0.7919921875,-0.32739257812,0.013018674471123622,0.1135216838704793,1.022459364638485,0.60042308056,1.49271861206,0.03828793563863058,0.1946822765790403,974.3895212081998,974.2934125342,974.50668176789,0.0031254639189535194,0.21326923368997086,0.05562277929353968,0.000840405276718065,-0.5363787480187101,0.67,0.33,0.6310623538804598,Stairs down
-0.8084252929645999,-1.38879394531,-0.5419921875,0.03927906468079539,0.19719602945796713,0.22894042968300007,0.04345703125,0.35778808593,0.008863945946392492,0.093676605867893,-0.48699707030779993,-0.66760253906,-0.22546386718,0.00912656822582215,0.09505420844741136,0.9815983909157998,0.58862381899,1.52730743189,0.03665939712933561,0.19050670108435097,974.479138018324,974.37779470639,974.78168319495,0.007981089284272993,0.40388848856002824,0.08888913539589786,0.0013000766766295482,3.039179859136227,0.62,0.38,1.7049693443817535,Stairs down
-0.7671406056580197,-1.48132324218,-0.29907226562,0.08960898973538935,0.29786200163034726,0.015389319693267327,-0.3984375,0.39929199218,0.05068490751125905,0.2240157957462394,-0.7420932278736633,-1.23791503906,-0.47106933593,0.03490626599863553,0.18590497412546453,1.1081915122117822,0.61871714504,1.71630601516,0.08566918908711138,0.29124041493956443,974.6449895649783,974.48054413372,974.82498296599,0.011074636394754063,0.34443883227004335,0.10471383160528254,0.0023503115640852446,-1.1564026018435425,0.53,0.47,-0.040360375036132407,Stairs down
-0.8140295410117,-1.46459960937,-0.02966308593,0.13209317502769694,0.36162445060783704,0.0022766113276,-0.43322753906,0.49084472656,0.05513663736534694,0.2336349096168924,-0.7112744140588001,-1.0654296875,-0.34448242187,0.04868693698554566,0.21954513799146227,1.1525097520885002,0.6693380609,1.75951488711,0.07458527466832257,0.2717341015066739,974.7180079667528,974.52064375075,974.95115542335,0.012200969762224236,0.4305116726000051,0.10990432231992513,0.0005336922345186316,-0.4582962478729917,0.45,0.55,0.2144298112172272,Stairs down
-0.7900537109339999,-1.12182617187,-0.44482421875,0.026883112444856826,0.16313884062481337,0.10887451171509997,-0.03381347656,0.26684570312,0.007619419332545913,0.08685174229237116,-0.6825573730422999,-0.94274902343,-0.36560058593,0.01871777950369791,0.13612715272369774,1.0595071410234,0.74283870437,1.43286086534,0.03237961540185742,0.17904138976180578,974.798479503196,974.7377160844,974.85974865983,0.0011806418145955235,0.122032575430012,0.03418823476650364,0.0005096871997893074,-0.8360655227976777,0.6,0.4,0.043352119758634886,Stairs down
-0.7993298339808999,-1.25158691406,-0.44555664062,0.04462061352653724,0.21017708579022565,0.0788720703113,-0.06628417968,0.30786132812,0.010583405927599519,0.10236001108012602,-0.6881188964806,-0.95690917968,-0.41259765625,0.01545526681949163,0.12369605552036295,1.0659300934791,0.69584246594,1.53263875207,0.052931648370645054,0.2289155562362213,974.8051327511689,974.75261365731,974.87371442671,0.0009720225860087589,0.12110076939995906,0.031020998696829078,9.076274967475804e-05,-0.5467348876465792,0.52,0.48,0.29917857457427355,Stairs down
-0.7820104980437,-1.31701660156,-0.42431640625,0.05109686136727988,0.22491307821824652,0.1124389648429,-0.15954589843,0.42578125,0.029950573437548186,0.1721948538812142,-0.5690942382776,-1.02551269531,-0.17102050781,0.04194312384038266,0.20377363078175456,1.014280009269,0.59151457042,1.49803412778,0.04146253309238871,0.2026028325603194,974.8618804339754,974.7626655139,975.13303006316,0.008902393818341492,0.37036454926010265,0.09387954985063615,0.0018377943585156308,1.3183783014069919,0.61,0.39,1.3849170851633117,Stairs down
-0.6491271972613,-1.09655761718,-0.37426757812,0.03824324540864651,0.19457855214426906,-0.0775976562482,-0.53002929687,0.25659179687,0.04565570717965449,0.2126009174671124,-0.7409680175745998,-1.314453125,-0.38793945312,0.044339911352526795,0.2095149451447355,1.0288540874798,0.59846059739,1.49769689657,0.04528975710076908,0.21174715943729067,974.9174616308809,974.60079026087,975.46175241958,0.05013574878291516,0.8609621587099809,0.22278777187064375,-0.0030387242149786057,0.5268381280570194,0.56,0.44,0.9277092710558822,Stairs down
-0.6861083984334999,-1.150390625,-0.31457519531,0.036525476460301,0.19015841210868897,-0.08824951171779999,-0.55700683593,0.39379882812,0.05103899788858037,0.22478569329406747,-0.7036315917931,-0.98291015625,-0.46411132812,0.012708297093549028,0.11216601144113816,1.0206873688091003,0.66391291336,1.46604873941,0.031411582398621025,0.17634473787055516,975.0735609326163,974.89409181223,975.21829087667,0.011320087203094794,0.3241990644399948,0.10586258229924228,0.0020693049358169106,-1.2181438420076791,0.41,0.59,-0.28842357407863956,Stairs down
-0.7585998535114998,-2.0400390625,-0.20483398437,0.20268682168465335,0.44795083822648085,0.050708007811100006,-0.57873535156,0.45178222656,0.07908925564443126,0.2798184466542314,-0.6617285156216,-1.1025390625,-0.2421875,0.040940406732113736,0.20132312997962404,1.0984265631100998,0.57176986415,2.14239354412,0.13017987158084934,0.3589959231872151,975.2501877727805,975.03396560999,976.03138825549,0.050045628599135195,0.9974226455000235,0.2225874486873504,0.000653508339089481,3.629911570756348,0.73,0.27,1.8374063116224804,Stairs down
-0.9496838378871,-1.44555664062,-0.46459960937,0.058070182106516766,0.23976964004112697,0.1933251953082,-0.01574707031,0.41845703125,0.01187263958389386,0.10841546563131535,-0.5107714843722999,-0.765625,-0.29248046875,0.016932954426956377,0.129474417869658,1.0993274122841,0.57656356945,1.65087378387,0.07166968520162087,0.26637002149191763,975.3416868754651,975.22451260209,975.53385974657,0.003616974438455126,0.3093471444799434,0.05983982531784811,0.000687388484486265,-0.13603385162766823,0.44,0.56,-0.08243790326320685,Stairs down
-0.6000549316368999,-1.30725097656,-0.02282714843,0.16031349378895993,0.3983846870188039,0.338057861324,0.01232910156,0.69116210937,0.05130677291092883,0.2253745885893517,-0.6282629394486999,-0.7861328125,-0.41674804687,0.012799306606816944,0.11256692916104967,1.0223191848811002,0.74562100717,1.50889956862,0.04656790047285694,0.21471427867780096,975.407796934428,975.31321398962,975.58257374884,0.0068348627038922385,0.26935975922003763,0.0822588237021009,-0.0011642779284289316,-0.483984922765865,0.56,0.44,0.7734142175635121,Stairs down
-0.7567993164022999,-0.89013671875,-0.58813476562,0.005481559670497246,0.07366643790622887,0.31284423827820007,0.16479492187,0.68603515625,0.025781343193937576,0.15976085178164956,-0.6178247070271999,-0.728515625,-0.50988769531,0.0035695829717649593,0.05944650655881563,1.0413336359532002,0.94604436271,1.12514200241,0.002457081774364943,0.049320492258505426,975.3569362391493,975.324327929,975.40018175458,0.00043795182984634757,0.07585382557999765,0.020822399274528478,0.0006022577352847833,-1.1083044200737735,0.45,0.55,0.1162839911906043,Stairs down
-0.7984313964816999,-0.84057617187,-0.66564941406,0.0014307346533137103,0.03763545279095992,0.17956542968280004,0.12280273437,0.22546386718,0.0006741706770808674,0.02583464670379796,-0.6104077148390998,-0.72399902343,-0.54418945312,0.0018848082693790507,0.043196761298565665,1.0222816481173003,0.92853787611,1.12374886507,0.0012364294419533507,0.034986642415839465,975.3912628818939,975.38253586129,975.40298538829,3.335754311051968e-05,0.02044952699998248,0.005746648386617584,0.00012241013613296988,-0.38578988552034765,0.61,0.39,0.7668528354819152,Stairs down
-0.8140136718714,-0.82067871093,-0.80712890625,2.1923672071136166e-05,0.004658801922213994,0.19614746093420002,0.16040039062,0.23010253906,0.00039121921615588805,0.019680117479180078,-0.5824853515583999,-0.59240722656,-0.57202148437,4.076899903560804e-05,0.006353055095405041,1.0201844362116,1.0046289418,1.03545385437,5.4907158109371585e-05,0.0073727936718911286,975.3975748235455,975.39065825641,975.40529350771,2.1545050433992182e-05,0.014635251299978336,0.004618397983029642,-1.8143708942423655e-05,-1.080282165198221,0.43,0.57,0.06648106105199172,Stairs down
-0.8638037109336,-0.87158203125,-0.85803222656,1.5802479755808084e-05,0.003955307188860304,0.24480957030880007,0.236328125,0.26049804687,4.050962851860301e-05,0.006332813926953561,-0.47869628905959993,-0.49353027343,-0.46643066406,5.0807384523183975e-05,0.007092200693575453,1.0174977326032002,1.00605355767,1.03207955084,4.356196370339665e-05,0.0065670651029484,975.372984977426,975.36409649448,975.37967912087,1.6128063140144614e-05,0.015582626390028054,0.00399584565627142,0.00010264101400715601,-0.034898940668921075,0.4,0.6,-0.49865440908762343,Lift down
-0.8647167968707998,-0.87524414062,-0.85534667968,3.8627759359412476e-05,0.006183969741664197,0.24381835937200003,0.22436523437,0.25732421875,5.958764240337458e-05,0.007680609740075383,-0.47627929687079984,-0.49194335937,-0.46057128906,6.879185185950222e-05,0.008252510729523906,1.0169141007515998,0.99996425147,1.03340298426,7.631178042856275e-05,0.008691873366787917,975.3814649936094,975.37778266183,975.38916788124,5.8327667341823544e-06,0.011385219410044556,0.0024030062560968356,1.688914969914712e-05,2.0653566221715325,0.56,0.44,1.0025042383788547,Lift down
-0.8299072265588001,-0.88037109375,-0.71862792968,0.0025585396121881715,0.05032846327940373,0.22812011718320005,0.19018554687,0.25500488281,0.0003809679397490946,0.019420562822730025,-0.49977050780839993,-0.57348632812,-0.46496582031,0.0011336903620202984,0.033501544119638654,0.9965166969819998,0.89431475222,1.02793508271,0.0015578703101642856,0.03927202066436922,975.3837639461796,975.37374066085,975.39151872606,1.6553540325971332e-05,0.017778065209995475,0.004048210088756711,-2.5511227898659275e-05,0.11958651776923457,0.52,0.48,-0.15844347414737248,Lift down
-0.8566503906208002,-0.9248046875,-0.81921386718,0.0006690395240061394,0.025736144403660743,0.22825683593240004,0.17419433593,0.29284667968,0.0011026188821282377,0.033039259878316816,-0.45110839843399986,-0.53125,-0.35205078125,0.0037247919313016333,0.060725151395353616,0.9971455448751996,0.92372883269,1.02815807544,0.0005980911219694278,0.024333314832750048,975.4483230728301,975.39482802321,975.54253814327,0.0025455338228554066,0.14771012005996909,0.05020038331155304,0.0016748750144871618,-1.1284824521608487,0.48,0.52,0.45309608452136935,Lift down
-0.8626733398412999,-0.87512207031,-0.85009765625,3.0216538549271147e-05,0.005469403364515954,0.22994995116740008,0.20483398437,0.24597167968,9.894442528885736e-05,0.009897220874365125,-0.4865783691376,-0.51318359375,-0.46923828125,0.00011355809941940722,0.01060294857222335,1.016881507089,1.01030642196,1.03317853469,3.340710872437898e-05,0.005750916243272474,975.6437578550716,975.5475553526,975.75310082972,0.0039022524397956983,0.20554547711992655,0.06215488649653977,0.0021445121449014527,-1.1769828248415912,0.48,0.52,0.02608273563520986,Lift down
-0.8961425781215999,-0.91259765625,-0.86254882812,0.00012843175369440997,0.011275967193880349,0.23557128905840002,0.22583007812,0.24658203125,4.1874972248086326e-05,0.006438650675848587,-0.5151708984335999,-0.53234863281,-0.48999023437,0.00011356854679721828,0.010603436298165143,1.0602340750775996,1.02688981677,1.0846619971,0.00015267647195514906,0.01229429571938131,975.844290181763,975.75310082972,975.90488824609,0.0020562665532842805,0.15178741636998438,0.045118775335235305,0.0015294570825340722,-1.0874033469004998,0.48,0.52,-0.4519924741690527,Lift down
-0.8796240234332001,-0.88696289062,-0.87023925781,1.9265328990906128e-05,0.004367227461559229,0.2379687499976,0.21350097656,0.25439453125,0.00013912817444194288,0.011736136191162894,-0.4537304687468,-0.48608398437,-0.42443847656,0.00022687873453585469,0.014986992599934655,1.0181023866863999,1.0048794167,1.04077989582,8.872382398821458e-05,0.009372117463430153,975.9255215890449,975.90488824609,975.94166410278,0.00010657003611798437,0.03677585669004202,0.010271530351257526,0.00032230545858728446,-0.5999870262997304,0.4,0.6,-0.5203466265531611,Lift down
-0.8601074218712,-0.95275878906,-0.71472167968,0.004632878785131073,0.0677240725095572,0.20568359374719997,0.1240234375,0.26684570312,0.0018498301264903646,0.0427940629670222,-0.49227050780879994,-0.61145019531,-0.37121582031,0.006553790448762974,0.0805496899080024,1.0180753002056002,0.95207398734,1.0672751649,0.0008581699318776139,0.02914769686542725,975.94350028025,975.93070257512,975.96427574856,9.172188495914146e-05,0.03357317344000421,0.009529148236308953,2.9480257496493514e-05,-0.3822731860308921,0.6,0.4,0.8737034989325333,Lift down
-0.8854980468724,-0.96203613281,-0.84228515625,0.0013416692464223543,0.03644519932663465,0.24442871093440005,0.17687988281,0.31518554687,0.001499847787721777,0.0385337424842768,-0.4580615234331998,-0.50451660156,-0.39135742187,0.001486824112685002,0.03836607709367941,1.0282312363132002,0.98428363224,1.08450512448,0.0007051791899536944,0.02642210056097277,975.9576616751212,975.94091419853,975.97424403336,8.362976412436054e-05,0.033329834830055916,0.009099091519658264,0.00016777523913620481,-0.5435092213039421,0.28,0.72,-0.5254573938191198,Lift down
-0.8795323135792078,-0.90185546875,-0.86743164062,7.773746948905467e-05,0.00877312894999962,0.25183588915158417,0.2177734375,0.28796386718,0.0003365397217071028,0.018253976149172464,-0.4391920637339603,-0.47705078125,-0.41394042968,0.0002541813343055837,0.015863942997605324,1.0150990579342576,0.99085502811,1.04348831236,0.00012505541771239473,0.011127319769818641,975.9382674688719,975.93423425601,975.9460926668,8.844181799190885e-06,0.011858410790068774,0.0029591579279861445,5.54608125035145e-06,1.3347811526209066,0.49,0.51,1.1510873632488026,Lift up
-0.8784960937455999,-0.88464355468,-0.87365722656,1.041682079693813e-05,0.0032113319026486112,0.2507470703092,0.24267578125,0.25891113281,1.856693113226898e-05,0.0042873373812829674,-0.4359716796835999,-0.447265625,-0.42687988281,3.4580471538670894e-05,0.005851039807015859,1.0122984600336005,1.00444498709,1.02211263675,1.569886797916869e-05,0.003942319025570736,975.9381750609449,975.93332940565,975.94320225611,7.89612626809761e-06,0.009872850459942129,0.0027959193488755417,1.7911728388455808e-05,-0.6936723836781105,0.52,0.48,0.1266871832836996,Lift up
-0.9174951171844,-0.93420410156,-0.87927246093,0.00020392533504016522,0.01420866220619533,0.25986816405759994,0.25170898437,0.26794433593,2.6055875452009345e-05,0.005078909006616407,-0.46365234374599995,-0.48510742187,-0.44006347656,0.00013322093269912502,0.011484281578406799,1.0603602631067999,1.01605360817,1.0808756817,0.0003009405626909651,0.01726068240435631,975.9214176460598,975.87497265789,975.94148653176,0.00045883081833248123,0.06651387387000796,0.021312965775535708,-0.0006833482190165459,-0.7057015659341159,0.36,0.64,-0.836201641901188,Lift up
-0.8835156249959999,-0.9091796875,-0.87194824218,8.969388827561255e-05,0.009423213326294616,0.24977050780880003,0.23828125,0.26110839843,3.2621585953342994e-05,0.00568290155587879,-0.4454638671836,-0.45947265625,-0.43115234375,4.949386672953559e-05,0.006999923432598405,1.0205373451483997,1.01030223319,1.05066777435,9.781975373452719e-05,0.009840810748977033,975.769267082625,975.66495791399,975.87497265789,0.004044645468854029,0.2100147439000466,0.06327874061772633,-0.0021841365293189126,-1.153097761185404,0.48,0.52,-0.03561067702648222,Lift up
-0.8625585937472,-0.88256835937,-0.83020019531,0.00024173587256592384,0.015469922877644367,0.25267089843359997,0.24206542968,0.26843261718,5.1587904338953975e-05,0.007146469428715443,-0.4411083984344,-0.466796875,-0.419921875,0.00015835458579950773,0.012520824251682182,1.001269718994,0.96361609592,1.02708383905,0.00033600114703745274,0.01823845211543672,975.5532093622746,975.45273429018,975.64516880394,0.003609277324491148,0.192434513759963,0.0597761202425035,-0.0020625800450156944,-1.2830468039736216,0.48,0.52,-0.008229903352889936,Lift up
-0.8535180664033999,-0.8935546875,-0.82971191406,0.0005068441773936619,0.022400351238757964,0.24694824218409991,0.21691894531,0.29406738281,0.0004006726573257107,0.01991647385338212,-0.4335998535121,-0.47314453125,-0.40380859375,0.0002869088767192551,0.01685347999530253,0.9890880821618001,0.96377666631,1.03467379429,0.00048444127205394275,0.021899699982725868,975.399672663408,975.37529483583,975.44615586409,0.000498204452720136,0.07086102825996932,0.02220861112705913,-0.0007139888213329125,-0.6763801697550211,0.6,0.4,0.7886880475279611,Lift up
-0.8859423828084999,-0.90808105468,-0.86572265625,9.504758948022954e-05,0.009700366672730843,0.2586791992152,0.20056152343,0.2998046875,0.0009105667622198528,0.03002434170132052,-0.43590332030929985,-0.46875,-0.40698242187,0.0003297165427626345,0.018067079933819084,1.0212782400349998,0.99856015199,1.04997260591,0.000134618622934032,0.011544368181268808,975.3708156998484,975.36228909464,975.38292123424,2.933882670037509e-05,0.020632139600024857,0.0053893820084840284,-8.400639762227927e-05,-0.7164572268292173,0.36,0.64,-0.02224027596564007,Lift up
-0.875478416980101,-0.890625,-0.85815429687,6.232081528704339e-05,0.007854381713561277,0.2526201960972728,0.22827148437,0.28930664062,0.0003130293966447995,0.017603053245030458,-0.44902886284363636,-0.46875,-0.43078613281,9.382568519132374e-05,0.009637320737501268,1.016013058836768,1.00134512466,1.03623401748,8.914319696071096e-05,0.00939376179322078,975.3616875448216,975.35499354363,975.36732629523,1.1246379024161238e-05,0.012332751599956282,0.0033365819690273453,-4.6690271329992134e-05,-0.8101639573456256,0.64,0.36,0.31854175105624855,Lift up
-0.853299282561485,-1.1689453125,-0.57971191406,0.020533392393951785,0.14258362977270633,0.14875778348881188,0.0419921875,0.23754882812,0.0030241050872896152,0.05471894966793492,-0.5552229173075246,-0.77062988281,-0.26879882812,0.01779372363401395,0.13273111222501324,1.0346042989581186,0.66757437011,1.36794979642,0.029347347127538087,0.17046049200385444,975.3924558551995,975.32106382945,975.4813800812,0.0025616058997415094,0.1603162517499186,0.0503611304985363,0.0012501622608728058,-1.027818379237183,0.62,0.38,0.4754835186176216,Stairs down
-0.8265649414031,-1.1162109375,-0.55480957031,0.02445234420946805,0.1555886267288627,0.18095947265229997,0.0341796875,0.30895996093,0.008199751130110563,0.09009857722966251,-0.5577624511675999,-0.74084472656,-0.2802734375,0.018073026187096632,0.13376208702478318,1.0202645949825,0.64455683108,1.32944846128,0.03669991067647099,0.1906119397354381,975.4782799863958,975.42438545987,975.60218409193,0.002990598686101451,0.17779863205998936,0.054412247695169114,0.0009683353874441505,0.10204496202420277,0.72,0.28,1.1466428864340377,Stairs down
-0.7702905273406998,-1.13903808593,-0.52172851562,0.026053002260008073,0.1606003494311516,0.17696899413700007,0.02856445312,0.37268066406,0.008133091064318466,0.08973160064144226,-0.6161425781225001,-0.78991699218,-0.43542480468,0.00834982151945992,0.09091932305217258,1.0124240178026005,0.74677287644,1.35823433252,0.02162157761852704,0.14630571363532519,975.6096201237527,975.47568182528,975.91103711819,0.012288454666442988,0.4353552929100033,0.11029764331017484,0.0023971289357441906,1.8238165479403534,0.68,0.32,1.4492781133472514,Stairs down
-0.8725854492147,-1.146484375,-0.63745117187,0.021858450614054982,0.1471049492978208,0.08471069335849998,-0.06628417968,0.33984375,0.012564134830657134,0.11152799416447229,-0.5671459960899999,-0.74853515625,-0.33715820312,0.010917801995471776,0.10396453229595687,1.0555957271844003,0.8059283661,1.28883295616,0.021051002980533005,0.14436236680910877,975.7337736388195,975.55162137192,976.42320834574,0.03238219882937762,0.8715869738200581,0.1790485320830189,0.0035850333767315436,6.451313963107522,0.64,0.36,2.41344040587931,Stairs down
-0.7607238769486,-1.27380371093,-0.46813964843,0.051773367920225945,0.22639707206813361,0.11582153319959998,-0.17041015625,0.39904785156,0.015660072424721012,0.12451293788387535,-0.6667370605435999,-1.07727050781,-0.296875,0.03172631278648758,0.17722598471618858,1.0438057918416,0.71052334847,1.52917919461,0.04574886559036454,0.21281770822575102,975.7061740118272,975.50860118657,976.07202113831,0.015908481310110287,0.563419951740002,0.12549659954360987,0.00039431244209783676,0.901423546368266,0.56,0.44,0.7804513112626199,Stairs down
-0.9754736328093,-1.50268554687,-0.26916503906,0.08133864212514595,0.2837697230218448,0.3621740722621999,-0.14685058593,1.13610839843,0.09800702491534045,0.3114915001507859,-0.35725097655869986,-0.82983398437,0.14111328125,0.05370261271729629,0.23057663929835417,1.1707573178369004,0.73978281465,1.86678085128,0.07110325946400875,0.2653153347798967,975.8384854148386,975.71229980513,976.04125891577,0.008208868242650137,0.3289591106399712,0.09014865257020559,-0.0019127502903978793,0.12175202000958674,0.65,0.35,0.955989798206637,Stairs up
-0.9684277343721,-1.30859375,-0.54357910156,0.03373019187100751,0.18273721556458453,0.1486999511699,-0.13989257812,0.31018066406,0.0144896472261544,0.11976957357314442,-0.40544677734109996,-0.66796875,-0.21557617187,0.014901474022002445,0.12145970229579199,1.0732469456895002,0.6880225125,1.3829673745,0.03533548989014395,0.18703511700010378,975.7236828694597,975.6027751581,975.84374430931,0.004398673407050762,0.24096915120992435,0.06599004980283205,-0.0014078610130047644,-0.5756303745056894,0.6,0.4,0.3374439034394783,Stairs up
-0.9057617187462,-1.3759765625,-0.51501464843,0.04435618598079373,0.20955339205316098,0.23841064452750008,0.14282226562,0.37817382812,0.0029366112176727258,0.05391887522469287,-0.4396789550756,-0.751953125,-0.18225097656,0.023722658065336952,0.15324957254323282,1.0429731645946,0.6782314775,1.44900036012,0.05360988763028511,0.2303774918562624,975.6007198746022,975.51088364109,975.76580979018,0.0057890837176169906,0.25492614909001077,0.07570464239688884,-0.0016305106479699652,-0.39002577977997044,0.65,0.35,0.8244008882488318,Stairs up
-0.9381640624963,-1.24194335937,-0.57922363281,0.027816425164484314,0.16594656041280118,0.21413208007480006,0.11901855468,0.33264160156,0.004527842473224231,0.06695195328361966,-0.47985107421599993,-0.76806640625,-0.18225097656,0.02000035836854748,0.1407137334621678,1.0863565546165,0.79301402709,1.45114038158,0.028193964940805442,0.16706892377518145,975.4811759192884,975.33629805619,975.55084188154,0.001986088399107232,0.21454382535000605,0.04434216407795361,-0.0008011811027988113,-0.13573457735799233,0.41,0.59,-0.45784778058139297,Stairs up
-0.8900024414024,-1.17041015625,-0.57922363281,0.01766083803441922,0.13222794581356478,0.22487670898099998,0.08422851562,0.32849121093,0.004131822181241891,0.06395704776980776,-0.46301147460589986,-0.71081542968,-0.23486328125,0.015485842569478464,0.1238183514014933,1.0373819694422999,0.79301402709,1.25344741008,0.017977649289457616,0.13340866837114837,975.3552109029472,975.29686839082,975.44347913729,0.0019982606951937623,0.1466107464699462,0.04447783816960785,-0.0008397493325045448,-0.8067730166789713,0.6,0.4,0.6335935628937729,Stairs up
-0.8880468749959999,-1.06494140625,-0.64086914062,0.018270523042574628,0.13449095810555028,0.22781738280930003,0.14135742187,0.32006835937,0.003124371947585904,0.055615899058722815,-0.5140637206999998,-0.71606445312,-0.29345703125,0.012681018612313725,0.11204556406297657,1.0590791969089997,0.86881815896,1.3065607534,0.017046394125578325,0.12990739079945582,975.3189886854456,975.28083579049,975.38410424581,0.0006024112110816516,0.10326845532006246,0.024421038040403503,0.00010316230305099123,1.6007839107003452,0.55,0.45,1.1409175401214864,Stairs up
-0.8770373535122999,-1.12182617187,-0.60083007812,0.023147426378687577,0.15138015759966925,0.20674926757420004,0.09826660156,0.34985351562,0.006673789293807289,0.08128377083323102,-0.5631689453091998,-0.77819824218,-0.32556152343,0.015217987118189754,0.12274285008507768,1.0729004036699,0.87698857802,1.40222675929,0.022800580431038043,0.15024172065950145,975.3165064701029,975.27507061112,975.38245037384,0.001112423690106564,0.10737976272002925,0.0331858321156107,-0.00021384709398827514,-0.4913918256276819,0.52,0.48,0.6576974167789126,Stairs up
-0.8855627441371999,-1.18029785156,-0.60583496093,0.016030751230654408,0.12597794933379358,0.1650500488248,0.00183105468,0.30139160156,0.0067509313709925665,0.08175219909753279,-0.5606774902312999,-0.79748535156,-0.34130859375,0.020070369272141377,0.14095980128894892,1.0733483338588998,0.84977564445,1.31395276027,0.01633234952618284,0.12715748515490943,975.3210559054663,975.27875092571,975.40490121879,0.0011496441623515033,0.12615029307994519,0.03373644499244086,-0.00015394582700230068,-0.2696150654454703,0.64,0.36,0.7243254164443063,Stairs up
-0.9705786132779,-1.30822753906,-0.68298339843,0.020424743487385384,0.14219879061550253,0.16585815429470002,-0.24182128906,0.48876953125,0.03916731485575374,0.19691531608078688,-0.38863891601219985,-0.56127929687,-0.15551757812,0.012096753883425656,0.1094339359823606,1.0848848763655001,0.94060169362,1.39412076769,0.014715866742189642,0.12070090337179647,975.2934524310086,975.23009936369,975.42067264434,0.0030300230713462563,0.1905732806500282,0.05476972558478629,-0.0007873845735612225,0.057650968451719464,0.57,0.43,1.03463654215834,Stairs up
-0.9163403320273998,-1.51416015625,-0.6337890625,0.04166670285709107,0.2031010483195992,0.19249267577819995,-0.01342773437,0.33630371093,0.00877581386230928,0.09320974049790176,-0.44755981444970006,-0.65881347656,-0.2275390625,0.015867582202938407,0.12533517615142614,1.0491939993841,0.76844862481,1.56339872262,0.0423048196244781,0.2046503638604958,975.2030416445867,975.13077599778,975.34784921219,0.003439523345855224,0.21707321440999294,0.0583534755811226,-0.0008647906310545797,-0.22327812468603492,0.69,0.31,0.9227897040796397,Stairs up
-0.8722644042931,-1.33557128906,-0.23291015625,0.0894135095541102,0.2975220570958884,0.26406249999570003,0.04650878906,0.57824707031,0.01028845587161202,0.1009235914585678,-0.4428771972610999,-0.66333007812,-0.20190429687,0.014453118008572942,0.11961850537641412,1.0388851829787,0.64133225919,1.4338699823,0.061056076712924096,0.24585669798847226,975.1465556627023,975.03995215974,975.38359943338,0.008852591688784082,0.34364727364004466,0.09361658919174658,0.0006311745309706192,0.06844733298299666,0.57,0.43,0.9942939876708355,Stairs up
-0.8793078613246998,-1.37780761718,-0.5576171875,0.03887387456708426,0.1961762876124773,0.27554931640240005,-0.00305175781,0.83142089843,0.026115273435650548,0.16079216616892145,-0.41113647460529995,-0.68627929687,-0.15234375,0.018387562534570287,0.13492103953507245,1.0297930010356,0.68293378307,1.50707503552,0.04061844440393204,0.20052994778808655,974.9128733641257,974.82110926644,975.03995215974,0.0031722937251580457,0.21884289330000684,0.05604079574654937,0.0003203545715302941,-0.1349520488984468,0.52,0.48,0.4693421292940957,Stairs up
-0.8989660644474998,-1.28979492187,-0.71057128906,0.01846482930004427,0.1352042196347578,0.16959960937130003,-0.00305175781,0.28540039062,0.006885895680807643,0.08256534820370812,-0.48004150390249983,-0.67944335937,-0.31494140625,0.008238279608837839,0.09031000394612693,1.0407679892032,0.82582916654,1.35986709457,0.0175747123166236,0.13190513710033194,974.8587683540995,974.78769653935,974.95615371909,0.0023474279953868355,0.16845717974001673,0.0482074031185353,-0.0010927177955836684,-0.8930312746187861,0.57,0.43,0.5022921827513582,Stairs up
-0.8442065429651998,-1.05749511718,-0.63049316406,0.018279082431713688,0.134522457632161,0.2002209472619,0.11560058593,0.3056640625,0.0032757720246246475,0.056947469692501716,-0.5046350097608999,-0.73364257812,-0.30065917968,0.011897316320852539,0.10852807543508736,1.0092113044022002,0.72468195343,1.29793584476,0.022262424363210874,0.14845807529258476,974.7772730232874,974.72718979304,974.84646737303,0.001121081736157243,0.11927757999001187,0.03331472525469286,-0.0005411163659735255,-0.5552460935869865,0.61,0.39,0.6442468084908158,Stairs up
-0.9277416992156999,-1.13037109375,-0.611328125,0.020040346462315357,0.14085433254853116,0.18708740234040003,0.05261230468,0.36535644531,0.007669732058928844,0.0871380211982092,-0.5273474121067999,-0.72814941406,-0.29638671875,0.018478928929199712,0.13525583033609942,1.0938426172598001,0.86787467226,1.39335053411,0.02326979361207442,0.15177976042922744,974.7559581679951,974.68455663073,974.82416056998,0.0013745929506532278,0.139603939250037,0.03688966008445586,-0.00033150377655586527,-0.6597276405789891,0.41,0.59,-0.055528752041569866,Stairs up
-0.9258264160118999,-1.13464355468,-0.68371582031,0.020572684224882856,0.14271284939567994,0.1975378417931,0.08703613281,0.33325195312,0.005784277619445077,0.075673210869175,-0.5379003906219,-0.74658203125,-0.30712890625,0.020219191902735762,0.14148144748944438,1.0988694374197,0.89230057722,1.3877183025,0.024352458052991587,0.1552705170741106,974.7429563369765,974.68455663073,974.80328672385,0.0012570035145267038,0.11873009312000704,0.035276528732025726,0.00044702511667164206,-0.7931312191309137,0.55,0.45,0.17237185513880682,Stairs up
-0.8833740234337,-1.19287109375,-0.5419921875,0.027421317317397612,0.16476378286572457,0.14125732421499998,0.03210449218,0.24340820312,0.0048401567611040495,0.06922250496401448,-0.5698278808556,-0.82849121093,-0.31616210937,0.01432703283520424,0.11909560238250697,1.0689958382656999,0.74177268633,1.41363495216,0.028664273069871946,0.16845661263118533,974.7235433779794,974.6583776877,974.82038533636,0.002704065677333695,0.16200764866005102,0.05173997507305505,-0.0009038715784105024,-0.9817849935427807,0.53,0.47,0.5385083403161661,Stairs up
-0.9122888183559,-1.32568359375,-0.57299804687,0.0428030576536402,0.20585195427079095,0.1384521484335,0.01721191406,0.2314453125,0.0032496145278006756,0.05671964723552738,-0.48055297851099993,-0.71875,-0.23522949218,0.020000038332311124,0.14071260764049542,1.0517346431688,0.77308185184,1.44222170808,0.04203785295433418,0.20400361375424417,974.6687935667361,974.55648201639,974.76716199736,0.00426412537245485,0.21067998096998508,0.06497294913062128,-0.0009951873453162617,-1.0374040447974942,0.53,0.47,0.024481848299480073,Stairs up
-0.9015881347621999,-1.24145507812,-0.61877441406,0.028209441146171493,0.16711477114459325,0.18923950194970002,0.08312988281,0.26489257812,0.0021104359190167736,0.04570920651057734,-0.4751940917927999,-0.69189453125,-0.29064941406,0.012856347481286024,0.11281748094366034,1.0418329030499,0.78957031452,1.3605433847,0.03213216479168501,0.17835594507548147,974.5493390325463,974.45566901158,974.65631417046,0.0028436230540413673,0.20064515887997914,0.053058334156859406,-0.0011604912265762968,-0.691997378581366,0.48,0.52,-0.0008016355979342915,Stairs up
-0.8671350097611997,-1.25854492187,-0.64624023437,0.02598546648716801,0.16039205660598135,0.1573278808547,-0.04968261718,0.24584960937,0.005475535854598524,0.07362594988217495,-0.49885742187140003,-0.68054199218,-0.26599121093,0.013771299015579061,0.11676294799902609,1.02019728666,0.71907025955,1.36795447498,0.02980948408234059,0.17178879253757268,974.428159462496,974.35670255048,974.5810543979,0.003276023531018786,0.22435184741993908,0.0569496557997377,-0.0014596130682734698,1.1439825657975016,0.57,0.43,1.1814462217612451,Stairs up
-0.8940124511691,-1.32287597656,-0.67346191406,0.029891610860348666,0.1720252735842765,0.19545776366860002,0.14306640625,0.25988769531,0.0011788190298708443,0.034161833082727515,-0.4803894042924,-0.76586914062,-0.20080566406,0.020213771159857737,0.14146248070869943,1.0392019445685001,0.74792185602,1.53418838042,0.03946127012737618,0.19765287102924262,974.349197815517,974.28317303539,974.44570013983,0.0022115086369029224,0.16252710444007334,0.04679095586257982,-0.0010626231767815342,-1.1150056190663402,0.65,0.35,0.46803800583603744,Stairs up
-0.8748535156215,-1.05590820312,-0.55603027343,0.02198762062813532,0.1475389589967815,0.16076416015310002,-0.03015136718,0.31286621093,0.008695404330617742,0.09278173466427303,-0.5300866699175999,-0.7021484375,-0.27416992187,0.012099307129776306,0.10944548441337607,1.0455363495332,0.74480788784,1.27535046781,0.021630219375439734,0.146334948599729,974.2943752246643,974.24810222232,974.40543942744,0.0008999232315276136,0.15733720512002947,0.029848350024956782,-0.0001013233060948575,5.371646278785159,0.6,0.4,1.745753851201197,Stairs up
-0.8970263671829,-1.09338378906,-0.60144042968,0.019534089143782074,0.13906382797961608,0.1846569824187,0.0732421875,0.38635253906,0.00905802523691283,0.09469659436613179,-0.5034826660116,-0.70300292968,-0.26330566406,0.01572318584474565,0.12476359239096232,1.0582564517131,0.86536057802,1.30263168296,0.01637851432791713,0.12733706916934268,974.2954886718385,974.24638538249,974.37613146042,0.0012605211675233868,0.12974607793000814,0.03532585392949692,-0.00015363952583323759,-0.24333136484854512,0.49,0.51,0.6658686447893639,Stairs up
-0.8834826660121,-1.08581542968,-0.62060546875,0.01493733594343314,0.12160576706718644,0.1612915039029,0.06604003906,0.29833984375,0.005121127975027753,0.07120334750050362,-0.5222705078082001,-0.6923828125,-0.28210449218,0.014359050423111681,0.11922860361037767,1.0491684195435,0.87339189611,1.2616824567,0.01276971750722923,0.11243673924548389,974.2982539878889,974.23953040024,974.36227601024,0.0011980589662489024,0.12274560999992445,0.034439488622603175,-0.00024588616969489676,-0.8371188517704438,0.48,0.52,-0.042365856840293196,Stairs up
-0.932459716793,-1.23864746093,-0.64245605468,0.025959696822466932,0.16031250685533635,0.15551147460649997,0.01416015625,0.310546875,0.00975106171132968,0.0982524864530989,-0.5436193847626999,-0.712890625,-0.31042480468,0.013235480814180491,0.11446888662880707,1.1032472959744,0.88119200285,1.35520502102,0.020696119743803226,0.1431403456275176,974.2981090634175,974.23497456863,974.38079310191,0.0017263054623961706,0.14581853327990757,0.041340566127862945,0.0005351319646555737,-0.7599780887520828,0.64,0.36,0.4180185617034468,Stairs up
-0.9056555175744999,-1.16967773437,-0.6025390625,0.023478953421283404,0.1524603682504754,0.17822143554250006,0.10632324218,0.27307128906,0.0022777142835098186,0.047486178417248115,-0.4650415039026998,-0.7392578125,-0.20849609375,0.016768848890128515,0.12884549041866863,1.0406543260880001,0.77079163365,1.38946995825,0.02765376967171192,0.16546066594509645,974.2470219939876,974.1808181983,974.32726345249,0.0018587870307084661,0.14644525418998455,0.042897542591637826,-0.0006738275536024319,-0.9936688969307612,0.52,0.48,0.23740840396479024,Stairs up
-0.9651721191368,-1.27697753906,-0.67590332031,0.02953378982460144,0.17099254932995012,0.10348144531050002,-0.04846191406,0.21704101562,0.005519649018944077,0.07392193536937894,-0.4420874023393,-0.74279785156,-0.255859375,0.014418294086856409,0.11947431165730918,1.0762475949242998,0.82259554371,1.44321370712,0.028661646880194683,0.1684488955481535,974.191793210175,974.08339893921,974.31351969164,0.0046253545580945245,0.2301207524299116,0.06766905505852419,-0.0014723058834530567,-1.0885515979613478,0.45,0.55,0.05749947437725296,Stairs up
-0.9306262206995,-1.35888671875,-0.62854003906,0.03228128097717003,0.17876931550855793,0.0963732910122,0.00463867187,0.17517089843,0.002540949467109548,0.05015515898128978,-0.3946569824181999,-0.65844726562,-0.2041015625,0.016431813123966386,0.12754409038731165,1.0219352330238,0.73880951767,1.42845965122,0.037875747760681165,0.1936413960987535,974.0847051641359,974.00602035815,974.21339272722,0.003001267755881648,0.20737236907007173,0.05450922012213009,-0.0010505057245438524,-0.5674497349627772,0.44,0.56,0.30007482881332204,Stairs up
-0.9110083007773997,-1.35888671875,-0.67810058593,0.024331522102530218,0.1552037592376709,0.09704956054340003,-0.083984375,0.22277832031,0.006233374414538692,0.07855597157691645,-0.38777954101349993,-0.6171875,-0.16760253906,0.01691767534072345,0.12941599046221536,1.0031757536597998,0.72615078571,1.42845965122,0.030680673860229594,0.17428100046082848,973.9584084954488,973.88003664261,974.14852696406,0.003129420579435209,0.26849032145003093,0.05566081542378675,-0.0012168244975135113,1.8921917710926817,0.49,0.51,1.068233330744989,Stairs up
-0.9282971191373,-1.32104492187,-0.751953125,0.022561032933035935,0.1494504018184815,0.13623413085540004,-0.0205078125,0.23876953125,0.0043439017566680145,0.06557791350066983,-0.43591796874619987,-0.58862304687,-0.27917480468,0.008134431887143419,0.08973899692035779,1.0416250579875002,0.83181867436,1.37511697726,0.020228249257247904,0.1415131328346434,973.8900615337261,973.82531832169,974.03808620089,0.0032486173148700763,0.21276787919998696,0.05671094375622201,-0.001071659273189368,1.215550684291884,0.69,0.31,1.379547229247044,Stairs up
-0.831077880857,-1.28723144531,-0.53112792968,0.02944917892389254,0.17074743668545544,0.07681518554349999,-0.20971679687,0.22143554687,0.012424103796349116,0.11090474632938675,-0.5731201171832998,-0.79028320312,-0.3525390625,0.014488294569932043,0.11976398300087018,1.0264109065308997,0.7122458063,1.45403307054,0.03341130284392624,0.18187135512632818,973.8998565249781,973.79999396405,974.0260710859,0.004206274257575364,0.2260771218499258,0.06453070211147256,0.0011764318012390403,-0.30150274358163376,0.68,0.32,0.6525049083945281,Stairs down
-0.8752539062465999,-1.36120605468,-0.53112792968,0.03979159595966985,0.19847841192450416,0.1315039062464,0.00390625,0.271484375,0.006060639439152686,0.07745988022687073,-0.5539672851523999,-0.71997070312,-0.40759277343,0.0066223868516640015,0.08097013636611564,1.0505602208084002,0.71120339965,1.54174778591,0.03890457501086955,0.19625373693451256,973.9522717229479,973.83494886471,974.24321091871,0.006626215179865805,0.40826205400003346,0.08099353695244545,0.002439573310860828,-0.1533137793516408,0.51,0.49,0.3206969403566892,Stairs down
-0.835783691403,-1.548828125,-0.62060546875,0.03894445800442255,0.19635430584628982,0.16096923827800003,-0.00317382812,0.44299316406,0.016647490955457478,0.12837840957849145,-0.6325268554643998,-0.74975585937,-0.45141601562,0.004544876807854061,0.06707777604971352,1.0732642402182,0.89487031898,1.72208449115,0.03250002580786007,0.1793739823658422,974.1381063870715,974.02506261536,974.2497187852,0.003903724777015089,0.22465616984004555,0.06216661104841519,0.000565568130466437,-0.6238388434165887,0.56,0.44,0.3207862456152806,Stairs down
-0.8526098632769998,-1.27563476562,-0.47937011718,0.036208943941816917,0.1893326556682675,0.1274755859362,-0.04064941406,0.36340332031,0.015124715963596762,0.12236612604786014,-0.5286938476522,-0.74462890625,-0.24279785156,0.016949135492654123,0.12953626572403412,1.0272277995085999,0.68303454823,1.44250263602,0.0354684887603576,0.1873867761416318,974.238364741185,974.12082459806,974.33793201382,0.0047142664301869424,0.21710741575998327,0.06831635064817992,0.000642577613537801,-1.1506349399182263,0.52,0.48,0.11246808657394605,Stairs down
-0.9160571289026,-1.21179199218,-0.44921875,0.041163225131729195,0.20187023772813045,0.2742041015588,0.01306152343,0.57360839843,0.028485622093152814,0.16793083657333838,-0.4831665039033999,-0.708984375,-0.23681640625,0.018970409577788963,0.1370427140785349,1.0868287610554,0.61249064856,1.46579759187,0.05488356727072163,0.23309811581824166,974.292401735904,974.20181355285,974.36012234218,0.0016333872207449556,0.15830878933002168,0.04021260186232055,0.00018508524674517907,-0.16955781283288562,0.52,0.48,-0.43621488011296977,Stairs down
-0.9124340820268,-1.13305664062,-0.69689941406,0.012381431195402142,0.11071412233065898,0.18796142577780003,0.02416992187,0.36889648437,0.011819059373125322,0.10817055412354172,-0.545361328122,-0.71508789062,-0.3974609375,0.008682986702428116,0.09271546168468253,1.0855081313122,0.83706412644,1.31760430082,0.019708251708555113,0.13968238683337839,974.285163990023,974.22004142034,974.33851956625,0.0013158481806666241,0.1184781459101032,0.036092792893595224,0.0004007334066161746,-0.7132470082757854,0.31,0.69,-0.6475545164510443,Stairs down
-0.9442968749962,-1.16442871093,-0.7275390625,0.016597846806480236,0.1281868493193254,0.1689306640584,0.001953125,0.40942382812,0.016898140545774952,0.12934125072967712,-0.543959960933,-0.67834472656,-0.38354492187,0.007998238693626055,0.08898458465762368,1.1115684797374001,0.86715633748,1.32899082235,0.0218397930590749,0.1470421542568122,974.2946696556876,974.22398077191,974.35118932268,0.0016698921144840193,0.1272085507700922,0.0406594785177968,-9.022687307017457e-05,-1.1380836710377122,0.44,0.56,-0.40664704478866265,Stairs down
-0.838352050778,-1.32055664062,-0.60803222656,0.03407242460086377,0.18366191863000653,0.10071289062239998,-0.05224609375,0.22216796875,0.00467373383165245,0.06802202947087013,-0.5916333007768,-0.88415527343,-0.30786132812,0.020023824957782942,0.14079625956752229,1.0377487485756,0.69534675642,1.57090751799,0.044714170058048196,0.2103973107182402,974.3325797016691,974.26359984205,974.41845991329,0.0017072731163965049,0.154860071240023,0.04111204671665642,0.000409735046602011,-0.43152255680426466,0.48,0.52,0.385863028566969,Stairs down
-0.8467236328082001,-1.19567871093,-0.51635742187,0.02512368816303965,0.15771002276776594,0.1778369140594,-0.013671875,0.271484375,0.004897925805457592,0.06963437762630621,-0.5226367187461999,-0.7119140625,-0.25769042968,0.01695713320174852,0.12956682395478805,1.0161057277284,0.577248876,1.41740979193,0.03611528072542207,0.18908761968507573,974.4179933898697,974.31325600136,974.60632761134,0.004619014179103216,0.29307160998007475,0.06762265920024281,0.0011255910725751278,0.5743256132643886,0.63,0.37,0.7875973998505025,Stairs down
-0.8844042968708,-1.29089355468,-0.65551757812,0.030929955544899832,0.1749875881011303,0.1445996093716,0.11315917968,0.19641113281,0.0004762568618614623,0.021713919343196605,-0.5494506835906,-0.6728515625,-0.29150390625,0.010592595043628576,0.10240443883539566,1.0567918681675998,0.76639481204,1.45832060967,0.03004629071108674,0.1724697880904823,974.5376778178138,974.41927954039,974.65419269371,0.006346878168493772,0.23491315332000795,0.07926795939601848,0.0018031176556897262,-1.4614766168616835,0.56,0.44,0.15717077790262637,Stairs down
-0.8846826171833999,-1.26159667968,-0.52514648437,0.030781474643124886,0.17456706418077161,0.19554931640339995,0.02880859375,0.35559082031,0.007073449612832116,0.08368222700611998,-0.4865942382775998,-0.69030761718,-0.28784179687,0.011392696150685618,0.10620154984358167,1.0339919122346002,0.59955121979,1.44907803122,0.037669384501111035,0.19311315505708027,974.651398245607,974.53122166778,974.84067398221,0.0056721089801476015,0.3094523144300183,0.07493589186995858,0.0011269040268014508,0.9443439501461364,0.47,0.53,0.8685183612533829,Stairs down
-0.8785375976521999,-1.35522460937,-0.5361328125,0.03498189466732159,0.18609695247544591,0.206850585933,0.04370117187,0.35559082031,0.008037844234062631,0.08920462875726799,-0.5910815429647999,-0.81188964843,-0.42224121093,0.01127331546462249,0.10564365721602156,1.0884103107441998,0.74766058447,1.47781946782,0.03344038900453867,0.18195050182534062,974.7135205217895,974.63255597176,974.80990535426,0.0020278630980947905,0.17734938249998322,0.044806076229835644,0.0005934571587697898,-0.6724084866393629,0.51,0.49,0.1367849783626663,Stairs down
-0.8481982421833999,-1.00720214843,-0.64001464843,0.010023225533694736,0.09961422226950221,0.15352294921520002,0.05334472656,0.27697753906,0.005537937753130586,0.07404430008852322,-0.5401074218711999,-0.68395996093,-0.40197753906,0.0061005240498787135,0.07771434107923664,1.0214835325649998,0.83740631191,1.21927448137,0.01287075182081633,0.11288066398904716,974.743281505497,974.70082295473,974.80919938113,0.0008727933194641026,0.10837642640001377,0.029394989135386008,-0.00015340843975571777,-0.4856332433808155,0.63,0.37,0.5547535739792531,Stairs down
-0.8443164062459999,-1.0400390625,-0.53662109375,0.014408328172002362,0.11943301423928954,0.138854980465,0.04504394531,0.24792480468,0.0031900792711679134,0.056197673247708704,-0.5835986328089999,-0.71496582031,-0.45031738281,0.0056895688086135154,0.07505113670376606,1.0390266043602,0.76018271483,1.25129935561,0.01638088443845904,0.12734628221536132,974.7485584854825,974.70287149129,974.79262856313,0.0005243794017630786,0.08975707184004023,0.022784547565081203,1.9621194371703917e-05,-0.4218329342112104,0.41,0.59,-0.4435631846350729,Stairs down
-0.9273266601524,-1.14086914062,-0.65954589843,0.01862201342078742,0.13577847136633828,0.159108886714,0.02111816406,0.33239746093,0.01085961051054567,0.1036870985486633,-0.5286962890593999,-0.70324707031,-0.32397460937,0.009668649350724824,0.09783640864840437,1.0852555595778,0.85371451602,1.341012395,0.0260093732112175,0.1604658202830289,974.7556237902899,974.69628054747,974.80040954639,0.0007568775022699031,0.10412899892003225,0.02737350410976286,0.00027864770361187995,-0.36298771050093315,0.4,0.6,-0.6746364352242051,Stairs down
-0.8712426757776,-1.42102050781,-0.47985839843,0.03910472314167625,0.19675791193814668,0.1230029296854,-0.00476074218,0.22827148437,0.004995081617216992,0.07032162399322717,-0.5641894531209999,-0.74926757812,-0.27270507812,0.013930007279433488,0.11743384182866178,1.0564379485306,0.75113883578,1.53499535452,0.034233974389275806,0.18409680780878046,974.7921724582361,974.69908343847,974.92484954426,0.005841464361400308,0.22576610579005774,0.07604636557907488,0.0008891898463046375,-1.1130649147191798,0.64,0.36,0.5414387451014788,Stairs down
-0.8389990234338001,-1.1904296875,-0.58325195312,0.026102982289942338,0.1607543233230227,0.1402221679656,0.02185058593,0.275390625,0.0030962699893153996,0.0553652173247992,-0.5681298828083999,-0.82104492187,-0.31494140625,0.017913165501899714,0.13316919255924292,1.0289596044338003,0.67848015024,1.37186430338,0.03458243181785394,0.1850313689612532,974.8761695452154,974.78344162377,975.0273260078,0.003505270131256757,0.24388438402991142,0.058908551416107575,0.0010675926451190426,1.0810282518782728,0.68,0.32,1.0944607136244486,Stairs down
-0.8467211914026,-1.38830566406,-0.54187011718,0.032105430575416524,0.17828173285466561,0.12149658202760001,0.04345703125,0.21447753906,0.0013477653264486187,0.03652790266610078,-0.5746191406218,-0.80749511718,-0.3037109375,0.017107647500713117,0.13014058177872875,1.0363675596530002,0.66584925657,1.56718488732,0.03826552368803512,0.1946352189382866,974.962455203842,974.8664486776,975.13149281542,0.00493709570891566,0.2650441378199275,0.06991226467385035,0.0012584560620789347,0.08239599782085172,0.46,0.54,0.6775357484725927,Stairs down
-0.8295556640585999,-1.18347167968,-0.60388183593,0.024975690600718487,0.15724482088358682,0.10735351562219998,0.00659179687,0.171875,0.0015671669594711725,0.03938902499271162,-0.5802416992145999,-0.76599121093,-0.21203613281,0.017148082069750614,0.13029428709292323,1.0245641949966,0.73622340057,1.39004213998,0.030191966830480355,0.17288738288890704,975.0858547191013,974.96990236695,975.29526982538,0.008439445650853486,0.325367458430037,0.09140596913957508,0.0011587456077228303,-0.4235409337915801,0.58,0.42,0.7780300419125159,Stairs down
-0.8774389648406,-1.31652832031,-0.54577636718,0.04776831918913286,0.2174641027784621,0.1427587890584,0.04467773437,0.28601074218,0.004576258129496569,0.06730895592862515,-0.5671533203095999,-0.8369140625,-0.19360351562,0.02106872149211365,0.1444231085290457,1.0599307392038,0.58572939674,1.53093798046,0.06178595103503597,0.24732183794538973,975.1855050302413,975.07060183633,975.31247086359,0.0046686189972788,0.2418690272600088,0.06798479835452931,0.00012142308719367835,-0.7014474352977951,0.58,0.42,0.18032331423439316,Stairs down
-0.23152343750059995,-1.10217285156,0.3037109375,0.20673829242153668,0.4524056912742382,0.7119921874969998,0.18432617187,1.00183105468,0.03546894545493957,0.18738798253994352,-0.5370434570269998,-0.94445800781,-0.25842285156,0.02154430368337481,0.14604403666887963,1.0187426988264001,0.49672091632,1.68197411432,0.07295857741317084,0.2687545192904468,975.2634129804818,975.05799932044,975.49903026025,0.013392562690374988,0.44103093981004804,0.11514615522661292,-0.0025962021077637256,-0.42103262801019303,0.68,0.32,0.24867247176820392,Stairs down
-0.8815270996050001,-0.91296386718,-0.86254882812,0.00018121421186323764,0.013394105783687289,0.3821838378878,0.36669921875,0.4033203125,8.942755033728351e-05,0.009409212232376878,-0.37305664062109983,-0.38940429687,-0.36389160156,3.1884475191412906e-05,0.005618329862111941,1.0308313572761998,1.01107223208,1.07135708505,0.00025790234185843735,0.015978839708810304,975.3197526405842,975.30847254142,975.32522070993,1.588757358147016e-05,0.016748168510048345,0.003965942239324151,5.129927868529739e-06,1.571040138118537,0.5,0.5,-1.1772674479156622,Lift up
-0.9049829101521999,-0.92272949218,-0.87390136718,0.0002764318266126162,0.016542899030898124,0.3881835937471999,0.37133789062,0.4033203125,7.503743122951932e-05,0.00861899396201344,-0.37694824218399986,-0.38940429687,-0.35607910156,5.798204981676136e-05,0.007576425893427174,1.0544208789154,1.01481136596,1.0728467329,0.00037627708116040744,0.01930062979150689,975.2657381737567,975.18987480432,975.31052915718,0.00155499467868298,0.12065435286001502,0.039235758332115234,-0.0013099544306687182,-0.9658016888390626,0.42,0.58,-0.6249923380543966,Lift up
-0.7508886718718,-0.88146972656,-0.234375,0.046914776792841485,0.21551247997485684,0.5090307617146,0.37133789062,0.89880371093,0.02787448871603883,0.16611966719470164,-0.38965087890279987,-0.46423339843,-0.36267089843,0.0007726065378064536,0.027656472523233853,1.0219690473401999,0.85494523599,1.17108942403,0.005211556517193437,0.07182924858316077,975.0663398736526,974.93170723961,975.18987480432,0.006042435563407786,0.2581675647099928,0.07734346260527589,-0.0026235655517524506,-1.0707762067504738,0.42,0.58,-0.4140753645529103,Lift up
-0.129138183591,-0.234375,0.09313964843,0.00342198288189655,0.058204493409680876,0.9310009765592,0.88916015625,1.20324707031,0.005164160608093868,0.07150188110821232,-0.45855468749639994,-0.5556640625,-0.39758300781,0.000848111022642336,0.028976368171596534,1.0477550257682,1.00148237148,1.31734152037,0.005314351701469773,0.0725341863155235,974.8465074156752,974.76212669365,974.93170723961,0.0024138651304744982,0.16958054596000238,0.0488848287219026,-0.0016436391037665328,-1.2354692866685701,0.5,0.5,0.09555652704425828,Lift up
0.6912133789019999,0.09313964843,0.7890625,0.027628371865972397,0.16538466720743092,0.5674877929649998,0.42626953125,1.04895019531,0.01659408242400791,0.128172312141772,-0.351437988278,-0.39758300781,-0.19189453125,0.0033334725372152923,0.057446825950988274,0.9834944556005999,0.84484751281,1.12563038092,0.0031777912174166217,0.05608933325724647,974.619068968615,974.47693902049,974.78644782125,0.010413947224045499,0.30950880075999976,0.10153722347890475,-0.003397363188500148,-1.3475554670468048,0.58,0.42,0.36310772463726854,Lift up
0.756274414059,0.3720703125,1.15673828125,0.01616346234047023,0.12649833088648058,0.6530004882771999,0.49963378906,1.08959960937,0.018107763378122324,0.13389057376955668,-0.2918261718710001,-0.3310546875,-0.02819824218,0.005957573808914019,0.07679842492411468,1.0474306487132,0.68440674529,1.58936021748,0.026503726576592963,0.16198360815473592,974.4147064794722,974.34945072393,974.47693902049,0.0013596199973279813,0.12748829656004546,0.036688196976067136,-0.0007103396989654101,-1.0650168644118494,0.48,0.52,-0.08757999632756702,Lift up
0.21773925780979997,-0.22497558593,0.39514160156,0.02314370903024126,0.15136800170425335,0.8579199218715,0.39978027343,1.02160644531,0.03579619246276869,0.1882504463159145,-0.34674316405819994,-0.83264160156,-0.16345214843,0.04305063217582309,0.20644642368921012,0.9973343987417,0.62959666295,1.08642563723,0.010101537311002842,0.10000260965541256,974.166098992374,974.1031128588,974.42069722054,0.005433923084023117,0.3175843617399323,0.07334564645009876,-0.002079121683344484,2.7503176150015376,0.66,0.34,1.863602354588716,Lift up
0.18718261718380003,0.16418457031,0.20239257812,9.566485280198961e-05,0.00973181402791739,0.9990014648397999,0.97204589843,1.02160644531,0.00016188813584404256,0.0126597493847865,-0.0887951660124,-0.17102050781,-0.01965332031,0.0023418228719294123,0.0481498145708799,1.0214398926776997,1.00127952642,1.05280822466,0.00016138200276537873,0.012639943937285677,974.0900722904921,973.89024113643,974.47259860043,0.02515222180198529,0.582357464000097,0.15779955508164603,-0.004743516260058124,-0.20322652199482683,0.5,0.5,0.6847887516664414,Lift up
0.19410400390239996,0.18640136718,0.20239257812,2.3580410267277878e-05,0.004831625623390651,0.9942309570277001,0.98413085937,1.00793457031,3.747946685633545e-05,0.006091360454592397,-0.14496337890299998,-0.17358398437,-0.12939453125,8.745188061645323e-05,0.009304695686065649,1.0233816701571998,1.01609191432,1.03406116933,2.3156858106553326e-05,0.0047880360823084655,973.7824208185992,973.58719826606,973.92108773464,0.004987413400315439,0.3338894685799687,0.07026762601875977,-0.0020328998178981966,1.7375631746580975,0.54,0.46,-0.7152649706297134,Lift up
0.20520263671539996,0.19396972656,0.21569824218,3.477418662687778e-05,0.005867405283479999,0.9869335937467,0.94055175781,1.01062011718,0.0003903477842239824,0.01965818675213313,-0.11834472655879999,-0.14758300781,-0.07995605468,0.00042883689958327813,0.020604575477001348,1.0152265008797001,0.97443473948,1.03515522794,0.000315238461483222,0.01766595813615525,973.6094848792952,973.34468768797,973.91767439856,0.035139835188931934,0.5729867105900439,0.18651658595696685,-0.003990330987297805,-1.3684695364062658,0.56,0.44,0.22981699344562637,Lift up
0.204309082027,0.19323730468,0.21569824218,3.618077196467545e-05,0.005984894672843349,0.9596130371068,0.93371582031,0.9931640625,0.00036053295542158836,0.018892528307968007,-0.1239123535116,-0.14855957031,-0.11303710937,8.592072612015763e-05,0.009222880182402677,0.9889775354253001,0.96512944705,1.02514407872,0.00035848067498581827,0.01883868010864774,973.3620868157483,973.3344771669,973.38832585159,0.00025246187526200566,0.05384868469002413,0.015809404052948537,0.0005021432015183757,-1.071813237735511,0.46,0.54,-0.03279887221360421,Lift up
0.2086474609338,0.19897460937,0.21447753906,1.8815536689018607e-05,0.00431594500916409,0.9942919921847999,0.98828125,1.00524902343,2.1734960139566566e-05,0.004638707852211745,-0.12192138671520002,-0.13732910156,-0.10876464843,6.977192682587139e-05,0.008311089432656387,1.0232813145724,1.01597192414,1.03415498352,1.992288924095328e-05,0.004441132777630472,973.3864108357791,973.37058939036,973.41465403194,0.00020766469617157697,0.044064641580007446,0.014338341926801062,0.00034305436284768747,-0.9750962048134331,0.6,0.4,0.7525269554189317,Lift up
0.21008789062220004,0.20190429687,0.21911621093,1.768449339881037e-05,0.004184214199204226,0.9917480468713998,0.98120117187,1.00366210937,3.202936866479493e-05,0.0056310811553508065,-0.1440551757766,-0.21374511718,-0.10876464843,0.0010700082838741363,0.03254701524003998,1.024475008634,1.01843903306,1.03183397462,1.2611651054210028e-05,0.0035334875892902083,973.3235123331806,973.25460201292,973.40709488252,0.0016206904181915362,0.15249286959999608,0.04005600471851406,-0.001078606321405848,-0.5288641975382071,0.42,0.58,0.02730291825988184,Lift up
0.21134033202760003,0.205078125,0.21875,8.699719351814653e-06,0.0029347439680995186,0.9857604980431002,0.97644042968,0.99621582031,2.5555453810601892e-05,0.005029900523121294,-0.19380615234,-0.20104980468,-0.18322753906,2.1123591090362238e-05,0.004573002862393442,1.0266751727609,1.01812381719,1.0367488917,2.297185768703392e-05,0.004768871890726735,973.3462693091849,973.30665174854,973.35795682933,0.0001493789833877572,0.051305080789916246,0.012160805629310899,0.00031325850739650823,1.9477391656776684,0.26,0.74,-1.7356670075078133,Lift up
0.19794677734000005,0.13012695312,0.234375,0.0005975134384657394,0.024321560477919217,0.9751477050744,0.92700195312,1.01354980468,0.00038996221291023614,0.01964847553326043,-0.2168041992155,-0.34619140625,-0.15612792968,0.0017802082589646673,0.041981021621382925,1.0195431107084,0.98137556748,1.05723313308,0.0003756430762318926,0.019284362718782637,973.3423553872171,973.3303813454,973.3518648198,5.108914252953516e-05,0.021483474399929037,0.007111838799089853,-0.00015913385171854077,-1.210897353464032,0.42,0.58,-0.3439131185148956,Lift up
-0.454903564451,-1.283203125,0.1875,0.2533656166815046,0.5008312695056985,0.5861572265597,0.33508300781,0.78735351562,0.008430166075910519,0.09135570269639116,0.4163183593734001,-0.44665527343,0.99438476562,0.249009012714938,0.4965067195796937,1.0922436956086998,0.73562521737,1.42200545875,0.036908061080609456,0.19115172107465672,973.2046323865917,973.06393595908,973.37893793117,0.009377890878629069,0.31500197208993086,0.0963540967984381,-0.0021509231556484103,-1.069037428500226,0.63,0.37,0.41162001466027665,Stairs up
-1.1989013671825,-1.73474121093,-0.53344726562,0.10028242402616147,0.31508665440779915,0.30557006835780004,-0.28942871093,0.9169921875,0.12095055942802341,0.3460362030680362,-0.3683203124961998,-0.79736328125,-0.10424804687,0.027624855764327837,0.1653741431018905,1.3644173732558,0.95108613052,1.7822736969,0.05164838372974543,0.22612363850877681,973.1767083410735,973.04163567306,973.32243001993,0.004551434929366676,0.2807943468700387,0.06712615421780849,-0.0006480335140265691,0.1098817765156399,0.53,0.47,-0.05735433816451459,Stairs up
-1.0144458007766999,-1.68298339843,-0.54113769531,0.07033016471555724,0.26386902635285114,0.2697692871057,-0.4013671875,0.63708496093,0.08690294152886657,0.29331537994721296,-0.28874633788630005,-0.52307128906,-0.09008789062,0.013554042365481573,0.11583825767779295,1.1384153400693,0.85411050173,1.77619106096,0.058929282063359074,0.24153672441830765,973.0368041678366,972.92061593037,973.27613828257,0.006055505920989966,0.3555223521999551,0.077427068017458,-0.0009726847694827735,0.5850401800665481,0.64,0.36,1.1001771018111863,Stairs up
-1.0037280273408,-1.43884277343,-0.32250976562,0.07426485552334709,0.2711497869593735,0.35114379882549995,-0.19506835937,0.71154785156,0.06252578962111946,0.24879817468162477,-0.33694213866769984,-0.66674804687,-0.09008789062,0.01988324699236417,0.1403011565256699,1.1570983336018998,0.66721345909,1.55189799689,0.06114396436610691,0.24603358454171625,972.9291403881293,972.80271913341,973.07099949756,0.005284753148285958,0.26828036414997314,0.07233191285181872,-0.0017249702609734164,-1.0766599400440704,0.47,0.53,0.05495882450990552,Stairs up
-0.8242602539027999,-1.14318847656,-0.39880371093,0.037854009270956716,0.19358581863929794,0.1485314941379,-0.14514160156,0.38525390625,0.021444235441843075,0.14570447174820902,-0.6272595214802998,-1.04162597656,-0.27624511718,0.03099042733950418,0.17515856549455164,1.0708943505044999,0.75612709567,1.52773618412,0.03787086221560224,0.19362890691589987,972.933712423551,972.8260971711,973.04316620452,0.005004847582582156,0.21706903342010264,0.07039033390144085,0.0009224795399281838,-1.4001804486010014,0.52,0.48,0.13814763077369424,Stairs down
-0.7649206542940999,-1.38195800781,-0.50500488281,0.051484054343629515,0.22576362373109007,0.10148071288929998,-0.32092285156,1.10485839843,0.11176756627893977,0.33264078315226225,-0.6255432128867,-0.96203613281,-0.08618164062,0.040928427130355535,0.20129367317194047,1.0749310619857,0.72286862526,1.53683939965,0.03370476050222967,0.1826683138839557,973.018000599817,972.87669273576,973.26639914225,0.00833433098485354,0.3897064064899496,0.09083494743216955,-0.000578739259815177,2.0444069129524323,0.65,0.35,1.375842862507173,Stairs down
-0.6100939941367999,-1.18664550781,0.01025390625,0.07639625304080877,0.2750132551540029,0.29755493163850005,-0.32958984375,0.66906738281,0.05698916985919988,0.23752742612298033,-0.8245654296843999,-1.31884765625,-0.48522949218,0.04540305869763595,0.21201185841989967,1.1225189397003004,0.80896601193,1.68953438271,0.05819554914482537,0.24002831844050634,973.1786001357307,973.03662424638,973.45839238713,0.016646079813270744,0.42176814074991853,0.12837296839731502,0.0022936211896026,-0.108271216189602,0.72,0.28,1.1100220475550273,Stairs down
0.45201171874639995,0.43530273437,0.46362304687,5.676808982815656e-05,0.0074966931996631025,0.8648388671851999,0.81604003906,0.87744140625,0.00015279413473214763,0.01229903221334208,-0.26375976562080006,-0.28344726562,-0.23168945312,0.00012239485076280974,0.011007765543250893,1.0109142359519998,0.95429937523,1.0214005941,0.000213251608093164,0.014529937784183123,973.2440915962012,973.18259523063,973.26527556812,0.0006082866879840238,0.08268033749004644,0.02453984150527838,-0.0004566648161650106,1.0565285361293695,0.19,0.81,-1.627408722208984,Lift down
0.4243896484347999,0.375,0.49182128906,0.0012079934881178533,0.03458198307264456,0.8054150390595999,0.74645996093,0.875,0.0013696864157293103,0.03682376340859279,-0.38229003905839987,-0.57104492187,-0.19287109375,0.012803397419390426,0.1125849165971913,0.9947956029184002,0.94845843378,1.04113375939,0.000560209868469735,0.02355011188476687,973.2938116248126,973.24463566609,973.32913949135,0.0007279343476027392,0.08450382526007161,0.026845018236661935,0.0005899052785624568,-1.343397738670344,0.52,0.48,-0.2269715005594383,Lift down
0.3910449218716,0.37231445312,0.40942382812,0.00012429685304278035,0.011092965541835625,0.7945849609343998,0.77795410156,0.81201171875,8.725912884539833e-05,0.009294435838551166,-0.4842480468715999,-0.51525878906,-0.42590332031,0.0006826784634559372,0.025997147513167243,1.0096760720804,0.98212687042,1.0283125599,0.0002192762951216627,0.014733754856466361,973.4226810841253,973.32583470572,973.52641751047,0.004173994128226561,0.20058280474995627,0.06428261185533997,0.0022146934495467945,-1.3284437524010215,0.48,0.52,0.11475544719713208,Lift down
0.3938476562467999,0.37780761718,0.40209960937,3.882369610368332e-05,0.006199633791011085,0.7917382812459999,0.78295898437,0.79809570312,1.9345524331912874e-05,0.004376307700401532,-0.5125341796827999,-0.53601074218,-0.49645996093,8.072723042322542e-05,0.008939796313059552,1.0221290643312002,1.01167692738,1.04166503747,4.692020718689666e-05,0.006815497422421029,973.6519887478578,973.53553788896,973.76947519032,0.004628225185106823,0.23393730136001523,0.06769005047461372,0.002335736825412967,-1.1351872026215784,0.56,0.44,0.031867508516555274,Lift down
0.40257324218479984,0.39270019531,0.41516113281,3.224107953802576e-05,0.0056496609405030235,0.7995019531208,0.78588867187,0.82348632812,0.00013928114766463068,0.011742586435193244,-0.5146142578079999,-0.52819824218,-0.50512695312,3.556713912850182e-05,0.0059339251543322315,1.0325397398840002,1.01776165323,1.06205529134,0.00016477448977926352,0.012772108082907492,973.8952281333567,973.76947519032,974.01807969833,0.005402879534415143,0.2486045080099757,0.07313583758371126,0.0025242956327991665,-1.1920530461997927,0.52,0.48,-0.026852053918141883,Lift down
0.40821289062199995,0.39855957031,0.41748046875,2.5669637353081605e-05,0.005041124971625955,0.8373583984340001,0.81494140625,0.85485839843,0.00013485205291366794,0.011554372868508755,-0.5221386718700001,-0.54418945312,-0.5029296875,0.00014246338545925564,0.011875973711854667,1.0679732845040002,1.03726442977,1.08423876827,0.00017036664232419644,0.012987031065680658,974.1077650332523,974.01807969833,974.15381992793,0.0015547215766829688,0.13574022960006005,0.039232312714344776,0.0012938028025126433,-0.5362108303735797,0.4,0.6,-0.7758103278790639,Lift down
0.39248046874679987,0.3837890625,0.40197753906,2.4110379849061914e-05,0.004885619310852136,0.8141796874956,0.80358886718,0.83459472656,6.988106354000059e-05,0.008317586964053972,-0.49830566405879995,-0.515625,-0.48620605468,5.65417126026239e-05,0.007481730780815203,1.0321360393428,1.02039924299,1.05855743937,8.30715457922317e-05,0.009068673019483577,974.1626598417989,974.14735761722,974.17654414422,4.359413097703552e-05,0.029186526999978923,0.006569489300338739,0.00015183276249121908,0.20859215793784402,0.48,0.52,-0.5179527991993746,Lift down
-0.8934676670751484,-0.90881347656,-0.87231445312,0.00012105117339371145,0.010947723367187662,0.3445694422930693,0.33715820312,0.35583496093,3.017435569580694e-05,0.005465857636164589,-0.33709777227376225,-0.3486328125,-0.31823730468,7.340658419348738e-05,0.008525244062792895,1.0152336635313859,0.99185451416,1.03295992204,0.00017220218013851745,0.013057457947775979,974.1803404113405,974.1749341797,974.18518084256,8.229540438677424e-06,0.010246662860026845,0.0028544806603434322,-3.11969587458877e-05,-0.4963182422339032,0.41,0.59,-0.43509657784261263,Lift down
-0.8715930175747999,-0.87829589843,-0.8642578125,1.4258784177670534e-05,0.0037571526899892994,0.3309228515598999,0.318359375,0.34680175781,6.08658790502047e-05,0.0077625524320098895,-0.32752075194909996,-0.33740234375,-0.3115234375,4.509102666163542e-05,0.006681325945874746,0.9882050613764,0.973734308,0.99503337293,2.417689863917009e-05,0.00489235420352803,974.2068002336264,974.17834393135,974.26526293755,0.0006126099561857017,0.0869190061999916,0.024626892955138383,0.0008200888195213002,-0.8195145359293612,0.63,0.37,0.6374015820473985,Lift down
-0.8921606445273998,-0.93200683593,-0.86608886718,0.0003489470180626505,0.018586488314956753,0.33813964843340005,0.31762695312,0.35998535156,0.0002091394289578066,0.014389163793224,-0.34377197265289994,-0.36437988281,-0.32434082031,0.00012703988889798632,0.011214699728882912,1.0141846396196998,0.98270284832,1.05773410872,0.0005818166697057551,0.023999968812660935,974.3595354313417,974.26526293755,974.4741217134,0.003994710524662457,0.2088587758499898,0.06288690976201511,0.0021658024953338313,-1.2920390385277094,0.55,0.45,0.1271023325948829,Lift down
-0.9392321777311,-0.95422363281,-0.90356445312,0.00015261549390959003,0.012291840341075626,0.3614855956987999,0.34545898437,0.36547851562,2.3794082377609382e-05,0.004853466962268651,-0.35890014648049984,-0.37329101562,-0.34399414062,5.359327402693885e-05,0.007284047040393785,1.0684980745672,1.03156218716,1.08341535462,0.0001795981758326252,0.013334248913017146,974.5618860787696,974.4741217134,974.609562638,0.0017319788472468416,0.1354409246000614,0.04140844187812883,0.001387236995747936,-0.9321195877796713,0.43,0.57,-0.604005903200817,Lift down
-0.8969405973765655,-0.92431640625,-0.88671875,5.914866495117198e-05,0.007651875828124691,0.34894970209606063,0.33654785156,0.36047363281,4.040462604778703e-05,0.006324278497342665,-0.34732826309595954,-0.36389160156,-0.337890625,5.0667793913459226e-05,0.007082089946854916,1.0232160826747474,1.01321841995,1.05545223203,8.36489579889092e-05,0.009099671368754163,974.618106953054,974.609562638,974.62771416587,2.208634374278569e-05,0.018151527869918027,0.004675815368633093,0.00012687175265625806,-0.6204553131070463,0.52,0.48,0.3448446700629338,Lift down
-0.8965234374959999,-0.90600585937,-0.88549804687,3.006328235274621e-05,0.005455515514524612,0.34378417968319996,0.33044433593,0.35571289062,6.296119305286854e-05,0.00789503521982897,-0.3504150390583999,-0.35961914062,-0.34020996093,2.2501656503575793e-05,0.004719813549128825,1.0221663134784,1.01263874892,1.03019938993,2.31658990778252e-05,0.004788970670932005,974.62455414637,974.61625946016,974.63030841939,1.1117129163771105e-05,0.014048959229967295,0.00331752285178767,-6.328691769938792e-05,0.24834564477851195,0.44,0.56,-0.47599357272343273,Lift down
-0.9378320312465999,-0.94787597656,-0.9189453125,7.642943450480094e-05,0.008698571156215997,0.2884985351534,0.28002929687,0.2939453125,8.511657662790133e-06,0.0029028505104745288,-0.3635510253871,-0.37365722656,-0.35437011718,2.236868847499337e-05,0.004705847595305594,1.0463755367643,1.03133508302,1.05463141539,5.431337535437203e-05,0.007332819485084049,974.5917656962498,974.55916240087,974.6028555719,0.00015277322698587832,0.04369317102998593,0.012298190709044136,-0.00037577497772439716,0.5479511709816811,0.41,0.59,-1.2836524682818875,Lift up
-0.9322973632774,-0.94665527343,-0.90368652343,0.00016104566325927128,0.012626765485534234,0.2874121093718,0.26953125,0.294921875,4.7926493356042354e-05,0.0068881948595028815,-0.3639257812453999,-0.37646484375,-0.35388183593,2.5827499362506412e-05,0.005056602057595728,1.0413063202709998,1.01000951481,1.05259823316,0.00014107825251353023,0.011818099254465371,974.4754687523606,974.3726576313,974.55916240087,0.0030085030048503914,0.18650476957009232,0.054574884102505314,-0.0018765102365093007,-1.1269283275232798,0.49,0.51,-0.2517459732611171,Lift up
-0.8698608398404,-0.90368652343,-0.84765625,0.0003126758818555742,0.017594008157239736,0.27593749999680006,0.26818847656,0.28527832031,2.201111630116744e-05,0.004668083668718435,-0.34851806640319993,-0.36169433593,-0.33984375,2.3134073818025344e-05,0.0047856800018226345,0.9768904172878001,0.95494646596,1.01000951481,0.00030664916694948574,0.017423624057009233,974.2598410182711,974.1780258985,974.3726576313,0.003334458809777435,0.19463173279996226,0.05745532370180905,-0.0019696101019306515,-1.1708336528898886,0.53,0.47,0.2977860852820832,Lift up
-0.8911157226526,-0.91088867187,-0.85717773437,0.0002639055793820247,0.016163741014635333,0.2819262695282,0.26135253906,0.29553222656,6.638163869916437e-05,0.008106652966062671,-0.3579565429645999,-0.38122558593,-0.33386230468,0.0001526377959725649,0.012292738426113168,1.000901107849,0.96664775892,1.02838359177,0.0003814215461296545,0.019432121105745458,974.1518717344559,974.13981286362,974.1780258985,0.00010271340566525943,0.038213034879959196,0.010083961107055443,-0.00032278552761657843,0.3056179889503712,0.69,0.31,1.0479468418833287,Lift up
-0.9034887695270001,-0.91394042968,-0.89807128906,1.3521157126668911e-05,0.0036586808490769213,0.285322265621,0.27502441406,0.29577636718,2.9837699847841208e-05,0.005435009001773851,-0.3637133789025999,-0.37585449218,-0.34912109375,4.5400201659498656e-05,0.006704192691361404,1.0149136872664002,1.00387072964,1.02409869959,2.6517961231766696e-05,0.005123746834051135,974.1336204790513,974.09809327737,974.14316787429,0.0001858618090184087,0.04507459692001703,0.013564777584915448,-0.0002905547570709609,1.8150629190635046,0.25,0.75,-1.8315702148438306,Lift up
-0.8280566406206,-1.20959472656,-0.37036132812,0.04340103428787725,0.2072848859540861,0.2942810058567,-0.14562988281,0.5908203125,0.02130564396233592,0.1452328734230393,-0.6201000976521001,-1.17407226562,-0.30834960937,0.051840196058911145,0.22654313959668262,1.095924598184,0.5665103159,1.55504444472,0.07185244672287852,0.26670943413319625,974.2144298602996,974.08780744311,974.54726402747,0.014053138109733255,0.4594565843599412,0.11795171354684053,-6.112193463527881e-05,2.4059446503755773,0.75,0.25,1.7872423830705095,Stairs down
-0.8110134011417821,-1.23645019531,-0.29125976562,0.06391976487530708,0.25156886913158716,0.26389909498346537,0.06066894531,0.44213867187,0.013184147188029653,0.11425240075051851,-0.5049964224904949,-0.75402832031,-0.20080566406,0.018139339464045452,0.13401396212189742,1.0173255704502973,0.64146979385,1.38690598526,0.042173346524601196,0.20434233197802898,974.288775198915,974.20646068592,974.61780169938,0.012382747376472556,0.4113410134600599,0.11072554320164593,0.002446549938360874,1.734740581980751,0.74,0.26,1.7683081356294215,Stairs down
-0.7156835937468,-1.44555664062,-0.29125976562,0.0645375363991979,0.25276898748700544,0.12162841796780002,-0.10217285156,0.2646484375,0.01296114312811302,0.11327635100422281,-0.7443627929647999,-0.90673828125,-0.55041503906,0.008649592863154332,0.09253700305565764,1.0560758745858,0.73455277786,1.71857953093,0.05157877045678462,0.22597119894406184,974.4243186012754,974.26299265332,974.61780169938,0.008408511474397902,0.3548090460600406,0.0912382943705872,0.0013015472414522713,-0.30128927570112296,0.54,0.46,-0.02306874824767225,Stairs down
-0.8860937499963998,-1.48706054687,-0.48999023437,0.07223334856738844,0.2674154353841875,0.1647314453088,-0.041015625,0.33337402343,0.006089963840404418,0.07764704889434224,-0.5306420898405998,-0.90673828125,-0.27392578125,0.030311087460164948,0.17322810564560043,1.05531659488,0.62447661896,1.72520541025,0.08862075839261573,0.29620018705039597,974.4731213276245,974.33511007482,974.59786158873,0.005092000398488217,0.26275151390996143,0.07100056615621692,0.0022493370431056516,-0.6530563917352832,0.46,0.54,-0.43322625342438686,Stairs down
-0.9981323242156,-1.67700195312,-0.57971191406,0.06661214385954302,0.2567995763644239,0.2166870117146,-0.03735351562,0.4765625,0.018506306138727786,0.13535598648504804,-0.5341381835899999,-0.65844726562,-0.36828613281,0.007361963909066984,0.08537180020344139,1.1652346631076003,0.84392000181,1.83065613338,0.06293816820090291,0.2496172800887268,974.5864632687557,974.52912799882,974.65977927393,0.0010508888192081256,0.13065127511003993,0.032254921035650426,-4.852404489443461e-05,0.3197178353516854,0.38,0.62,0.4152248659151343,Stairs down
-0.8427124023406001,-1.44482421875,-0.57092285156,0.06563531343993143,0.25490971010444485,-0.046701660156,-0.57458496093,0.34167480468,0.07519473637415665,0.27284205872705014,-0.7481054687457999,-1.52917480468,-0.18920898437,0.11535067404092404,0.33793071375729494,1.2019719849828001,0.68768660223,1.8877911531,0.08170635800280633,0.28441043304136765,974.6532280873781,973.85877508202,975.53518375207,0.2781074717685212,1.676408670050023,0.5247155391741662,-0.011040658786777539,-1.1180010743739273,0.52,0.48,0.11800877653180694,Stairs down
-0.913471679684,-1.25109863281,-0.45361328125,0.037794704003768415,0.19343411530474847,0.24723144530900001,0.06726074218,0.47485351562,0.01031765097312208,0.10106668325116275,-0.40986572265159993,-0.74523925781,-0.18920898437,0.015619663210914635,0.12435218767197258,1.0366128604182,0.5033990836,1.53170336609,0.05259826602239954,0.2281935217357748,974.5341240627218,974.31434322547,974.60434662651,0.0044503587447365135,0.2900034010400532,0.06637661604276877,0.002035451995085786,1.1931207431117947,0.34,0.66,-1.2307184595949763,Stairs down
-0.8459521484331998,-1.29016113281,-0.59729003906,0.033481477462921135,0.18206224948706945,0.16815673827780003,0.04638671875,0.30493164062,0.0032445627090198804,0.05667554218469976,-0.5057934570279999,-0.85632324218,-0.21423339843,0.022838608309592685,0.1503669585597074,1.0127389549338,0.70765774195,1.42590760494,0.03340157414016377,0.18184487454630702,974.6172264364454,974.5601849441,974.82366721441,0.0024154252623465908,0.2634822703099644,0.048900623817320826,0.0013987275736387329,4.6418429792358475,0.54,0.46,1.7048406907931208,Stairs down
-0.8003564453094001,-1.23168945312,-0.54504394531,0.02662181989094409,0.1623440842532756,0.18682373046519998,0.07824707031,0.30493164062,0.003503771267713277,0.05889595533681531,-0.6190283203079998,-0.82983398437,-0.33972167968,0.013825179254118835,0.11699114266292832,1.0371744627704,0.65183848383,1.39334706375,0.02671717539893035,0.1626345708788296,974.7020467255435,974.58419871256,975.02373057212,0.010714774626638767,0.43953185956002017,0.10299333415504315,-0.0008007434917881641,1.5977513798228626,0.56,0.44,1.248384453224222,Stairs down
-0.8254628807568687,-1.18090820312,-0.61938476562,0.02510171784359133,0.15763300776836212,0.17251124526101017,0.10729980468,0.26013183593,0.0016398047527269772,0.04028946597258392,-0.5253302063557574,-0.66625976562,-0.34143066406,0.007742253606733048,0.08754455451281282,0.9993418483058586,0.76505708066,1.36619763098,0.022802577480878952,0.1502406350339865,974.8262669468351,974.73410770024,974.93236522497,0.002685943541783042,0.19825752473002467,0.05156367712776843,0.0016942917730068318,-0.31090594205703903,0.59,0.41,0.5203069896499812,Stairs down
-0.7801525878866997,-1.17883300781,-0.47351074218,0.022026643155497867,0.1476698233355173,0.12140380859019999,0.01391601562,0.26696777343,0.003979431083626303,0.06276652589390336,-0.6502148437449999,-0.88415527343,-0.31530761718,0.014703043879849345,0.12064830475829676,1.0326484531341,0.6766245547,1.33895759082,0.020298472054701793,0.1417585529488601,975.012494635333,974.88576778086,975.18652114702,0.00859521928330817,0.3007533661600519,0.09224568873652084,0.0002183869239492579,-1.0020155707420055,0.52,0.48,0.43412328354308904,Stairs down
-0.9531811523395999,-1.55798339843,-0.23046875,0.1265376723229388,0.3539382652380347,0.3779003906219999,-0.25415039062,1.04479980468,0.1312376498924769,0.3604514854922256,-0.5275024414034,-1.55334472656,0.07153320312,0.16857081004405727,0.40851573035027267,1.2962883313315998,0.90702954833,1.91748878782,0.07206168998717792,0.2670974973437717,975.0299334046744,974.24437031195,976.20855030134,0.35823646533994463,1.9641799893900043,0.5955284213927536,-0.011439397024236653,-1.0116362813600495,0.46,0.54,0.3707158635120004,Stairs up
-1.0186401367148,-1.64050292968,-0.23571777343,0.15797964205057344,0.39547420349507967,0.5027661132784,-0.18017578125,1.13256835937,0.1721604433967822,0.41284238997808154,-0.37860839843520006,-0.87963867187,0.267578125,0.1305834254571183,0.3595519311623108,1.3524232335538005,0.93972867862,1.83798315238,0.061427762924710895,0.24660390365009185,974.7787345584782,974.69112813362,974.88473870303,0.0024035103333485516,0.19361056940999788,0.0487798650061177,0.0003073708568698507,0.10807884610887131,0.62,0.38,0.5315531784196581,Stairs up
-0.9389453124958002,-1.48217773437,-0.16906738281,0.10706400170492596,0.3255662170555733,0.2930346679682,-0.08435058593,0.9736328125,0.1129257445436101,0.33435981681143145,-0.6359448242143999,-1.14025878906,-0.01147460937,0.13462641119321844,0.36507553613093036,1.2881175606214001,0.88353129468,1.79193830694,0.06438038567765511,0.25246105010650366,974.6525772126906,973.67269010177,976.18899626518,0.6308991714830113,2.516306163410036,0.7903101794663796,-0.016713480742784118,-0.8844409828395476,0.54,0.46,0.5379553551493843,Stairs up
-1.0159411621058998,-1.30261230468,-0.61767578125,0.036138923509909146,0.18914950244399284,0.12001586913919998,-0.19702148437,0.46618652343,0.033085084338052746,0.1809813070310639,-0.5038549804639999,-0.86938476562,-0.2197265625,0.03537144539929303,0.187130251283164,1.1679296939026,0.84096379667,1.5338445743,0.03995963032934436,0.19889704378409176,974.5110294848439,974.38737406974,974.59282370444,0.004672402319000946,0.20544963470001676,0.0680123392908297,0.001993177084841865,-0.9370176342278378,0.5,0.5,-0.5993917064123753,Stairs up
-1.0142895507769998,-1.32580566406,-0.71118164062,0.03732009121251823,0.19221573895077648,0.19496215819980006,-0.05725097656,0.73168945312,0.04958519690400092,0.22156115393940543,-0.5184765624960999,-1.10168457031,-0.04150390625,0.0844436707882172,0.28913532139870946,1.2124343118048002,0.93412396206,1.63227492705,0.03560605119129445,0.18774980873327543,974.6004290030977,974.51084295326,975.05465975563,0.01862237249293599,0.5438168023700882,0.13577978040933278,0.002940590744622219,5.090387849401415,0.74,0.26,2.436453969648661,Stairs up
-1.074807128903,-1.65478515625,-0.45129394531,0.08513472910504524,0.29031600337217855,0.21823242187240002,-0.22412109375,0.72985839843,0.06901894949742723,0.2613977046617911,-0.4362182617148001,-1.01513671875,-0.04479980468,0.07619548220245004,0.27465164732880365,1.2487586190584004,0.70617298069,1.73250604573,0.06239364310795178,0.24853512161638697,974.4696857032785,974.28400648511,975.05465975563,0.014839179295983248,0.7706532705200289,0.12120555887839227,0.00017612544223566891,8.678025749928821,0.52,0.48,2.091711644545592,Stairs up
-1.0813037109333998,-1.65478515625,-0.38732910156,0.08731320166799586,0.2940069210942421,0.1967895507806,-0.37231445312,0.703125,0.11627161878854742,0.33927702928530534,-0.30074707031020004,-0.72192382812,0.17419433593,0.08909106798673251,0.29698511293811547,1.243658577431,0.90808378686,1.66292832457,0.041873853756394644,0.20360529270829553,974.3892175054717,974.25778290458,974.50474062596,0.005480403173650976,0.24695772137999938,0.0736586664413256,-0.002245262893522085,-0.927716091324605,0.42,0.58,-0.3979421378000625,Stairs up
-1.0382397460902002,-1.83972167968,-0.5302734375,0.09187470711232695,0.3015890582252673,0.187458496092,-0.294921875,0.6513671875,0.059985302679949816,0.2436912999127181,-0.38869628905879994,-0.87536621093,-0.03637695312,0.05352893622223251,0.2302034901125745,1.176981052218,0.77064068208,1.91246995263,0.08304840658575101,0.2867366780164224,974.2183506757393,974.12676496911,974.30552513836,0.0026088519618416126,0.17876016925004024,0.05082089572432974,-0.001130943793164947,-0.7773835612123485,0.42,0.58,-0.053588734135554136,Stairs up
-0.9780786132777999,-1.22900390625,-0.60437011718,0.027358435073413737,0.1645747572463031,0.2027539062462,0.03173828125,0.35424804687,0.008269516482459792,0.09048105502056877,-0.42127441405899985,-0.64636230468,-0.2353515625,0.01139849535134226,0.10622857618281832,1.0922809909821998,0.74965689678,1.43308286892,0.028987344816331084,0.1694032802757012,974.11057107823,974.07135585113,974.14703072786,0.0006523770386813842,0.07567487673009055,0.025413643349480024,-0.00034085179241436105,-1.6165033596890637,0.5,0.5,-0.09806485573158517,Stairs up
-0.9798364257771999,-1.31286621093,-0.62817382812,0.03704609274249597,0.1915088296008072,0.1467309570276,0.00061035156,0.30346679687,0.006806738141663394,0.08208940711350497,-0.49515136718380004,-0.8291015625,-0.22705078125,0.033044392436004134,0.1808699768110896,1.1201399628456,0.80524867591,1.56815583843,0.04868584462650469,0.219542675077625,974.1040280362062,974.05512447654,974.16219903391,0.0007591398471067748,0.10707455737008331,0.02741438397330327,-0.000228877216596762,-0.7865744869299904,0.46,0.54,-0.05626109546131977,Stairs up
-1.0076440429651,-1.35815429687,-0.64855957031,0.04532773560358775,0.2118359229393161,0.20172851562090002,-0.10302734375,0.60107421875,0.03237382670833948,0.17902538490743733,-0.37645263671589996,-0.76416015625,-0.056640625,0.04576092642361575,0.21284575908243883,1.1319211312165,0.85193127337,1.50308177195,0.038698811663667614,0.19573406332836127,974.1117613937599,974.06385479759,974.16860319984,0.0007441345824131714,0.10474840225003845,0.027142093445219728,5.5965230456749655e-05,-0.9723142922236621,0.46,0.54,0.0861692355131064,Stairs up
-1.0285437011675997,-1.5986328125,-0.31689453125,0.0864462521505043,0.2925436542278763,0.33690307616840004,-0.10302734375,0.81823730468,0.05160400695682462,0.2260264738636967,-0.36489257812169995,-0.63879394531,-0.1904296875,0.016701670006122285,0.12858714284896863,1.1864786556255005,0.82599586613,1.63002790624,0.05053053644548189,0.22366320904660889,974.2030182225624,974.03691663003,975.47443390867,0.11567446077727833,1.4375172786400299,0.33840466333888714,0.005685113229871877,9.053023935869705,0.9,0.1,3.2146501316601475,Stairs up
-0.5541040039048,-1.26330566406,0.16369628906,0.21293118854107718,0.4591316550355316,0.7228576660127001,-0.33569335937,1.73706054687,0.32679335407725885,0.5687929504982338,-0.3056286621062,-1.14440917968,0.05517578125,0.1190510143213192,0.3433081766840196,1.1963957293852,0.69460746295,1.97807214404,0.1452407996344252,0.3791943982155867,973.9264342854038,973.09229293798,975.69043444914,0.5165090546352168,2.5981415111599517,0.7150831868313396,-0.013008366207006837,1.0365363307371727,0.78,0.22,1.4472359131543746,Stairs up
-1.0025573730431,-1.53063964843,-0.53918457031,0.06310524042653273,0.24994837071336834,0.3165063476535999,-0.16796875,0.85632324218,0.08098548963132544,0.2831530235314682,-0.24055053710570007,-0.39990234375,-0.02905273437,0.009174172654161518,0.0953017886905587,1.1242747934393,0.73227534544,1.60156028096,0.0514147048205256,0.22561151959135495,973.776315270698,973.73344170462,973.83415850663,0.0005762799495756734,0.10071680201008348,0.023885500833767684,-0.00041549869725094604,-0.43632179772497093,0.46,0.54,0.0661949024326616,Stairs up
-1.0088281249957,-1.46166992187,-0.58569335937,0.045323865846932626,0.21182688023115315,0.23766967773170003,-0.19836425781,0.63854980468,0.05122665037147669,0.22519854321856064,-0.39471801757479996,-0.61669921875,-0.20971679687,0.013356415447255241,0.11499065741521217,1.1408997949950002,0.87433692808,1.51824288555,0.03755443941826013,0.19281829535621753,973.7115815949169,973.64441527312,973.80964990767,0.0021575554241568553,0.1652346345499609,0.046216662254162044,-0.0013685268633049094,-0.4230049656125474,0.58,0.42,0.5493029952078088,Stairs up
-0.9951806640579,-1.23864746093,-0.55358886718,0.030665833986245488,0.1742388465480159,0.19859008788689997,-0.02392578125,0.38793945312,0.00791058407136486,0.08849563961377539,-0.4891760253871999,-0.79919433593,-0.22265625,0.02152582131675115,0.14598137930429222,1.1396162013437,0.76190047419,1.49030599759,0.030193829852459775,0.17289271689095287,973.6484505755332,973.60020395963,973.69354289818,0.0007568468777263969,0.09333893855000497,0.027372950315030585,-0.00043043674439948473,-1.334507681518682,0.42,0.58,-0.11569397633359442,Stairs up
-0.9689697265584999,-1.20385742187,-0.64343261718,0.030367393385192072,0.17338892539992326,0.1286035156207,-0.02392578125,0.27160644531,0.008446117386756402,0.091442092128783,-0.4787805175749,-0.84582519531,-0.23620605468,0.030045458179141553,0.1724673986507309,1.1084396280708,0.79579396878,1.43899139493,0.03204318051993895,0.17810881144609203,973.6467495802892,973.59636023813,973.71465797957,0.0010218164839042902,0.11829774143996019,0.03180563344857711,-0.0003351350197232995,-0.40988389022241956,0.56,0.44,0.5309734784041169,Stairs up
-0.9213098144491998,-1.42309570312,-0.22888183593,0.08065748445176184,0.2825790324975373,0.3324157714818999,-0.02819824218,0.98193359375,0.10376942078721459,0.32051790367987626,-0.4444958496059999,-0.74584960937,-0.11206054687,0.03643112612936733,0.18991265062673854,1.1417766131834997,0.63684417799,1.68138497211,0.07261029927889548,0.26811228298253426,973.6595909358102,973.5618795804,973.74821654002,0.002592558219877296,0.1863369596200073,0.05066194466933265,-0.0002654101766842575,-0.43507588035398514,0.4,0.6,-0.18697095708941644,Stairs up
-1.1148352050744001,-1.69812011718,-0.41796875,0.08810401741101362,0.29533536401335936,0.18305664062309998,-0.26733398437,0.61889648437,0.07135493405973832,0.2657844704250813,-0.4766687011695999,-1.20458984375,0.16479492187,0.12302876050153581,0.3489963794891294,1.3157856791559,0.95470527282,1.87826036466,0.05247595980406651,0.22792805927754012,973.622964754687,973.19466298219,974.69939052,0.1915778386933935,1.504727537809913,0.43550207841807087,-0.004546036604489132,0.6705479659855738,0.8,0.2,1.3392514709168855,Stairs up
-1.0471655273406,-1.57751464843,-0.49267578125,0.0901356468230769,0.2987210912454059,0.38643798827929987,-0.21032714843,0.85046386718,0.10111978785428685,0.3163994152582207,-0.4168872070284999,-0.88134765625,0.17700195312,0.07606827159670355,0.2744222820412667,1.275498956275,0.79100816511,1.69222420347,0.058017965225031,0.23966181500769096,973.4167008877889,973.35234918417,973.49737487166,0.0010948385723907631,0.1450256874900333,0.032922487552839254,-0.0005361158294120281,-0.5244174673224342,0.44,0.56,0.20953878242692658,Stairs up
-0.8469494628863999,-1.20654296875,-0.47534179687,0.0370470289317043,0.1915112493886123,0.23123535156140004,-0.232421875,0.86145019531,0.09235830261170921,0.3023817447955351,-0.5789404296834,-0.9501953125,-0.14172363281,0.06746928947167131,0.2584465062192844,1.1203782732347003,0.76202289671,1.5438025286,0.046084445743470384,0.2135968194661046,973.6559842249212,973.29336931301,974.75519839547,0.21900015857843574,1.4618290824599853,0.46562877594995283,0.010301169329890275,0.31690665152824105,0.64,0.36,1.293737746157691,Stairs up
-0.8963732910118,-1.185546875,-0.58935546875,0.025407463942598546,0.15859820081946882,0.160612792967,-0.20324707031,0.30249023437,0.008951819490702286,0.09413979655701016,-0.47230224609009985,-0.77111816406,-0.33764648437,0.00907477751515652,0.09478412177155494,1.0361443578165002,0.74293308954,1.36438542549,0.021975300880650108,0.1474976198853514,972.8424159491225,972.14398952281,973.46292586786,0.11817711900398006,1.3189363450500196,0.3420458270669886,0.007471996707113749,-0.7752055704977217,0.36,0.64,-0.6552810250722226,Stairs up
-0.9599230956995001,-1.25988769531,-0.53955078125,0.039417460920694196,0.19754312519418957,0.15312499999720003,-0.00146484375,0.28308105468,0.006816655698371218,0.0821491883184947,-0.4976159667928,-0.78100585937,-0.30993652343,0.015290060866771333,0.12303316730907816,1.1014142187334002,0.73347004465,1.4833653128,0.040724161788404545,0.20079073726275448,973.1601694119014,973.12331777205,973.20603330819,0.0006764097123113711,0.08271553613997185,0.025877511765783383,4.674922115642119e-05,-1.0020047588038399,0.58,0.42,0.42311684005519484,Stairs up
-1.0033166503872002,-1.27270507812,-0.70092773437,0.03344954687415063,0.18197541428832942,0.1323046874976,-0.05578613281,0.28540039062,0.00816175754616791,0.08988959879043977,-0.5209313964811,-0.80700683593,-0.2080078125,0.030995313403486567,0.17517237301998195,1.1531880133249997,0.88155296238,1.49992410646,0.03793566533876458,0.19379450117425143,973.1611112087481,973.11269459455,973.22244996041,0.0008966559041165543,0.10975536585999635,0.029794115947203215,-0.00036336800622776763,-0.9699766549192148,0.48,0.52,0.20763228910108555,Stairs up
-0.9666174316368,-1.34753417968,-0.53186035156,0.053132564568564314,0.22934959978791913,0.22852661132649998,-0.19799804687,0.82006835937,0.0826424769949018,0.286035054189085,-0.39038696288880004,-1.00769042968,0.47119140625,0.14641236788282794,0.38072069053835206,1.1692169284326002,0.74750164271,1.61682149642,0.05179087034358765,0.22643533655362136,973.231975270195,972.29714692042,974.65306361245,0.42306647951112664,2.3559166920299504,0.6471752581148443,-0.0073540591083277014,-0.17849218666083466,0.72,0.28,0.7343300265217149,Stairs up
-0.4182263183560999,-0.62158203125,-0.1826171875,0.01990134724895185,0.14036500196438687,0.5378320312464,0.26440429687,0.95935058593,0.03376726179431225,0.18283760328873577,0.7528576660109998,0.44116210937,1.11401367187,0.03385867015744337,0.18308490777742698,1.0330347248269,0.62954301762,1.49961828302,0.05097219816685111,0.22463854563538868,973.0515373182238,972.85966986642,973.46157000847,0.025078636612912677,0.601900142049999,0.15756855729105204,-0.0031456189942822253,0.5604539010998386,0.62,0.38,1.138470182191492,Stairs up
-0.44001098632399993,-0.76171875,-0.16430664062,0.02411628228710061,0.1545157579803096,0.6918908691364,0.455078125,0.99182128906,0.02404913681155711,0.15430050370443232,0.6023168945281,0.41821289062,0.8974609375,0.014376639230080776,0.11930160450630985,1.0264882874209,0.74821199432,1.53927289909,0.043784563484790616,0.20819874603355012,972.9247505086913,972.79210898693,973.06562071138,0.005660241939766786,0.2735117244500316,0.07485746135402348,-0.0009101692041946475,-0.9046436474535291,0.54,0.46,0.059360846114888524,Stairs up
-0.33449340820030005,-0.521484375,-0.09265136718,0.011297866267247256,0.10575862898399724,0.6426477050745,0.48291015625,0.89501953125,0.012729378136395448,0.11225900567451813,0.7451354980434999,0.46801757812,0.95581054687,0.021067264518100384,0.14441811476722502,1.0500913734457,0.76619302348,1.31190014369,0.02228332793988946,0.14852775720548184,972.8092132027849,972.67936874355,972.93125865212,0.003865486030640046,0.2518899085700923,0.06186138674757983,-0.0005846699799217283,-0.25998902509242683,0.4,0.6,-0.18450597969942764,Stairs up
-0.656062011715,-1.13342285156,-0.21752929687,0.0614466659409985,0.24664184414163895,-0.010985107421399999,-0.41735839843,0.21911621093,0.03268862086469752,0.1798936759757011,-0.7439843749956,-0.99084472656,-0.50012207031,0.01836455292177361,0.1348365951533777,1.0356044818662002,0.80117405817,1.38095073047,0.023180792434014847,0.1514892224208531,972.8037905587294,972.48917008785,973.14555245497,0.028684358930974624,0.6563823671200453,0.16851562343493517,0.0007930529696310779,-0.5324494621042861,0.52,0.48,-0.19986631114562972,Stairs down
-0.7317639160116,-1.25305175781,-0.35998535156,0.06199928031266086,0.24774843593761445,0.05187255859319999,-0.26611328125,0.25415039062,0.015172270156361198,0.12255834306483417,-0.7429150390592,-1.0859375,-0.54345703125,0.015932620751854715,0.1255917773754961,1.0680915200846002,0.73105599772,1.47592400566,0.041864222835780555,0.20358187691300705,972.9945292406151,972.73693060536,973.34457473519,0.02745378373194498,0.6076441298299642,0.164861292893831,0.004441640336856766,-0.28514555334186875,0.64,0.36,0.48253270972379797,Stairs down
-0.5284179687471999,-1.03161621093,0.04931640625,0.10695613634638941,0.3254021742135807,0.0802514648409,-0.3251953125,0.34790039062,0.019069663556692696,0.13740075298602178,-0.8049169921828999,-1.53308105468,-0.3447265625,0.11645254681776042,0.3395408979041889,1.0509633451485998,0.66066909372,1.54210993852,0.06978466870506322,0.26284372166367714,973.0393817924166,972.69610654446,973.3903157212,0.03763730150398462,0.6942091767399461,0.1930309003474438,-0.0001451129270409856,-0.7094012793274467,0.37,0.63,-0.015349225972503069,Stairs down
-0.9229370117150998,-1.37255859375,-0.38415527343,0.06816833293226517,0.25978192701368297,0.10144531249689999,-0.42272949218,0.51025390625,0.03893025834067363,0.19631850589607414,-0.5352612304646001,-0.81494140625,-0.28344726562,0.021528598943154884,0.145990797496703,1.0919806331796,0.53525020303,1.60403638368,0.0843713928639113,0.2890115550203351,973.0582628916765,972.82504507899,973.27966771888,0.00832249001888021,0.4546226398899762,0.09077039781058255,0.0014698501345493749,0.8871269010322966,0.36,0.64,-0.45344208006768,Stairs down
-0.4119323730469999,-2.21948242187,0.95568847656,1.0624812779261819,1.0256005387805331,-0.09780761718619999,-0.97790527343,0.80822753906,0.3421058092174858,0.5819662800586568,-0.20662719726609996,-1.42114257812,0.72790527343,0.43695016571987755,0.6577086467902629,1.2861053679349002,0.37838652449,2.46992125974,0.39495380959316345,0.6253033435839216,973.1967960079196,971.92650758715,974.39359919514,0.5779002809120222,2.467091607990028,0.7563869896441252,-0.018633064177636306,-1.038974937081448,0.39,0.61,-0.20258630877306086,Stairs down
-1.0609912109333999,-1.58325195312,-0.79406738281,0.03584630547126961,0.18838217117486705,0.19778198241919998,-0.04565429687,0.52172851562,0.03585763978601923,0.18841195128801952,-0.5054895019491998,-0.91247558593,-0.29992675781,0.01841153203065948,0.13500895048237685,1.2086361139436002,0.85981328365,1.84941458154,0.04924521759429913,0.220800284008776,972.9957254698783,972.51516150218,973.16809652248,0.02607231431888274,0.6529350202999922,0.16065986174428856,0.004774336310244153,2.004015046225449,0.37,0.63,-1.5377323288640465,Stairs down
-0.8798901367140001,-1.19909667968,-0.52880859375,0.03461706753312374,0.18512400400216203,0.10761108398269999,-0.0986328125,0.41198730468,0.01677308551390362,0.12886176569783833,-0.5452844238240999,-0.70031738281,-0.36303710937,0.007863106286566147,0.08822967314741956,1.0551364185839003,0.79848009096,1.34702268994,0.02875733926418453,0.16872986063984846,973.1827173845677,973.02897557317,973.37508610369,0.009796631110963978,0.34611053052003626,0.09848179933294444,0.0002505111664612244,-0.415293079757336,0.56,0.44,0.4487720119358211,Stairs down
-0.7169714355432998,-1.24853515625,-0.13830566406,0.07908819457979796,0.279816569620171,-0.0006286621093,-0.49255371093,0.24133300781,0.04511956475319525,0.2113489273823345,-0.7400158691374,-1.38586425781,-0.33557128906,0.08234458026729714,0.2855190614733527,1.0900095137401002,0.56736972025,1.55440197532,0.07882625993680226,0.27935281873901724,973.2147069374498,972.99570172469,973.59450281584,0.040003181457758344,0.5988010911499941,0.19900540104022493,-0.00353003950200354,-0.9320483986732158,0.57,0.43,0.7029912644485077,Stairs down
-0.6616125488246999,-1.16442871093,-0.37194824218,0.04695101225453355,0.2155956913576619,-0.019824218749599994,-0.38610839843,0.25891113281,0.02305445345835294,0.1510758383189364,-0.8371289062464998,-1.08728027343,-0.56408691406,0.019551975293536743,0.13912747945895296,1.0854452975731999,0.70131737094,1.56983020834,0.04987812389719827,0.22221463196249316,973.3969545626485,973.21992399213,973.61751038099,0.010516776423864728,0.39758638885996334,0.10203729053452018,-0.0009838296141335163,-0.8359691871082471,0.56,0.44,0.3790192033372555,Stairs down
