avg_accX,min_accX,max_accX,var_accX,std_accX,avg_accY,min_accY,max_accY,var_accY,std_accY,avg_accZ,min_accZ,max_accZ,var_accZ,std_accZ,avg_magnitude,min_magnitude,max_magnitude,var_magnitude,std_magnitude,avg_pressure,min_pressure,max_pressure,var_pressure,range_pressure,std_pressure,slope_pressure,kurtosis_pressure,Pressure_below_avg,Pressure_above_avg,skew_pressure,Label
-1.349711914058,-1.81921386718,-0.88537597656,0.06262885642777632,0.24900314830037504,0.2091857910134,-0.07934570312,0.47509765625,0.02381923444734256,0.15356119986138797,0.21338989257590002,-0.11218261718,0.47644042968,0.025026294044936087,0.1574040377642414,1.3998789188273997,0.9577262768,1.85296591756,0.06233822834217644,0.24842472916107744,969.4994419622195,969.47439587999,969.54038364411,0.000258750615132587,0.06598776411999552,0.016005096344016836,-0.00047035058965753186,0.08297557469333494,0.43,0.57,0.43609186823057305,Stairs up
-1.3763403320271999,-1.81970214843,-1.06237792968,0.0537063193381941,0.23058459650378244,0.23935058593480008,-0.06286621093,0.62646484375,0.041371984349135735,0.20238148261549124,0.32065917968359997,0.06591796875,0.46887207031,0.01487460693913801,0.12135015809526838,1.4547427669960995,1.10906561043,1.8862643988,0.05092108155939719,0.22452587989762607,969.4326055274164,969.39716410721,969.47439587999,0.0005829092170380503,0.07723177278001003,0.024022492061975372,-0.000821259708103362,-1.1844106432925883,0.59,0.41,0.002234655952319298,Stairs up
-1.3264013671832,-1.68395996093,-1.13146972656,0.020081738414218717,0.1409997199645323,0.20736816406119993,-0.01696777343,0.59680175781,0.033979655852873276,0.18341172071147618,0.28076660155880007,0.0576171875,0.42700195312,0.011756984248153319,0.1078861177616091,1.3876733694156003,1.17208930281,1.7484233813,0.020903880231107803,0.14385701730814776,969.3504746198646,969.30394432037,969.39750609978,0.0006732030872340923,0.09356177941003807,0.025816100719546153,-0.0008835481041227017,-1.100956070714328,0.55,0.45,0.12467053008445819,Stairs up
-1.2438037109327997,-1.64575195312,-0.77478027343,0.031378276757588586,0.1762512240808917,0.22106445312159997,0.02099609375,0.50305175781,0.01790142357948752,0.13312553978742264,0.23109863280920004,-0.04418945312,0.43408203125,0.01809354464195932,0.13383799608309938,1.2982542919044,0.83868692257,1.70376984173,0.030867725183585524,0.17481146395974628,969.2681842940173,969.21835812993,969.30623307459,0.000674730092182478,0.08787494465991585,0.025845363051438322,-0.0008735900665689609,-1.015206844499906,0.47,0.53,-0.307498085175482,Stairs up
-1.1229248046844,-1.4951171875,-0.78137207031,0.03409749570526944,0.18372947708034426,0.2432910156216,0.02587890625,0.51818847656,0.018261334486361698,0.1344571349594289,0.19502929687280002,-0.12805175781,0.5185546875,0.033293944078779315,0.1815516583179331,1.1867739456172002,0.82566050221,1.55809873593,0.034899909522997444,0.1858787519534373,969.2178235669743,969.20610205832,969.23041268368,5.499128678659864e-05,0.02431062536004447,0.007378439802474006,-0.00013593597789698618,-1.1453362485526777,0.55,0.45,0.20710003046987827,Stairs up
-1.0997216796836,-1.51391601562,-0.58251953125,0.07403995523470963,0.2707389068500546,0.19928222655879996,0.09350585937,0.37084960937,0.005684510770464588,0.07501776898015525,0.16264648437239998,-0.05456542968,0.38391113281,0.015050102965359708,0.12206392561156679,1.1409398153656,0.65088033711,1.54922480752,0.06832143278903408,0.2600734866554908,969.1710812320816,969.14510239175,969.20610205832,0.00039558470403670566,0.06099966656995548,0.01978961487741332,-0.0006539030597601127,-1.4907665689926557,0.55,0.45,0.26675940609701804,Stairs up
-1.1145751953088001,-1.41345214843,-0.8037109375,0.027054064201577677,0.1636567247611961,0.29066894530840004,0.06274414062,0.66918945312,0.027308481726891657,0.16442444133894066,0.0995898437488,-0.12426757812,0.44274902343,0.0269541820843294,0.16335433959183976,1.1767518603776,0.81458763457,1.51140432513,0.03277076623496643,0.18011956743401525,969.1362475999981,969.12663780529,969.14745260001,4.558629450835286e-05,0.020814794719967722,0.006717918692814712,-0.00012029987928305353,-1.349160993772214,0.52,0.48,0.08383172424050052,Stairs up
-1.1095898437464,-1.28356933593,-0.96264648437,0.007277660032629773,0.0848815847655042,0.21137695312160004,0.02575683593,0.39147949218,0.014248815449812222,0.1187700606016268,0.12832519531040001,-0.12731933593,0.32702636718,0.01858908754309511,0.1356583822241153,1.1501488512167999,0.99793796728,1.34122337067,0.009302243278215449,0.09596468540787957,969.1403432997431,969.12709910166,969.15008114659,4.805885471030996e-05,0.022982044930017764,0.0068977000632969585,-0.00014354932662999034,-0.7099516894044626,0.49,0.51,-0.6136418647008186,Stairs up
-1.0771630859340002,-1.30944824218,-0.9326171875,0.010117608272632259,0.10008212722512415,0.2496533203088,0.06762695312,0.41943359375,0.012928029118207196,0.11313155539912427,0.1193115234352,-0.04028320312,0.26708984375,0.009296490688347888,0.09593500811207767,1.1211064076700004,0.96295760813,1.35539131602,0.012102488023952472,0.10945987001505596,969.1381042791742,969.13334970719,969.14595291737,1.3591744097477955e-05,0.012603210180031965,0.0036682184581214865,-6.883692304178167e-06,-1.0198105557304968,0.44,0.56,0.37965010984969594,Stairs up
-1.1470117187472,-1.50366210937,-0.95593261718,0.02016659303150423,0.141297300403048,0.25926269530920004,0.05480957031,0.49841308593,0.021879021952635934,0.14717415443313944,0.09329101562320002,-0.16528320312,0.27917480468,0.023280912311485234,0.15181601756195023,1.1956834058888,0.98752044523,1.58593213028,0.02683908749440745,0.16300520427110105,969.1417804640533,969.1357218845,969.18447721266,7.362710409195483e-05,0.048755328160041245,0.008537612842653109,0.0001358663751619195,15.929079055908673,0.77,0.23,3.8038585654198314,Stairs up
-0.9700830078095999,-1.81372070312,-0.37646484375,0.13944903758991425,0.37155692324866607,0.2402880859348,-0.19323730468,1.22009277343,0.09907208678606742,0.31317944683233406,-0.0004199218752,-0.80236816406,0.53466796875,0.1461180557841373,0.3803378435368954,1.1201969504048004,0.49994744084,1.89461735795,0.12601127604100804,0.3532013070199457,969.1251716237696,969.08376782136,969.18447721266,0.0005286944795269457,0.10070939130002898,0.022878101641781303,-0.00044240279988206607,0.8243843960604011,0.71,0.29,1.1141015340242675,Stairs up
-1.2280615234344001,-1.70910644531,-0.89697265625,0.052737198116968184,0.22849469607804576,0.23086914062199995,-0.34130859375,0.68298339843,0.06283486433643504,0.24941234069923382,0.17350097656160002,-0.29064941406,0.43518066406,0.04778150563143094,0.21749411618505138,1.3051028286792004,0.92881763057,1.78175986254,0.05046958916636665,0.22352828294133828,969.0683692719518,969.04929979675,969.10670058451,0.0003117039830085159,0.05740078776000246,0.017566642911450974,-0.000553814783830114,-0.919829072533366,0.59,0.41,0.7274343231148133,Stairs up
-1.3205419921840003,-1.83972167968,-0.77856445312,0.0661693020540789,0.25594454288680996,0.1537646484364,-0.19067382812,0.58984375,0.05100292855932706,0.2247062510784553,0.22590332031000002,-0.17102050781,0.44396972656,0.026989311882540515,0.16346075603555463,1.3771686852956002,0.84204995229,1.90162075881,0.06528623198859829,0.25423093767028493,969.0264274999988,968.98660908715,969.05765498402,0.0004980571056986392,0.07104589687003227,0.022205326717741686,-0.0007493706808574223,-1.0348416833089848,0.47,0.53,-0.2952642039582652,Stairs up
-1.4361718749964,-2.12072753906,-1.05236816406,0.06673459370921382,0.2570354990504652,0.1566601562496,-0.46130371093,0.74145507812,0.11109001091986957,0.3316309859025101,0.3434130859331999,0.07434082031,0.58654785156,0.012483729593757185,0.111170554994655,1.5271763986692009,1.20818756789,2.20622939337,0.06182030798577129,0.24739059178940814,968.9425323498156,968.90215280594,968.98660908715,0.0006652362812270661,0.08445628121000937,0.025662889907701263,-0.0008745117738800598,-1.2902199108225336,0.55,0.45,0.08865178827893008,Stairs up
-1.2914453124968,-1.44995117187,-1.20629882812,0.004800891779827342,0.06894115506741288,0.1513378906236,-0.39111328125,0.51403808593,0.05511620463604557,0.23359161498154235,0.2599707031212001,0.10290527343,0.3671875,0.005467781779872599,0.07357379942665644,1.3485413993184,1.24913322676,1.48937682129,0.004531356086360611,0.06697792565836154,968.8624008147913,968.82616822749,968.9031855483,0.0005087343038420747,0.07701732081000046,0.022442080135398633,-0.0007672624981250487,-1.1794176916030763,0.43,0.57,-0.09225385856063673,Stairs up
-1.1485693359344,-1.45068359375,-0.87609863281,0.02774926137474216,0.16574609727228795,0.21063964843400004,0.05236816406,0.53479003906,0.018279886101486603,0.13452541484965486,0.2543994140596,-0.19763183593,0.60510253906,0.04196238214227244,0.20382040702748516,1.2186241820020003,0.94526411358,1.58291040646,0.030673091085846208,0.1742594622251192,968.7816382329751,968.76123614565,968.81947591354,0.0003547797749708737,0.058239767890086114,0.01874118398664196,-0.0005949052750030593,-0.9326470075846802,0.52,0.48,0.6191169248240184,Stairs up
-1.1057763671832,-1.97778320312,-0.62951660156,0.10739811637146571,0.3260738186480954,0.24507324218479998,-0.12573242187,0.85815429687,0.07014947332400177,0.2635298438332208,0.3000732421848,-0.00146484375,0.60900878906,0.019850741733273884,0.14018642700326286,1.2092653041783998,0.73306951753,2.01057826184,0.10701817288556262,0.3254965301761403,968.724778595205,968.67864823273,968.76287973267,0.0009428159244355344,0.08423149993996049,0.0305513954704393,-0.0009894473168949147,-1.6048529305884454,0.4,0.6,-0.34895421363033713,Stairs up
-1.2942236328087997,-2.10424804687,-0.95239257812,0.09647433266511514,0.3090462576030714,0.2836621093712,-0.12231445312,0.67846679687,0.051216838672211835,0.22517697547815524,0.17093261718599997,-0.27758789062,0.56872558593,0.07610864653584973,0.2744951002668194,1.3808753213799998,1.01884732746,2.19530380491,0.10044659609188747,0.31534446266102184,968.666420594907,968.64953044288,968.68751781137,8.548996309681772e-05,0.03798736849000761,0.009199731706188477,3.251019235433297e-05,-0.004625239305583229,0.44,0.56,0.11982395216805165,Stairs up
-1.0036181640583999,-1.06494140625,-0.92309570312,0.0012477261611160242,0.0351461078855805,0.20147460937159997,-0.00952148437,0.47741699218,0.017633762166398663,0.13212654746391686,0.0462744140628,-0.12634277343,0.23413085937,0.01583577998833591,0.12520951317073536,1.0400511142331998,0.93932045775,1.13186731039,0.002673266931400678,0.0514444774692743,968.7119829568808,968.69092177424,968.72464256452,7.93321296027386e-05,0.03372079027997188,0.008862212382171351,0.0002785914912248735,-0.7682297040994834,0.52,0.48,-0.2981363440023885,Lift up
-1.0453955078091999,-1.06762695312,-1.0078125,0.00020573394466123738,0.01427153128485605,0.13293457030920003,0.095703125,0.18200683593,0.0004547003543426453,0.021216817640711785,0.0638964843724,-0.01745605468,0.15563964843,0.002409938706212626,0.04884505419334182,1.0570665340771999,1.01253005677,1.08159108625,0.00025872752906823523,0.01600438233039791,968.71457477856,968.68442523867,968.72841503638,0.00016739206448303213,0.04398979771008271,0.012873155939325904,-0.00037458311400923993,-0.4477731887732781,0.36,0.64,-0.9641195743094891,Lift up
-0.9424218749964001,-1.28588867187,-0.59606933593,0.027699140249819988,0.16559634309767166,0.39867675780959994,0.09362792968,0.69653320312,0.029463344728257464,0.17078849867884807,0.09547363280959999,-0.05285644531,0.16882324218,0.004257395194950985,0.0649216546539094,1.0463481135684003,0.76467915908,1.35149558127,0.022402695812858184,0.1489250444174169,968.5804716777973,968.4748545561,968.67360854652,0.004051051486454007,0.19875399041995934,0.06332883207188861,-0.002179649320769606,-1.2035925465654835,0.48,0.52,-0.11859354648151128,Lift up
-0.9376672363243,-0.98596191406,-0.87194824218,0.0006495749273425381,0.025359005857271157,0.2846630859346,0.24328613281,0.3486328125,0.0009844621986198863,0.031218865716641394,0.09645019530959999,0.080078125,0.15087890625,0.00013257917730393485,0.011456586993118653,0.9849310400914001,0.91945322008,1.04958003279,0.0009581529937003945,0.030798887378660135,968.3866082167893,968.33693334773,968.46987118752,0.0018957714105416945,0.13293783978997453,0.043322207889675675,-0.001456004588624453,-1.1689474913259892,0.56,0.44,0.45094963842448943,Lift up
-0.9602697753863998,-0.99523925781,-0.9140625,0.0003639569351873684,0.018982027442702075,0.29616577148019996,0.23815917968,0.34497070312,0.00099141299583166,0.03132888229530928,0.1679150390586,0.09533691406,0.25695800781,0.0017942937696778542,0.042146777243118785,1.0201689505270002,0.9790598713,1.05600021049,0.00040519747884642534,0.020028617127948727,968.3044174842246,968.29419635713,968.3312579143,8.344654465727912e-05,0.03706155716997728,0.009089118725745986,-0.00017670384667503656,1.5687658137163263,0.68,0.32,1.4373050479633567,Lift up
-0.9631142191329701,-1.04113769531,-0.84448242187,0.0032783118097426,0.056972390479712816,0.3237872737430693,0.20007324218,0.44860839843,0.005312674511727971,0.07252636606082018,-0.009554117032475247,-0.1220703125,0.15185546875,0.0037138589888617724,0.06063899824192294,1.021055421539406,0.93029298219,1.1027289836,0.0021687933928614526,0.04633918634322288,968.2941545754875,968.28360058885,968.30307250757,3.397143143522405e-05,0.019471918720000758,0.005799575900782289,-0.00016930237506022019,-1.0141866723450472,0.52,0.48,-0.22753037203598464,Lift up
-0.9787121581996,-1.0732421875,-0.86413574218,0.0010812336433018224,0.03271729369719941,0.2523071289033,0.21948242187,0.3388671875,0.0007286250892498947,0.02685775192299973,0.0189807128903,-0.0185546875,0.17370605468,0.002320582365248334,0.047930955984581095,1.0124016408530998,0.91060345022,1.11042479422,0.001039088530895511,0.03207331672257417,968.2815195660869,968.27396112224,968.29283000971,2.1098402919909494e-05,0.018868887469920992,0.004570275581484162,-0.0001329345775660948,-0.522990440781157,0.57,0.43,0.15224273608003033,Lift up
-0.9340295410118,-1.0732421875,-0.64990234375,0.01076392189864946,0.10322927239723703,0.31891113280769995,0.10546875,0.55895996093,0.009789889051408582,0.09844790582279796,-0.0092321777353,-0.68188476562,0.2255859375,0.07396980176398614,0.27061061277478804,1.031303364993,0.88910982009,1.15163100878,0.0042348213738315444,0.06474931011287478,968.2836785599497,968.24502428751,968.32276944365,0.00020265158810171883,0.07774515614005395,0.014164218023622117,4.087072941000997e-05,1.0046606538863907,0.56,0.44,0.18132950178473764,Lift up
-0.9708449238448486,-1.09143066406,-0.73889160156,0.0053394195701736155,0.07270134826233803,0.33790788746464634,0.19323730468,0.5595703125,0.013707016502955544,0.11648416970045533,0.036008276118484846,-0.53942871093,0.18176269531,0.020399353935033445,0.14210313105235084,1.0458456394892928,0.90698970006,1.15457711472,0.0033058408923880953,0.05720531933432197,968.2549936508992,968.23751575521,968.2664096693,8.26570630772929e-05,0.02889391408996289,0.009045559310967417,0.0002733213014602794,-1.381294084591587,0.47,0.53,-0.2616042642283968,Lift up
-0.5702905273402,-1.05944824218,-0.23962402343,0.07195376729107252,0.2668974140342349,0.1396142578124,-0.06018066406,0.48315429687,0.025760845125722576,0.15969732832600972,-0.7100903320272,-0.94665527343,-0.05834960937,0.08044568902967306,0.28220778185474676,1.0107090518412,0.91056960055,1.16786927019,0.003835976924035147,0.061624809572077346,968.2182449950333,968.16841372455,968.25795342758,0.0007196983065996172,0.08953970303002734,0.026692720422122975,-0.0007563123696385016,-0.9436637281431417,0.49,0.51,-0.3941356668929246,Lift down
-0.246474609371,-0.37878417968,-0.185546875,0.003354860459852055,0.057630823829384344,0.0065356445314,-0.09448242187,0.46362304687,0.014235892806811435,0.11871619046593149,-0.9255224609338001,-1.04663085937,-0.6689453125,0.006765991533603541,0.08184333582074661,0.9683221037366,0.81037747554,1.09207076184,0.0038886405803514636,0.06204638728038844,968.2392384932228,968.18307116941,968.33149044494,0.0018889693535349328,0.14841927552993184,0.04324441767441878,0.0014718406176566102,-1.1860549155219895,0.59,0.41,0.3626582505216297,Lift down
-0.8120996093712001,-1.17004394531,-0.27136230468,0.0744608972046851,0.2715074367906674,0.4957202148399999,0.09155273437,0.97399902343,0.04823771595325721,0.21852994942049622,-0.0526660156268,-0.89929199218,0.23571777343,0.1008768359554612,0.316019093720469,1.0544767871138,0.80291174346,1.26285614499,0.017612541621161257,0.13204702270384458,968.4404936784957,968.32546715314,968.55288056343,0.005266782530643176,0.2274134102899552,0.07220882705969364,0.0024717985878755402,-1.3128498731949307,0.47,0.53,-0.006260776214201993,Lift down
-0.36858154296479995,-1.01452636718,-0.00537109375,0.1153518251034339,0.33793239982635515,0.8675219726528002,0.38818359375,1.22045898437,0.05731934116950572,0.23821449947014278,0.12198730468380001,-0.02844238281,0.31481933593,0.009630084302415841,0.09764109513617554,1.0290092438356,0.67455676944,1.27577609652,0.025197821741314224,0.15794253234610708,968.6608273461592,968.55288056343,968.8184172509,0.00582902215470501,0.2655366874699894,0.07596533375927443,0.002520444281992512,-0.47897777866125457,0.59,0.41,0.735789453178721,Lift down
-0.9510781644534344,-0.9921875,-0.888671875,0.0006499493693932666,0.025365019697368263,0.3273001006111111,0.20300292968,0.44055175781,0.005947915294632288,0.0767322314426034,0.10352672229777776,-0.03576660156,0.23413085937,0.008386658493948118,0.0911150084881027,1.0181805581615149,0.96793751331,1.08306577095,0.000539780641296869,0.02311554264097643,968.8559735386516,968.75749776557,968.97822701474,0.005348013612415115,0.22072924917006276,0.0727598328261945,0.0024276954334499206,-1.3605769857584473,0.52,0.48,0.2152095499133417,Lift down
-0.9889782714806,-1.03332519531,-0.92041015625,0.0006866407801091118,0.0260724830483792,0.23454101562010002,0.15832519531,0.39831542968,0.0018360137698065647,0.04263394929054191,0.04374389648189998,-0.03833007812,0.11791992187,0.0025590024133482136,0.05033301490289183,1.0195548313877998,0.96551692505,1.0679623914,0.0005452769031042546,0.02323411573684723,969.0891374399275,968.97822701474,969.20386131047,0.0035913072271397373,0.22563429572994664,0.059627125998729304,0.002054050512668123,-1.0128760439178812,0.51,0.49,-0.09909661789456989,Lift down
-0.9967932128871999,-1.00988769531,-0.98156738281,4.065152822605871e-05,0.006343895722960627,0.18417968749590002,0.13293457031,0.2119140625,0.0006194132746576681,0.024763261940041168,-0.0129479980459,-0.05700683593,0.08959960937,0.0019449616484577812,0.043880656694871865,1.0149885977377,0.99053092142,1.02439819265,6.428267193485183e-05,0.007977458568711172,969.3001149711714,969.20386131047,969.41282240391,0.0036109534237245377,0.20896109344005254,0.05978999823956589,0.0020646505672090782,-1.2064964043813295,0.51,0.49,-0.0131287281557554,Lift down
-0.9959960937457001,-1.0126953125,-0.98034667968,5.848299374889272e-05,0.007609084295196354,0.2017077636674,0.15759277343,0.23217773437,0.0004341650174954976,0.020732181923775957,-0.027561035154300004,-0.06591796875,0.01293945312,0.0005179245001608266,0.022643878977755078,1.0170597014014,1.00752376885,1.03602963436,4.4325164278081976e-05,0.006624342430407802,969.5087604585485,969.41282240391,969.60860959085,0.0034598483543823197,0.19578718694003783,0.05852563430530673,0.002020262321801746,-1.1947570943549413,0.51,0.49,-0.010797505106019793,Lift down
-0.9983093261685002,-1.01684570312,-0.97180175781,0.00013056408727067507,0.011369188466991314,0.16313476562110002,0.13000488281,0.19897460937,0.00023531612724560306,0.015263124384383004,-0.0124682617167,-0.03759765625,0.01147460937,0.0001330378741581771,0.011476388605157779,1.0117939113913,0.98547756421,1.03419954246,0.00015851494720345064,0.012527162397423294,969.7113934339887,969.60860959085,969.82221102062,0.0037994398083667246,0.21360142976993757,0.06133062375586162,0.002114979233801739,-1.1012554113276485,0.47,0.53,0.1229568513562069,Lift down
-0.9905486154038615,-1.02233886718,-0.95715332031,0.0004042471487634341,0.02000611660832692,0.23172571163029695,0.17297363281,0.30102539062,0.001373919410877194,0.03688246532423316,0.0013246441819801979,-0.09240722656,0.08544921875,0.001993309672306655,0.04442492468172441,1.0188940069350496,0.97460905392,1.05384885859,0.00047899967985058585,0.021777444954882937,969.932443293793,969.82221102062,970.04367534852,0.0048376312957631685,0.22146432789998016,0.06920790385643215,0.0023439266369287555,-1.215251034147084,0.54,0.46,0.26199460783230494,Lift down
0.03012695312359999,-1.16333007812,0.59143066406,0.44503152069008434,0.6637629136093576,0.7527416992152002,0.23596191406,1.02404785156,0.038885250362678,0.19620498938368316,-0.12421874999880002,-0.52331542968,0.11486816406,0.0304190432175283,0.17353631546553308,1.02821308494,0.66450294025,1.51557249784,0.035281116139491066,0.18689115810571713,970.1124913630503,970.03982332473,970.22791414638,0.0033165138816850623,0.18809082165000746,0.05730051258818032,0.0019345657655081003,-0.7629491811789055,0.58,0.42,0.5507928967530575,Lift down
0.26283691406000004,-1.02490234375,0.66760253906,0.3782265176412432,0.6119185014892349,0.6459130859339999,0.48107910156,1.00537109375,0.01834292089106002,0.13475715818519407,-0.4280224609346,-0.52551269531,0.02551269531,0.016664167702881955,0.1284426954943454,1.0275551490777999,0.73660202396,1.32443282835,0.022951384660837598,0.15073775510544538,970.3009555149166,970.22791414638,970.40004326708,0.0019887689858421056,0.1721291206999922,0.04437207788670353,0.0014773392381298425,-0.5619575682856293,0.5,0.5,0.5601541335319401,Lift down
-0.9758178710893999,-0.99682617187,-0.96520996093,7.406223303013719e-05,0.008562803904086314,0.26999267577799996,0.18908691406,0.599609375,0.006635679313731319,0.0810513573026017,-0.0064526367176,-0.037109375,0.0390625,0.00046038869046909563,0.021349117161241226,1.0155694649143998,0.98617974099,1.15926345998,0.0008841312144523822,0.029585298753060756,970.5473881801527,970.40004326708,970.65840619266,0.0054015095630000525,0.2583629255799451,0.07312656471741341,0.0025206494153355912,-1.1143417958284794,0.5,0.5,-0.11974031442264386,Lift down
-0.9912988281214001,-1.00830078125,-0.9775390625,6.651459318297525e-05,0.008114767233331188,0.22915283202799996,0.17834472656,0.298828125,0.0013494950894237855,0.03655133565999398,0.0346093749974,-0.00036621093,0.08056640625,0.0006462878891680604,0.02529476250681907,1.0189174162006,1.00030892785,1.05076505513,0.0002335045025934479,0.015204257876250108,970.7519408683713,970.65840619266,970.85898431947,0.003216300147595374,0.20057812681000087,0.05642815915940746,0.0019383964222860243,-1.067388385857894,0.5,0.5,-0.10919387043994988,Lift down
-0.2041748046874,-1.033203125,0.70593261718,0.5645493461569041,0.7475987243804896,0.6061010742149999,0.19738769531,1.19567871093,0.07826274674933607,0.27835250902738906,0.0966333007802,-0.0673828125,0.38879394531,0.0161544047757736,0.12646288280762805,1.00996628085,0.57106780633,1.5726634926,0.05124121424792206,0.2252305532236753,970.9471688111412,970.85898431947,971.01079110013,0.0023323240003365075,0.15180678065996744,0.048052063018492165,0.0016195380085103925,-1.193007623564352,0.42,0.58,-0.4300488632648683,Lift down
-0.7775151416471715,-1.39221191406,0.68994140625,0.3023835113185114,0.5471097992325711,0.42547422466464646,0.10424804687,1.07446289062,0.0874330262635258,0.29419358317624134,0.13553750394343436,-0.08349609375,0.3681640625,0.01350373389343725,0.11561718099390889,1.0668455716010103,0.49438829208,1.75339540123,0.06567880428363865,0.2549811405146415,971.083939236668,971.00478793611,971.21374080358,0.0032004073540840565,0.208952867469975,0.05628569984528137,0.0017347938078061775,-0.27203721619896104,0.55,0.45,0.6269109803597326,Lift down
-0.9692736816369001,-1.01599121093,-0.87561035156,0.0015235775934759224,0.038837376553278714,0.22309936523130003,0.12463378906,0.30078125,0.0019757803807761167,0.04422694401570558,0.12351806640449998,-0.01770019531,0.45104980468,0.02529450709713813,0.15824525909538886,1.0160684669390998,0.98315400132,1.07080948561,0.000638693255327027,0.025145701874749026,971.0945910394211,970.98418328746,971.22929165356,0.003820782255321423,0.24510836609999842,0.061502637608221396,0.0001744933448070866,0.36799676518229996,0.44,0.56,0.38218207869336857,Lift down
-1.0055114746062,-1.01696777343,-0.994140625,4.0988842338817405e-05,0.0063701612158115145,0.12865112304360002,0.07495117187,0.2041015625,0.0018440936837438291,0.042727657868251924,-0.0021032714829999997,-0.04016113281,0.03088378906,0.000376374689783723,0.01930313298109625,1.0147844430991,0.99889996493,1.0293799915,6.0845920739071443e-05,0.007761279632359648,971.1312951832474,971.12051979098,971.14219018035,3.396497833047176e-05,0.02167038937000143,0.005798735081650743,0.00017684647871531268,-0.7319510714936803,0.67,0.33,0.051867329862865415,Lift down
-1.002000732418,-1.01159667968,-0.97436523437,8.485771641641219e-05,0.009165649963436748,0.1292968749958,0.08264160156,0.24841308593,0.0027240803747191488,0.0519311040800401,0.0069702148425,-0.01184082031,0.04260253906,0.00012614194185003416,0.011174995410805941,1.0117064762519,0.98264316319,1.04003463529,0.00012875624866925337,0.011290203106346708,971.1494290147774,971.13772504778,971.16558050735,5.918998892205879e-05,0.02785545956999158,0.007654938865388684,0.0002516297659972975,-1.0005711201305068,0.47,0.53,0.1799129687229541,Lift down
-0.9864973313702969,-1.01037597656,-0.96948242187,0.000156513443677342,0.012448445911885172,0.2692713973505941,0.23999023437,0.28161621093,9.012897711185721e-05,0.009446513166340204,0.041942634202376254,-0.04370117187,0.08435058593,0.0013415024213439082,0.036444755715361626,1.0241512461412876,1.00817646433,1.04496787852,0.00013119946243947962,0.01139738820348201,971.1641055053122,971.158312078,971.16864349224,7.190617429505438e-06,0.010331414239999503,0.002668224727703822,9.14397469115966e-06,-0.7665803822018646,0.53,0.47,-0.2295860525698068,Lift down
-1.7198120117153999,-2.88110351562,-0.271484375,0.5060078924656,0.7077766692544647,0.34805664062459996,-0.86682128906,1.88818359375,0.6942803089262521,0.8290582041310427,0.47227050780979996,-0.10473632812,0.822265625,0.0766914856308255,0.27554413580135806,2.0457515051008,0.92571024884,3.22360312914,0.3848958412151662,0.6172899503499263,971.016492654848,970.92488698732,971.15270738728,0.004091742718967028,0.22782039996002368,0.06364609408107741,-0.0019158276282784986,-0.712685232100688,0.5,0.5,0.3842208902547544,Stairs up
-1.1128637695267998,-2.63403320312,-0.28503417968,0.31726384951038256,0.5604384096537983,0.5042187499986,-0.7099609375,1.57543945312,0.35801164559370263,0.5953415231090181,0.40769287109060004,0.11328125,0.86706542968,0.04662049279617743,0.21483549024361792,1.4544026327442003,0.52967613961,2.64903227842,0.2609149539449669,0.5082379407379158,970.8399366444489,970.75038013096,970.92488698732,0.0016934465867279648,0.17450685635992613,0.040945233188500525,-0.0011944863828635378,-1.0627510056055836,0.46,0.54,-0.047705359468079855,Stairs up
-1.6656811523405997,-2.994140625,-0.69714355468,0.4015101723068389,0.6304721013524472,0.2539355468738,-0.72814941406,1.10571289062,0.39550314560908834,0.625738055541612,0.3874560546850001,-0.34436035156,0.97546386718,0.13807824462239093,0.3697261989312727,1.8853197543012,1.1600638266,3.13653406428,0.364049725753928,0.600340926887705,970.6928479968913,970.61941539655,970.75402020037,0.002247416241271006,0.13460480381991147,0.04716929169341316,-0.001421829338281285,-1.5554748297217387,0.46,0.54,-0.25770770911087604,Stairs up
-1.0525878906205999,-1.62097167968,-0.41430664062,0.12675134702155197,0.3542369737214573,0.601572265622,-0.10559082031,1.32922363281,0.17433361022142888,0.41543985619968454,-0.03315185546820001,-0.46008300781,0.390625,0.08204975097296764,0.28500746211851713,1.3133489590286,0.67112234008,1.89750856662,0.12661351184165218,0.35404431463199015,970.6461237088051,970.40655220464,970.96505784713,0.017808566483554198,0.5585056424899904,0.13277982082650458,0.0006683279004594341,0.7148787123941589,0.64,0.36,0.7949005410974855,Stairs up
-1.1869873046832,-1.74267578125,-0.64636230468,0.09081295885255762,0.2998413401518077,0.4787792968709999,-0.05639648437,1.10205078125,0.11273869502342704,0.3340827862569288,-0.05156005859459999,-0.45556640625,0.16674804687,0.026641758336245214,0.1624048667770851,1.3254232420186003,0.65231654401,1.89867362371,0.11310265034788293,0.3346216129367679,970.6204912378867,970.40655220464,971.07737173013,0.027407169505424555,0.6708195254900602,0.16472127309601,0.0016582438445265422,1.7962685730670467,0.74,0.26,1.5991483669888145,Stairs up
-0.9391186523409999,-1.5927734375,-0.46948242187,0.11274198258154124,0.33408765729330053,0.7191235351522001,0.13464355468,1.92980957031,0.19268123574376284,0.4367544199963238,-0.29105468749860003,-1.11950683593,0.23901367187,0.11712364923904456,0.3405178596588645,1.2989519011916002,0.62937555513,2.72731231009,0.21701079836545356,0.4635091049610558,970.6943907806807,970.32407095434,971.65606823946,0.12620291739321277,1.3319972851199964,0.35346978402584944,0.0006783960789342886,1.6930430584165066,0.62,0.38,1.5434420152359298,Stairs up
-1.3906835937464002,-3.01049804687,-0.26831054687,0.6195543831272802,0.7831722922167302,0.24455322265560006,-0.87805175781,1.64929199218,0.3974650597830913,0.6272881388845644,0.3377026367149999,-0.3193359375,0.89831542968,0.08623107527726959,0.2921793362380319,1.6156060005858002,0.33403534528,3.1871461064,0.5958439104554121,0.7680400193680392,970.5003342358286,970.32407095434,970.56811382268,0.0034266575432662857,0.24404286833998867,0.05824423549016351,0.0012514204662301069,2.6791783228711674,0.4,0.6,-1.5972947493354892,Stairs up
-1.723688299001414,-3.15393066406,-0.27185058593,0.6807803111030282,0.8209164039681555,0.10490895280939393,-0.87963867187,2.12524414062,0.5222552862691178,0.7190131990076452,0.5740091343085858,0.16162109375,1.40478515625,0.14657746621555268,0.3809158512699739,1.9588506275321211,0.60959203229,3.81230045992,0.8187487435143316,0.9002658241796719,970.4435535617247,970.39315829655,970.46710377,0.0004734070678331185,0.07394547344995317,0.021647752268054217,-0.00042385918078040416,0.02157416010910973,0.48,0.52,-0.9055472024496174,Stairs up
-1.8503771972621,-3.15393066406,-0.70556640625,0.4803949875345364,0.6896310880892704,0.30904541015590004,-1.02136230468,1.79309082031,0.7695663322942254,0.8728520315444556,0.6590624999968,-0.11083984375,1.29541015625,0.1623832643393634,0.40094816584687076,2.2138489294884,1.0881890824,3.56589371924,0.45541643668427945,0.671462785504481,970.33342371165,970.24655898426,970.46310322902,0.004187309762108956,0.21654424476002987,0.06438506553920612,-0.0019051018016442915,-0.6426486641896525,0.45,0.55,0.4702630215769418,Stairs up
-1.6519267771466337,-2.85998535156,-0.42309570312,0.535754053076098,0.7283196808415155,0.3157789777984159,-0.96228027343,1.60510253906,0.7142302450569049,0.8409272611065615,0.5739347250126732,-0.11083984375,1.15783691406,0.10288257900021275,0.3191613065585661,2.0094319810682175,0.90292868708,3.2697874878,0.46423112526460086,0.6779636992418575,970.2226813882245,970.15063323861,970.31321721397,0.0018370552317099626,0.16258397536000757,0.04264817189575033,-0.00032574241983485,-0.4115001306298982,0.53,0.47,0.2972848416385544,Stairs up
-1.3814941406221999,-2.19909667968,-0.45166015625,0.21168368031229434,0.45778471305753693,0.32551513671719995,-0.44885253906,1.31188964843,0.3034219373864185,0.5480763797250838,0.3345288085924,-0.50268554687,1.30651855468,0.18994372312859045,0.43364073366936434,1.6252620896422,0.79881380809,2.50315203146,0.18476532926729852,0.4276887606363131,970.1156965827563,969.98999510297,970.40574243781,0.005492858059025008,0.41574733483992077,0.07374231809778398,-0.00013179246593739494,7.325911521441437,0.58,0.42,2.0105271007917023,Stairs up
-1.1093749999964,-2.13037109375,-0.49682617187,0.1884296987996581,0.431909020294392,0.6321997070279999,0.09094238281,1.10095214843,0.08550793202821537,0.2909516329356706,-0.1885205078112,-0.63977050781,0.23303222656,0.06313758712678164,0.25001242220240544,1.3545820269093998,0.5864758879,2.27774432014,0.16640539413995165,0.405883407148595,970.0972076339992,969.79355812419,970.65332204884,0.0877074207765475,0.8597639246499966,0.2946698942355361,-0.003312532757467298,-0.9196102402666395,0.68,0.32,0.8291718181058311,Stairs up
-1.0717700195273998,-1.85681152343,-0.44799804687,0.14657797440680723,0.38093594561650274,0.580578613279,-0.177734375,1.21826171875,0.20589570219282413,0.4514828293201148,-0.0337255859372,-0.35559082031,0.33850097656,0.03986466956740688,0.19866057201098766,1.3241788402632002,0.71145948174,1.85958115452,0.12309624020995007,0.3490920764037055,970.0878705922258,970.00450565005,970.12721945369,0.0007943931281925247,0.12271380364006745,0.028043701555083622,0.0006996143256723553,-0.10638498559811316,0.34,0.66,-0.7121963260302835,Stairs up
-1.290253906247,-2.24499511718,-0.564453125,0.24025279558018348,0.48769895183851036,0.19036376953019996,-0.54064941406,0.86145019531,0.1364302082531686,0.3675131374123065,0.1824316406226,-0.31945800781,0.73022460937,0.06847892098880728,0.2603730626983506,1.3894134314744002,0.572682512,2.47508955875,0.2469852857031044,0.4944850178176012,970.1036711970019,970.04248030386,970.13257897746,0.0004606261920285534,0.09009867359998225,0.02135462315537944,-0.0005148531499951311,0.23753430877296688,0.38,0.62,-0.9529104106148671,Stairs up
-1.389531249996,-2.49975585937,-0.66577148437,0.1974075418291125,0.44207857492850905,0.30860839843719995,-0.41442871093,1.7041015625,0.2973834147577749,0.5425952272276242,0.2816308593726,-0.15014648437,0.69189453125,0.05902149438750215,0.24172562843775403,1.5561902019762,0.88320246666,3.07315015094,0.23424097069922112,0.4815584710003853,970.0143274017397,969.99036594403,970.04248030386,0.0002183376002232623,0.05211435982994317,0.014702184335024154,-0.00039953142149180674,-0.6747592630049537,0.66,0.34,0.3370974770114693,Stairs up
-1.9107177734330003,-3.15649414062,-0.51208496093,0.6101369448380348,0.7771972564218523,0.30948486328179997,-0.92590332031,1.75561523437,0.7430060760177551,0.8576572831018097,0.5558251953096,-0.2958984375,0.99841308593,0.1280571875178288,0.35605703987233633,2.2442185100106,1.22952918859,3.50251472127,0.49033982189323644,0.6967326773406742,969.8986754880596,969.78252596305,969.99496445419,0.003838502370598128,0.21243849114000568,0.0616450918313222,-0.002002840127196531,-0.6958133608727097,0.46,0.54,-0.297418713909011,Stairs up
-1.2888305664016,-2.10913085937,-0.54663085937,0.16744784649565045,0.40715275761155534,0.34109619140340003,-0.28002929687,1.09228515625,0.10708158293701155,0.3255929469562285,0.0333422851558,-0.53076171875,0.5380859375,0.11791741366766739,0.34166978141326854,1.4156824673022,0.6128322999,2.14690325314,0.16455361121546894,0.40361872491661516,969.7586083536764,969.67126575696,969.89711068418,0.005215858475855172,0.2258449272200096,0.0718588887410362,-0.0014389138949987281,-0.4826214449537072,0.58,0.42,0.8733274463688847,Stairs up
-1.2639862985274748,-2.11608886718,-0.60229492187,0.17243406057713892,0.41314924953277,0.25511092368848487,-0.50610351562,0.806640625,0.14114959526968482,0.37379652457200857,0.3723625414253535,-0.04443359375,0.75939941406,0.04613088886899742,0.2136935195427393,1.4071413560576769,0.83306792423,2.31060527169,0.1663454497192671,0.4057895916006172,969.6878164372653,969.64568421617,969.72501566236,0.0006668036932287195,0.07933144618993992,0.025691794456363406,-0.0008434267917532049,-1.4485387522239175,0.58,0.42,-0.04205048025224966,Stairs up
-1.32435302734,-1.77258300781,-0.888671875,0.06591272007949447,0.25544782809548316,0.32126953124660007,-0.09350585937,0.87976074218,0.11285891578475821,0.3342608661313954,0.17736083984099998,-0.13818359375,0.50927734375,0.03687091933913007,0.1910555158736297,1.4227753737022,0.91510331977,1.92372093482,0.07856392513198786,0.27888758645853706,969.6489603677452,969.64146316827,969.66929736762,4.337734094478674e-05,0.027834199349968003,0.0065531341765096545,-0.00011377930867127429,4.561274901963817,0.71,0.29,2.271318081881857,Stairs up
-1.26417465964901,-1.67651367187,-0.86206054687,0.040511104252286996,0.20027482170803484,0.3119597482190099,-0.1015625,0.68872070312,0.07070360164180726,0.26458187009314793,0.09630743347653467,-0.14685058593,0.37976074218,0.027210860363414576,0.1641384961073144,1.3397393280218812,0.8792358967,1.74893393146,0.047353976653686514,0.2165297332924271,969.6505898188111,969.64451756999,969.65925064293,2.2372962965132203e-05,0.014733072940089187,0.004706532532590093,5.725997616272637e-06,-1.0048099010191707,0.58,0.42,0.4390327755305897,Stairs up
-0.6923120117151998,-1.43798828125,-0.17797851562,0.1377484311312135,0.36928437120991375,0.2610742187484,-0.22973632812,0.7646484375,0.1010367178178256,0.31626942729205954,-0.5257543945287999,-0.94995117187,0.14440917968,0.15535184318853826,0.3921712951717054,1.0795122757400002,0.8315162856,1.61029673078,0.049214365018518856,0.2207311064810161,969.6488865404158,969.58130330616,969.68966710337,0.001373124318222648,0.10836379721001776,0.03686994812907148,-0.0006659580397174328,-0.8477595450713893,0.36,0.64,-0.788481547277588,Stairs up
-0.5509008789035998,-1.52795410156,-0.18322753906,0.1322799881841074,0.3618800744753244,0.4818090820267999,0.26940917968,1.04113769531,0.04514185376222751,0.21140112399087485,-0.5072656249990001,-1.08288574218,0.34851074218,0.21840128346855306,0.4649916887793453,1.0651183943431999,0.62200436324,1.60458328722,0.05084634787522077,0.22436105811051205,969.6173016258747,969.40129581552,970.00890670252,0.021054399565309433,0.6076108869999644,0.14437401279197146,-0.0023117894554330683,0.09106748106796791,0.56,0.44,0.6924737748510389,Stairs up
-1.1040747070272,-1.57604980468,-0.52111816406,0.06743227899097307,0.25837561069315995,0.2916650390606,-0.13635253906,0.66467285156,0.06939584464645324,0.2621104465678328,0.3311108398414001,-0.64099121093,1.27612304687,0.22530769230523898,0.47228658183584526,1.3091182526907996,0.95879883534,1.75109446735,0.058997676993860264,0.24167685082341187,969.614166642535,969.58920290029,969.70406618187,0.000706356011952383,0.11486328157991466,0.0264441383265339,-0.0006108774704639287,5.35747473060788,0.66,0.34,2.3550235026927617,Stairs up
-1.0240454101528003,-1.86572265625,-0.39489746093,0.16911058021990152,0.4091692491105637,0.5338867187470001,-0.13671875,1.27038574218,0.13205211391338703,0.36156824082633854,-0.041652832030600016,-0.56884765625,0.78186035156,0.10197226103337854,0.31773029195064917,1.2659397471186,0.7496269212,2.25947235565,0.13327186990342957,0.3632342924400108,969.5360566395748,969.46919501093,969.59320433803,0.0011125836941880628,0.12400932709999779,0.03318821865129525,-0.0011025159828519755,-0.6294536461507678,0.54,0.46,-0.17990655063784178,Stairs up
-1.6479602050742,-2.89038085937,-0.67272949218,0.4306347849083457,0.6529383103014115,0.5443908691390001,-0.6572265625,1.50085449218,0.47934298183044055,0.688875570776128,0.34478759765339995,-0.69543457031,1.06921386718,0.2298911772272582,0.4770663113813274,1.9805970995045996,1.00757517718,3.1021548001,0.39914328425734885,0.6286110493896646,969.3652246422121,969.27512892425,969.49367187746,0.004732543856540404,0.21854295320997608,0.06844865534088307,-0.0022359986631808036,-0.9087340802465826,0.66,0.34,0.6057359230064315,Stairs up
-1.0138623046841,-1.51196289062,-0.55810546875,0.049901047836602125,0.2222656909157059,0.0036303710952999934,-0.89587402343,0.83813476562,0.2094688682278803,0.4553835521245816,0.127565917966,-0.12634277343,0.52526855468,0.023279529622831138,0.15181150920336317,1.1249104419448999,0.66853090244,1.73046530988,0.05919440880058785,0.24207945950159004,969.2914957633599,969.20111264514,969.34612790199,0.001122762616267105,0.1450152568500016,0.03333969091195109,-0.0005862403548638447,1.4456187510072365,0.28,0.72,-1.148858110709192,Stairs up
-1.5241320800733995,-3.00671386718,-0.56713867187,0.3941321531611492,0.624652568736844,0.3182678222652,-1.04504394531,1.64904785156,0.5001987587215693,0.7037021892351576,0.4820959472625999,-0.10778808593,1.08776855468,0.10915037298788167,0.3287230890247943,1.8013233724018003,0.79022226932,3.46951309178,0.4094647339682991,0.6366868041891681,969.2174580237933,969.1553560592,969.30262389733,0.0018375905861529051,0.14726783813000566,0.042652252933360696,-0.0010143479266209218,-0.7345445334024867,0.52,0.48,0.32007598827182704,Stairs up
-1.2583508300749,-2.02478027343,-0.5546875,0.13850505005572616,0.37029717735241907,0.5603735351535,-0.18774414062,1.37561035156,0.19562985836035404,0.4400835827166818,0.35072021484120003,-0.17236328125,0.76025390625,0.05616962533369368,0.2358133352470906,1.5165869772033003,0.83932765805,2.11827042111,0.10791455408088273,0.3268568624644034,969.1701801494669,969.15397491824,969.1981863475,0.0001820671865659986,0.044211429260030854,0.01342559178212784,-7.185524554871993e-05,-1.2754139517809606,0.48,0.52,0.2618604588738951,Stairs up
-1.0033740234339001,-1.67358398437,0.3359375,0.21903238498734182,0.46566303389625896,0.8283105468718999,0.02697753906,1.89904785156,0.3258196842433641,0.5679449686377461,0.2453710937489999,-0.33862304687,0.74182128906,0.09434731490532264,0.3056204210393497,1.4937874796477997,0.92462924312,2.46564545568,0.15603143691970803,0.3930281447307698,969.1813360293258,969.1507265179,969.23477595786,0.0003583550844967051,0.08404943996004022,0.018835379838265488,0.00040083420858398795,0.5459886026526384,0.5,0.5,0.6802706882265765,Stairs up
-0.38031005859059985,-1.14331054687,0.3359375,0.11047198329738578,0.3307072171338447,1.0829785156214,-0.07849121093,1.99487304687,0.27342853977154585,0.5202828599654522,0.10701416015600003,-0.2255859375,0.49890136718,0.05012596111568275,0.2227660241251478,1.2542925901594,0.56201927518,2.0553423487,0.18723894348538575,0.43054216291849035,969.1725960380322,969.13347125341,969.23917843039,0.0008044863037431234,0.10570717697999044,0.028221294100478314,-0.00012667474191465464,-0.7416596657675596,0.54,0.46,0.4961473646124669,Stairs up
-0.8546862792939,-2.70483398437,0.10668945312,0.6346126861310172,0.7926326761304425,0.3832678222637,-0.4560546875,1.54626464843,0.42067260358213254,0.6453416750422301,-0.017733154296799974,-1.25524902343,1.42126464843,0.6024278907571166,0.772271721513578,1.4049135944588,0.62977120053,3.06689357408,0.552893073629018,0.7398406199261621,969.148436734128,969.00743466901,969.22572878852,0.0022409486587466262,0.21829411951000566,0.047101371234382974,-0.0012499423664511554,0.7303353893805822,0.34,0.66,-0.9455646554220413,Stairs up
-1.4508093261679,-2.67443847656,-0.56115722656,0.26423230690618427,0.5114586824339992,0.4179382324197,-0.59973144531,1.51123046875,0.31958174114573484,0.562481931918064,0.2936633300773,-0.25988769531,0.92236328125,0.13466994500133597,0.3651345581444224,1.6728660968903997,0.66333997351,2.88734443191,0.28139029640607527,0.5278033662662778,969.0544366852799,969.00743466901,969.09945516253,0.0007636877572428547,0.09202049352006725,0.027496379392029528,-3.1005854577355805e-05,-1.4035077960272104,0.44,0.56,-0.1959767457586986,Stairs up
-1.8187561035109,-2.85363769531,-0.67260742187,0.44566510915033547,0.664235243011715,0.5212390136693,-0.74951171875,2.09875488281,0.645675859813063,0.7995117892907723,0.5908142089808,-0.08984375,1.29516601562,0.18067077716502009,0.42292324290983335,2.1482465917244995,0.71075232682,3.62563347625,0.5787409220008023,0.7569369278749678,968.9440351968617,968.79956458,969.03395665564,0.005725674800925976,0.23439207564001663,0.0752888972752073,-0.00234986056086406,-0.9296316416513535,0.42,0.58,-0.5309142729180484,Stairs up
-1.7931115722614002,-2.98156738281,-0.95812988281,0.3908272900528322,0.622028148199343,0.3985058593739999,-0.90234375,1.4853515625,0.6052969821493612,0.7741085274868554,0.4622570800759,-0.49560546875,1.11303710937,0.1856602302968881,0.42872325338605,2.0901823296960997,1.10868169719,3.47172405788,0.39276982294502866,0.623572068581955,968.7832867251377,968.68759065344,968.8600279443,0.0023554273984467797,0.17243729085998893,0.04828947219076133,-0.000623004719773,-0.870327383072103,0.5,0.5,-0.16303219954998333,Stairs up
-1.1773864746053,-1.77893066406,-0.30651855468,0.13445593924723687,0.3648443227662512,0.28350952148210007,-0.34533691406,0.78955078125,0.10170571686380316,0.3173147643825687,0.1944311523406,-0.22497558593,1.35803222656,0.051438865510700794,0.2256645228111716,1.2973827794925001,0.4464375856,1.83969203461,0.10701259822364428,0.3254880523788974,968.7429734123843,968.66260380671,968.8452802895,0.002152469850137118,0.18267648279004334,0.04616216147057833,0.0007862459756926171,-0.6813035719385558,0.45,0.55,-0.18323996198270875,Stairs down
-1.3107128906208998,-2.10778808593,-0.56640625,0.2201051933351876,0.46680203662991415,0.24835327148209999,-0.11450195312,0.50109863281,0.044705516006867015,0.21037694941889035,0.1692810058563,-0.00402832031,0.46435546875,0.016415372754117162,0.12748026916576538,1.3695669738536,0.57465337018,2.16698113361,0.2131351650961673,0.4593515140338667,968.8080534743343,968.7812222947,968.8459772288,0.0003646351108840921,0.06475493410005129,0.01899970420230934,0.0006183020102562226,-0.9654260143759585,0.57,0.43,0.4430023074453564,Stairs down
-1.3468457031217003,-2.25427246093,-0.5,0.2620982706898859,0.5093891321798955,0.22081298827960003,-0.17297363281,0.62536621093,0.061216585412033564,0.2461796489515598,0.23367309570030004,-0.02319335937,0.55651855468,0.028236556647165494,0.1671950689485005,1.4151086557275996,0.52958267491,2.31342071491,0.2655133642117574,0.5126970163455604,968.874311640026,968.83563211115,968.92382596255,0.0006623897268879118,0.08819385140009217,0.025607925133033185,0.000828218588668917,-0.7665059186865721,0.53,0.47,0.12671580668589996,Stairs down
-1.2864465331993,-2.3662109375,-0.5576171875,0.2552130099666474,0.502653837016073,0.2833056640593,-0.1181640625,1.15393066406,0.09342761013183466,0.30412716753114366,0.2764294433559,0.03649902343,0.78149414062,0.0312872834561197,0.1759954846624154,1.3767894595717005,0.57116709654,2.74613242033,0.2951509371239124,0.5405547407549703,968.9564795073383,968.91426561968,969.09745302222,0.0015282043178833037,0.18318740253994292,0.03889630155560385,0.0006852961566042345,4.269222267976806,0.49,0.51,1.73754305862455,Stairs down
-1.2266906738257,-2.05126953125,-0.56921386718,0.1908670102043168,0.4346933863107117,0.3914318847628999,-0.08361816406,1.02453613281,0.12027664223437008,0.34507082723989635,0.22412719726209995,0.02954101562,0.53881835937,0.019250805743519676,0.13805179349101002,1.3542266108435,0.57589276552,2.12567687824,0.20341689928594575,0.44875687214023396,969.0320815770247,968.9862784722,969.07489333132,0.0007586335301069319,0.08861485912007083,0.02740524028002423,0.0009147539684574799,-1.4158710761383309,0.49,0.51,-0.08331212879881447,Stairs down
-1.3221801757779,-2.24780273437,-0.69201660156,0.15932486439541185,0.39715439787500495,0.2708508300762,-0.16174316406,0.68041992187,0.060689563609938324,0.24511766148900602,0.34113037108979993,0.07763671875,0.61120605468,0.02176656850042448,0.14679544548595583,1.4234236799787,0.90730746004,2.28795558282,0.15264518512023323,0.3887399301191362,969.0864044820638,969.07489333132,969.10487739281,6.266164792463386e-05,0.029984061489926717,0.007876232058883709,0.00014964631313065603,-0.31294026365480976,0.57,0.43,0.6012763151880447,Stairs down
-0.38558105468369996,-1.75891113281,-0.01184082031,0.1668332119427256,0.40640482258863314,0.22568725585569996,-0.08166503906,0.49780273437,0.020430887303606624,0.14222017589136415,0.8428405761682,0.20935058593,1.22534179687,0.06655584482755728,0.2566910329156079,1.0483837796389999,0.65950226979,1.81414658469,0.0627888073203191,0.24932091618457508,969.132213311705,969.0946995204,969.16613132377,0.0005397763349665315,0.07143180336993282,0.02311662976337308,0.0004236185148259457,-1.3627227956108168,0.45,0.55,-0.2965186371654232,Stairs down
-0.2730627441365,-0.54321289062,-0.13623046875,0.010825188549698491,0.10352263841402762,0.4405883789016999,0.10083007812,0.68225097656,0.023158904127389086,0.15141768419215504,0.850513916012,0.6005859375,1.20434570312,0.02814113253753963,0.16691231593913083,1.0154017938447,0.78632252933,1.32602102014,0.02274593253584735,0.15006156473424126,969.1845183928784,969.07239217373,969.62777471657,0.020564221751038635,0.5553825428399932,0.14268349425749374,-0.0016308079345934104,4.5431161250790915,0.76,0.24,2.300710749383676,Stairs down
-0.8731665039016999,-1.22766113281,-0.19006347656,0.08826062293342925,0.29559772783987187,0.3131494140594,0.04382324218,0.60900878906,0.02047593632145215,0.14237688351076389,0.3342089843715,0.11169433593,0.91088867187,0.07676159273507226,0.2756700506179834,1.0656599538099,0.84016804311,1.39532224944,0.020393916781187755,0.14209144102786725,969.1578323562803,969.12081787182,969.20025508879,0.0003007705056162454,0.07943721696994999,0.017255804836636364,-5.3410427117511185e-05,1.2104429469794367,0.68,0.32,1.0510615160704586,Stairs down
-1.1172595214806,-1.36791992187,-0.89721679687,0.014705848541879646,0.12065981127310306,0.22302856445010005,-0.01098632812,0.48254394531,0.022687391011073817,0.14986833254881793,0.1654589843719,0.08972167968,0.26342773437,0.002059276152167331,0.04515178169957037,1.1609975253912,0.90279727949,1.41293874104,0.016696960598696454,0.1285690125679959,969.1555736299513,969.1512257004,969.16181019931,7.004263306283265e-06,0.010584498910020557,0.0026332908447834684,-1.891366548391171e-05,-0.35904631047724456,0.57,0.43,0.34587548654378514,Stairs down
-1.1692590331997998,-1.49621582031,-0.81665039062,0.03711097446792357,0.19167645844819947,0.1763024902312,-0.0234375,0.42553710937,0.01912791616221282,0.1376104538201611,0.21943603515340002,0.10729980468,0.3759765625,0.005391432414190442,0.07305831978665084,1.2123410796375997,0.82654417951,1.55048908585,0.03802480276896919,0.19402204704950285,969.1564078285887,969.14389560785,969.16442958649,2.733080854448618e-05,0.020533978639946326,0.005201682464264935,-3.208566992318317e-05,0.36920772093329735,0.44,0.56,-0.8239405005965159,Stairs down
-1.0810388183561002,-1.56372070312,-0.73449707031,0.046305065099183605,0.2141074834007251,0.20006347656069998,-0.18505859375,0.55090332031,0.04447540601035991,0.2098348206334123,0.29214843749589997,0.103515625,0.54235839843,0.012373519690171983,0.1106787445414442,1.1624709303032,0.8290829516,1.65626247869,0.04525739198892807,0.2116714861974536,969.1855311499598,969.15149719232,969.22911560074,0.0005219055368944713,0.07761840841999401,0.022730738692913754,0.0007710141490174213,-1.2504444574516034,0.57,0.43,0.22192174256114602,Stairs down
-1.1230273437455,-1.6337890625,-0.64392089843,0.07679588647849438,0.2757316224405707,0.1449926757789,-0.10400390625,0.37609863281,0.01950146802099204,0.138947664034996,0.22650634765269995,0.07275390625,0.38745117187,0.007302597742953142,0.08502688848548799,1.1656437267939002,0.65623767023,1.66906829345,0.07813845582141292,0.2781313920851057,969.2431155540825,969.22911560074,969.28056462904,0.00010681007117411282,0.051449028299998645,0.010283091483711097,0.0002900827643992806,3.0813279124277813,0.69,0.31,1.525195686269844,Stairs down
-1.1092431640587,-1.63073730468,-0.64636230468,0.07783202621659664,0.2775854930547176,0.2156652832014,-0.11755371093,0.67895507812,0.03735285180135436,0.19230008654012826,0.15132568359020002,-0.0107421875,0.400390625,0.016283712067851806,0.12696800757345642,1.1610594781328,0.65275536759,1.68254967729,0.08275370336230682,0.28622747305016644,969.3125737668424,969.27658947918,969.46010056608,0.0012808969091607763,0.18351108690001183,0.03561022240971219,0.0008685529604862292,8.97480489211492,0.45,0.55,2.6485543089546226,Stairs down
-1.0512646484344002,-2.26867675781,-0.275390625,0.2538435103679807,0.5013033764740678,0.2044958496078,-0.30627441406,0.83837890625,0.06271188212497462,0.24916814263409534,0.16572753906219997,-0.701171875,1.548828125,0.35945834520742426,0.5965431767737772,1.2443524577758,0.56244581014,2.74420026938,0.29826473929966857,0.5433986491579381,969.3911430054379,969.32197267602,969.43605435154,0.0008096420643266472,0.1140816755199694,0.028311581440876463,0.0007470820422822255,-0.2048477979585579,0.45,0.55,-0.501408986285513,Stairs down
-1.1510192871058,-1.40148925781,-0.90734863281,0.01977142100836839,0.13990606419410384,0.131697998044,-0.07690429687,0.36120605468,0.016604877376808318,0.12821399534777878,0.21151367187169995,-0.04760742187,0.35766601562,0.010915942890102177,0.10395568027386072,1.1880749737204999,0.90900807958,1.46554395089,0.022449465704017225,0.1490804180534018,969.4929632832493,969.4158819428,969.54416222769,0.0012564939279070338,0.12828028489002463,0.03526937749135875,0.001207614399400931,-1.1269186693254931,0.53,0.47,-0.27265907417096974,Stairs down
-1.0508654785126001,-1.43579101562,-0.8916015625,0.015675215015000923,0.12457312256201541,0.08274780273219999,-0.2578125,0.34436035156,0.02320583771372358,0.15157103726169568,0.1538842773398,0.03137207031,0.24401855468,0.0036945682522325518,0.06047828180190163,1.0781795222947,0.92734161897,1.45668409164,0.014671319263593541,0.1205180736278074,969.5661945999807,969.54416222769,969.5778688617,7.742421871739041e-05,0.03370663401005913,0.008754997231879431,0.00028766914137661945,-0.5689962109399427,0.45,0.55,-0.5737049769333094,Stairs down
-1.0173181152294,-1.58386230468,-0.6533203125,0.08761376704076124,0.2945125283758802,0.1262707519506,-0.2578125,0.35693359375,0.015827356292057847,0.12517620672131452,0.13733398437240002,-0.03588867187,0.39367675781,0.014746693023501544,0.12082725724465704,1.0479934563039002,0.6621284257,1.62517657604,0.08935022967116212,0.2974167570505241,969.5922035065348,969.57069519484,969.61096534111,0.00016860778105662425,0.040270146270017904,0.01291981823579798,0.00041592929829466723,-1.3081099473723212,0.49,0.51,-0.013578709411234692,Stairs down
-1.4255639648402,-2.06237792968,-0.67004394531,0.1759218909463521,0.41732801491978533,0.1705297851546,-0.14050292968,0.56237792968,0.04655663713518231,0.2146883107293699,0.3380688476527,0.03918457031,0.58312988281,0.03117616592637766,0.17568268061227288,1.5008369874363998,0.68377825835,2.1083366028,0.17596975296977815,0.4173847810355336,969.6322566201098,969.60686401179,969.67784929691,0.00022314779746964437,0.07098528512005942,0.01486325400088917,7.654532268976182e-06,4.302887489397618,0.72,0.28,2.124335890447727,Stairs down
-1.2427233886677,-1.94580078125,-0.59265136718,0.16974957750849223,0.4099415589244488,0.2309875488266,-0.0986328125,0.48754882812,0.04317224909942514,0.20673782094341348,0.3013000488238,0.025390625,0.54528808593,0.022239943759068993,0.14838309985129136,1.3242545122907998,0.59761114511,2.01782530076,0.16935204769436776,0.409461264611714,969.6170512277122,969.60288717251,969.6335036658,6.391921399016631e-05,0.030616493290040125,0.00795487409392912,-0.00014240161786200782,-0.5499975032018973,0.47,0.53,-0.1177503619331347,Stairs down
-1.2966088867157999,-1.82836914062,-0.74694824218,0.11017301840614202,0.3302594256369992,0.19680297851419998,-0.16687011718,0.54113769531,0.04437706545491117,0.20960270704445128,0.3073937988232,0.15270996093,0.49475097656,0.009200073268460332,0.09543622234652695,1.3645002951229,0.76298454944,1.93836133792,0.11582683351961594,0.3386274725777868,969.6082736794486,969.59442195504,969.65268932443,0.00012718602314938668,0.05826736938990962,0.011221148021387687,0.000191220111395093,7.199129431807249,0.8,0.2,2.554608633151763,Stairs down
-0.5800109863255,-1.80688476562,0.10412597656,0.3350986080855598,0.5759753657967537,0.4834460449189,0.10559082031,0.92150878906,0.045156491794620106,0.21143539646112688,0.46870239257399987,0.07788085937,1.09497070312,0.09247348793093245,0.3025702448219638,1.0883547105544003,0.76276496051,1.84159597957,0.07404048621762144,0.2707398776601726,969.6169914183239,969.58106791475,969.66109928349,0.0006448811556651928,0.08003136874003758,0.025267218764805532,0.00020433754698041904,-0.8821989728892392,0.61,0.39,0.4569803966214103,Stairs down
-1.1369726562477,-1.59008789062,-0.626953125,0.05795519089482488,0.23953212516461467,0.1606018066375,-0.03002929687,0.40771484375,0.01806902204298511,0.1337472684676411,0.12839233398039998,-0.03723144531,0.30297851562,0.00653572434566829,0.08043859211977548,1.1652360564167998,0.6293921637,1.61320362412,0.05953901364508369,0.24278307912338712,969.6350625462163,969.62305022854,969.65132740739,5.2008855032788266e-05,0.028277178849975826,0.007175567328264741,0.00015145136411664293,0.3739512688193627,0.48,0.52,0.5898942517580877,Stairs down
-1.2316101074176,-1.74890136718,-0.88220214843,0.04884587555632198,0.2199031987051547,0.27839111327719995,-0.1787109375,0.80834960937,0.06362998220006844,0.2509854226405744,0.0670739746066,-0.24487304687,0.29443359375,0.013035165075585562,0.11359935486097493,1.2931371478431002,0.96647186981,1.78993958624,0.051430521399369766,0.22564621908061316,969.67464798049,969.63655910809,969.70437427343,0.0005546397382558047,0.06781516533999365,0.02343274078876064,0.0007768355604317297,-1.3949607774546144,0.45,0.55,-0.38474170064184754,Stairs down
-1.2142712402301001,-1.88488769531,-0.74108886718,0.10158353131669227,0.317124101896285,0.12070068359199997,-0.43212890625,0.51733398437,0.061405769374290146,0.24655975275893519,0.08524169921589998,-0.11413574218,0.28076171875,0.010308515995036942,0.10102193244581383,1.2527012367177996,0.75390990656,1.91394371909,0.09958979514985848,0.3139966515718916,969.7194661155696,969.69804585672,969.75439996906,0.0003396589431264365,0.056354112340045504,0.01833745766716783,0.0005915234376098345,-1.202644871046922,0.57,0.43,0.42470516056930757,Stairs down
-1.1484582519502,-1.6455078125,-0.740234375,0.0627137467886103,0.24917184696655478,0.06997314453049999,-0.61279296875,0.4296875,0.07072068391896598,0.26460059916745526,0.10279174804380001,-0.068359375,0.27124023437,0.006297929495952791,0.07896170084916651,1.1870272726649,0.77605547135,1.64570552645,0.06436366812280159,0.2524282698937929,969.8009635536105,969.75439996906,969.83975276103,0.0007451004879917524,0.08535279196996726,0.027159703295725358,0.0009251946730430622,-1.4707803171551939,0.53,0.47,0.02864363161380628,Stairs down
-1.2356030273404,-1.67956542968,-0.60827636718,0.08345186343608202,0.2874323308219192,0.2287731933565,0.01916503906,0.39660644531,0.014005736237609753,0.11775261727551391,0.0585278320279,-0.01086425781,0.18981933593,0.002006317455204604,0.044567412765972376,1.2613290117603,0.61973830535,1.72656610324,0.09090497408220109,0.2999932071587273,969.8792349463489,969.83975276103,969.92104351623,0.00043502044818879954,0.08129075520002971,0.020752596071501792,0.0006858325995855608,-0.6361157465210967,0.61,0.39,-0.014400344479449757,Stairs down
-1.183826904294,-1.82397460937,-0.81750488281,0.0627768602919251,0.24929719550970855,0.15611572265339999,-0.10400390625,0.45886230468,0.0317548710584007,0.1773057312886887,0.13015624999580003,-0.18518066406,0.47985839843,0.021230761787642244,0.1449774264144795,1.2232944760281002,0.84532183361,1.83268780523,0.06152969770406928,0.24680842920578824,969.9597066929002,969.92104351623,969.98788660636,0.0003274179980401322,0.06684309012996437,0.018003994502879934,0.0005732431932961748,-0.43407987723029695,0.45,0.55,-0.6529338684331697,Stairs down
-1.2602368164032998,-2.06921386718,-0.55285644531,0.17127463161936865,0.4117789277065729,0.17213134765570004,-0.21459960937,0.85144042968,0.08245158360902725,0.2857045112925888,0.15362792968520003,-0.17517089843,0.634765625,0.0361612904184883,0.1892080270873924,1.321535059588,0.55355932457,2.15468288224,0.18379928475943888,0.4265692111625551,969.9976977099425,969.96354724553,970.03132475918,0.0005522067493609192,0.06777751365007134,0.023381289140406908,0.00037434828851637744,-1.607519051407006,0.53,0.47,0.12773956211532483,Stairs down
-1.0093359374963997,-1.03588867187,-0.98974609375,0.00018392562866381785,0.013493938356802274,0.13258789062120002,0.11389160156,0.15173339843,7.466918289030639e-05,0.00859781897119283,0.0640039062468,0.04211425781,0.08679199218,0.00016847610470974988,0.01291477230394142,1.0201359942891997,1.00174028244,1.0501131465,0.00018225943328835015,0.013432678026196663,970.0403820077695,970.03465757162,970.04360348112,6.684102178295352e-06,0.008945909500084781,0.0025724037701170474,6.982009594423559e-06,-0.6593399686598698,0.44,0.56,-0.717782382267731,Lift up
-1.0363916015588002,-1.06420898437,-0.98803710937,0.0005580539896330847,0.023504753768902875,0.153867187496,0.11169433593,0.205078125,0.0007044475728880653,0.026408390658258306,0.10116699218320001,0.06958007812,0.1337890625,0.00047357308746931415,0.021652652414764825,1.0532617579831998,1.01270200751,1.07930412635,0.0003796025772079029,0.019385730613928995,970.0041171744765,969.9383137049,970.04147811323,0.001046552077465782,0.10316440833003071,0.032188298443551255,-0.0010772397049012526,-0.8114720422190618,0.43,0.57,-0.636680879813958,Lift up
-0.9882226562468,-1.03283691406,-0.93676757812,0.00030413796204209183,0.01735213480876837,0.18755371093360002,0.05310058593,0.23803710937,0.00239028843961653,0.04864550909611662,0.06263671874599999,0.00854492187,0.10876464843,0.0005369250461101198,0.023055493827914823,1.009152513256,0.94305324918,1.0541580708,0.0004990043031630325,0.022226431565399836,969.82343504387,969.72210140743,969.9383137049,0.003996660200436287,0.2162122974699514,0.06290225431915715,-0.0021714759459451134,-1.2376516083335083,0.51,0.49,-0.03761895563084806,Lift up
-0.8291259765595999,-1.04455566406,-0.67749023437,0.014129786780420456,0.11827294243662094,0.49322753905919997,0.08410644531,0.71447753906,0.03553089483806111,0.18755155528462167,0.1284179687468,0.00720214843,0.25256347656,0.002770516607624067,0.05237185734292633,0.9970025547352,0.84829764996,1.11789533559,0.0051588455412210805,0.07146507598686837,969.641274247587,969.5976145252,969.72210140743,0.0012662867286108732,0.12448688223003046,0.03540655110745417,-0.001180821177782921,-1.0416866749323932,0.59,0.41,0.5636410867732156,Lift up
-0.9356542968703999,-1.00952148437,-0.67810058593,0.010196715075670784,0.10047262276318895,0.33260253905839987,0.17761230468,0.62622070312,0.0201649216933268,0.14129144516351133,0.15982421874759997,-0.00805664062,0.236328125,0.00602471168581249,0.07722994606339154,1.0222588688003997,0.92156357273,1.10890934802,0.0026530134021771866,0.051249227000564744,969.5942659630833,969.58931265129,969.60100325592,8.596530578889315e-06,0.011690604629961854,0.0029172873141157045,4.161288486716886e-06,0.1797000904191175,0.55,0.45,0.6215326647268363,Lift up
-0.8050390624964001,-1.07165527343,0.09118652343,0.1280764610104787,0.35608383338811367,0.3424511718711999,0.10168457031,0.79187011718,0.06222904075243466,0.2482070715046417,0.16750488280839995,-0.09741210937,0.52575683593,0.023753804389635445,0.15335014295963043,0.9837669895143999,0.42895002367,1.24716940107,0.03791899642268661,0.19375191988328722,969.6001206126302,969.58632070969,969.60510992788,2.4371527734665837e-05,0.01878921819002244,0.00491200696837038,-0.00010045450773873919,0.4951396289268861,0.32,0.68,-1.2290874027913403,Lift down
-0.4785791015615999,-1.57153320312,0.12573242187,0.3715998995388005,0.6065343358322037,0.6312158203079998,0.10131835937,1.37561035156,0.12478783626775056,0.35148251436603933,0.22559570312120003,-0.09741210937,0.40246582031,0.007771790533153041,0.08771586303412576,1.0472460036388003,0.42895002367,1.66014749412,0.08157427117708961,0.2841804505333164,969.6012238107828,969.56417328843,969.67757733967,0.0013273178778935926,0.11340405124008157,0.03624975446971547,0.001093876314146643,-0.4945388592091007,0.64,0.36,0.8884929471789375,Lift down
-1.0020947265584,-1.14440917968,-0.90100097656,0.0031942414273854166,0.05623432237621044,0.22603027343360005,0.10864257812,0.42565917968,0.007400999021040974,0.08559783309658349,0.16461914062040006,0.06762695312,0.29443359375,0.0035663169803719016,0.05941930503269272,1.0442084634804,0.91746427593,1.23701121305,0.006092539003182805,0.07766346382405936,969.7988093722521,969.69111372987,969.89945561633,0.004045266531847612,0.208341886459948,0.06328359871664328,0.0021827018424510516,-1.1306782541787093,0.48,0.52,-0.07911990983223408,Lift down
-0.8856787109335997,-1.01123046875,-0.65625,0.019711902791660865,0.13969532477411067,-0.0134863281252,-0.44580078125,0.20056152343,0.05552282251378661,0.23445168860268153,0.3756152343703999,0.12292480468,0.69897460937,0.04437390298584041,0.2095952383905274,1.0206869862627999,0.86562175991,1.1258433479,0.0023293761830777784,0.04802168698876583,970.0290347118868,969.91396486374,970.19913806318,0.006666609983669946,0.28517319944000974,0.0812400386744938,0.0022721836116870553,-0.4940540836978413,0.56,0.44,0.5826906453507725,Lift down
-0.8487695312468,-0.97741699218,-0.69006347656,0.00987888986425162,0.09889439299378457,-0.04131835937440002,-0.36975097656,0.33374023437,0.06346049949220514,0.25065094154477674,0.4714257812455999,0.18127441406,0.59289550781,0.0178111899021809,0.13278960050831953,1.0167334334091997,0.96812859724,1.09132201594,0.0008599899708578948,0.029178589259066582,970.2057530568821,970.0758267362,970.34381559907,0.005909402707165894,0.26798886286997003,0.07648731058217588,0.0026333358274705817,-1.0740836936171114,0.56,0.44,0.022647815079950038,Lift down
-0.9523535156207998,-1.126953125,-0.79089355468,0.005774018403425751,0.07560607263567849,0.3702392578092,0.27844238281,0.59729003906,0.007086233659194682,0.08375781350180254,0.1637499999968,-0.04345703125,0.2841796875,0.008471823798149316,0.09158114194618792,1.0416322542607999,0.88710387516,1.27619248167,0.00705999113481018,0.08360257904791023,970.445442217055,970.34381559907,970.53849395904,0.0034401527458771146,0.19467835996999838,0.05835881440209648,0.001987673662166781,-1.2557761768274254,0.52,0.48,-0.036444214886258965,Lift down
-1.0017919921836,-1.09252929687,-0.87744140625,0.001929040773931786,0.043700690683242845,0.21898925780840003,0.09204101562,0.29528808593,0.0022009279751410184,0.04667888918333007,0.19118164062200002,0.041015625,0.31506347656,0.00344164405193465,0.05837146230321203,1.0459587086543998,0.95075914017,1.12860156768,0.0015759462787988162,0.039499200194571385,970.5884844784139,970.53849395904,970.60972637594,0.0003971909695064439,0.0712324168999885,0.01982975188476597,0.0006277178637452151,-0.07632276980853447,0.36,0.64,-1.0320646294010276,Lift down
-0.9950927734331998,-1.21691894531,-0.95935058593,0.003993471463571441,0.06287715601818936,0.30770019530840004,0.22607421875,0.923828125,0.028322425418667606,0.16744910021998008,0.18172363280920004,0.09716796875,0.38256835937,0.0021947438306921373,0.046613264124980736,1.0658329670164,1.00775537402,1.47356751375,0.016240542809448172,0.12679959535169538,970.616934401033,970.60972637594,970.6320412579,3.0285431987644145e-05,0.022314881960028288,0.005475634910014336,0.0001584467656436729,0.9349212975078447,0.56,0.44,1.10231328223231,Lift down
-0.32809570312039993,-0.69372558593,-0.11962890625,0.03121519122414708,0.1757926031205682,0.42768066405880006,0.30249023437,0.61572265625,0.005424996915530494,0.07328538016804709,0.8277197265595998,0.57250976562,0.95434570312,0.006242739696685601,0.078614962314554,1.0086158437836001,0.95726711714,1.06835049027,0.0008340048282968714,0.02873438323705422,970.6386424171028,970.5457960256,970.76391258059,0.002456999665044572,0.218116554990047,0.049319668169951494,-0.0013250022909002072,0.3676427817559671,0.52,0.48,0.5252517593591369,Lift up
-0.48006835937200004,-1.00500488281,-0.22021484375,0.053087353128332494,0.22925200020294081,0.8013037109332,0.466796875,0.8955078125,0.009300215701855866,0.09595422630002969,0.4082958984343999,-0.01098632812,0.73828125,0.042674364803012906,0.20554226123837108,1.0661007310588,0.96172730622,1.354253576,0.006767023269161864,0.08184957566457046,970.5692823902683,970.49948072536,970.63503816036,0.0016824750204393031,0.13555743500000972,0.040812378884780905,-0.0009589561622428293,-1.0608347494249872,0.52,0.48,0.14523668284112198,Lift up
-0.7754492187463998,-1.0771484375,-0.50769042968,0.031752910421350644,0.1773002575213503,0.6022363281224,0.12353515625,1.11022949218,0.0854459797731352,0.2908462136171001,0.1987011718732,-0.08532714843,0.47192382812,0.03057775145753613,0.17398843048593998,1.0664498118572,0.83211382603,1.32420278781,0.012601934842539984,0.11169563775776825,970.4211360445812,970.28666065117,970.52551950783,0.003110698695723304,0.2388588566600447,0.05549406913144927,-0.0008251401574483598,0.011089934751995933,0.56,0.44,-0.23549206217013915,Lift up
-0.5372363281223999,-0.56115722656,-0.50756835937,0.0003450669182654435,0.01848286366023374,0.83668457031,0.78674316406,0.91162109375,0.0016249566607891169,0.04010869100558164,0.0491650390604,0.005859375,0.08740234375,0.0004915219124115904,0.022059163476602518,0.9964710263167998,0.96871772066,1.04502135899,0.0005692598601754938,0.023739571638379215,970.1700352015728,970.1034754502,970.28666065117,0.002953617844438692,0.18318520097000146,0.05407477846458832,-0.001803462156993249,-0.5386907403654861,0.6,0.4,0.7216105103338789,Lift up
-0.5640624999959999,-0.57653808593,-0.54846191406,7.555821929556798e-05,0.008648851779433631,0.827636718746,0.80065917968,0.85119628906,0.00025254066545997086,0.015811870819272815,0.08339355468400003,0.07299804687,0.09375,2.950451590866182e-05,0.005404578683817565,1.0050693872315997,0.97694292669,1.03103579117,0.00029604171597559856,0.0171196173676821,970.0701180651417,970.05617274829,970.08895203912,7.800181304671857e-05,0.03277929083003528,0.00878759323798339,-0.00028249085885745904,-0.28750371931479357,0.6,0.4,0.806606615961986,Lift up
-0.5585546874979,-0.57470703125,-0.53942871093,8.744328915105105e-05,0.00930423861793863,0.8488964843708999,0.82824707031,0.87036132812,0.00014950431957504883,0.012165906311463127,0.08297241210680002,0.06640625,0.09704589843,6.45847317364749e-05,0.007996179363865605,1.0196661721393,1.00102382641,1.02990274856,6.758164708019013e-05,0.008179598438150141,970.0579483841917,970.04751897294,970.06703341593,3.601380338926845e-05,0.01951444299004379,0.005971069029526938,-0.00014878309995693177,-0.9398613428874212,0.6,0.4,-0.1669994928122903,Lift up
-0.5615332031224,-0.59912109375,-0.54248046875,0.000231528426671946,0.015139786735790783,0.8553857421832,0.82897949218,0.87487792968,0.00013026170057296006,0.011356015303231607,0.07430664062119999,-0.02478027343,0.10217285156,0.0008102469009582977,0.028322154436919426,1.0264630885711998,1.01141972338,1.04494290197,6.022973476996319e-05,0.007721880433046316,970.0530932833254,970.04535731791,970.0632252177,2.8069385183010215e-05,0.01786789979007608,0.005271498015856604,2.7659561877645415e-06,-1.0567091125275352,0.4,0.6,0.16641888060643498,Lift up
-1.2331640624956,-2.42053222656,-0.68005371093,0.1931923060945037,0.4373332631227113,0.36815429687359985,-0.12829589843,1.24499511718,0.1290419413813471,0.35742344910138957,0.2725146484344,0.03186035156,0.60034179687,0.030424031440890804,0.17355054343470636,1.3606053587923999,0.69437986682,2.55218956817,0.23068704919668323,0.47789138797923153,970.0814130001081,970.029191958,970.1263166738,0.000697603494339788,0.09712471580007787,0.026279791844616845,0.0008828301028441941,-1.0350580826191937,0.48,0.52,-0.12150049920164036,Stairs down
-1.2005664062455998,-1.86303710937,-0.59729003906,0.11940013697622792,0.3438111917993154,0.2343566894507,-0.11047363281,0.59814453125,0.043941131858077916,0.2085706607830956,0.2683752441374,-0.02624511718,0.85888671875,0.06656747317495944,0.25671345590601563,1.2917285659446003,0.59867897291,2.02389973254,0.13800564558094147,0.36962898848051956,970.1498776211807,970.1263166738,970.19619186299,0.00047434773421881,0.06987518918992919,0.021670354332050546,0.0006914461766077415,-0.5059023881619771,0.6,0.4,0.8326916378885529,Stairs down
-1.3014538574181997,-1.75317382812,-0.82409667968,0.08313533558304426,0.2868867062573897,0.2281213378887,-0.64135742187,1.22094726562,0.20957995871315194,0.4555042910072532,0.26289916991949996,-0.2275390625,0.63488769531,0.04968930827648972,0.22179363199543134,1.4369222203088003,0.9309389763,1.90487133653,0.09007328349428932,0.2986177333303339,970.2364640978126,970.1904187169,970.28091982014,0.000960623809862648,0.09050110323994431,0.030838572790646807,0.0010066770564993686,-1.4302821038237226,0.52,0.48,0.02723259594220599,Stairs down
-0.5319189453093,-1.32336425781,0.08581542968,0.12188124610846408,0.34736498621389494,0.9716723632768998,0.29040527343,1.64343261718,0.09876780552741138,0.3126981411395617,0.03197631835829999,-0.73352050781,0.57800292968,0.13486337522320846,0.3653966905583251,1.2255132383043998,0.694319305,1.76715826032,0.07897175374207947,0.27961050803690957,970.3974536492658,970.18095138531,971.15092191472,0.05542087407013608,0.969970529410034,0.23423634502236138,0.002291017596344404,5.645367401997678,0.8,0.2,2.576144332649842,Stairs down
-0.9649560546834999,-1.37878417968,-0.54174804687,0.0673550348331291,0.25822758273429625,0.5709399414018,0.18420410156,0.98645019531,0.046431523085715125,0.21439964518361027,-0.05410156249980002,-0.498046875,0.09460449218,0.01933582744162049,0.13835631235041024,1.1433490782891,0.65411800387,1.64507215488,0.08543801000653656,0.2908326493130907,970.3657193623204,970.1942116617,970.45861174841,0.007976849946077651,0.2644000867099976,0.08886552451100975,0.002928377128876136,-0.9539569678945692,0.44,0.56,-0.6625293677568003,Stairs down
-0.6265014648409,-2.05969238281,0.01513671875,0.3167545998636223,0.5599884408315818,0.5684106445264999,0.04870605468,1.00268554687,0.054975815246948626,0.23329392854182712,0.2585534667933,-0.0546875,0.72473144531,0.06401886851328323,0.2517512260707987,1.0304643993252998,0.47440811096,2.10892104103,0.15351470097216272,0.38984555142061206,970.518661056016,970.39287307825,970.66250315217,0.005369672303230099,0.26963007391998417,0.07291073707073464,-0.0005193598229810753,-0.4835590676599151,0.6,0.4,0.681056655675455,Stairs down
-1.2950683593714,-2.24499511718,-0.52770996093,0.1950037130205519,0.439378738550634,0.1293798828099,-0.07690429687,0.39892578125,0.013567194577141343,0.11589444607646188,0.09796142577990001,-0.20104980468,0.35266113281,0.023161168501182956,0.151425086482297,1.3211070597583001,0.54665319849,2.24699273072,0.18952378025515873,0.4331611045010934,970.5525330773916,970.50685591875,970.59157783265,0.0007466734645854289,0.08472191390001171,0.027188356514132563,-0.000835508148778046,-1.5286735520434243,0.48,0.52,-0.19545096391257039,Stairs up
-1.1124682617154,-1.72973632812,-0.59753417968,0.1322249259068498,0.36180474934387097,0.10629516601390002,-0.10510253906,0.62805175781,0.03459037941282016,0.18505262932120678,0.22216796874709996,-0.22412109375,0.71337890625,0.05591026038759503,0.23526826769396478,1.1756458656917002,0.66962403997,1.7928966142,0.13797778839397792,0.36959168079116467,970.4772017180962,970.45426782199,970.50715804625,0.00031904185981333386,0.052890224259954266,0.017772209801124917,-0.0004874613198039944,-1.080202115900947,0.68,0.32,0.7615373459277167,Stairs up
-1.1490283203088998,-1.75012207031,-0.49487304687,0.10605710947118868,0.3240316934753093,0.1222509765618,-0.13293457031,0.41003417968,0.026479882566714963,0.16191072768982237,0.21749877929289999,0.08569335937,0.33044433593,0.007234225783400122,0.08462791221320612,1.1890453201253002,0.5076705881,1.78409089701,0.10814326612886625,0.3272030462382305,970.3986400326816,970.34735628755,970.45426782199,0.0010346648951048071,0.10691153443997337,0.03200497220985763,-0.0010960956397108566,-1.2214903123246768,0.48,0.52,-0.06933151085945453,Stairs up
-1.3893041992143,-2.00134277343,-0.880859375,0.11687345467990232,0.340153965334969,0.09746704101420002,-0.18872070312,0.34729003906,0.027708456182469702,0.16562418790939024,0.35320922851179987,0.12951660156,0.56823730468,0.013713886790487326,0.11651930278963418,1.4496672159261994,0.92216286771,2.08078175495,0.12080863019310602,0.34583311566588726,970.3012469694129,970.25001398954,970.34584607963,0.0007435082260618211,0.09583209008997073,0.02713066795715142,-0.0009216928256006448,-1.1308528146699528,0.57,0.43,0.12156020311918894,Stairs up
-1.2495983886689999,-1.58923339843,-0.91284179687,0.03683762848209099,0.19096924411346997,0.14468749999790004,-0.08776855468,0.43103027343,0.022853696610261133,0.15041662023911626,0.2685986328088,-0.12634277343,0.47924804687,0.02493386543124894,0.15711310186275507,1.3036763812902998,0.94403334841,1.65772531587,0.039174406716840866,0.19693314258822067,970.21513223774,970.16845749345,970.25001398954,0.000674103596835163,0.08155649609000193,0.025833361393105842,-0.0008608663248718187,-1.5084512519690314,0.57,0.43,-0.010581242449592023,Stairs up
-1.0258190917932,-1.42736816406,-0.61437988281,0.056504801215277754,0.23651586247675857,0.075782470701,-0.08728027343,0.2294921875,0.005897925265547749,0.07641299636117059,0.20820312499750002,-0.00463867187,0.52600097656,0.02479730531411295,0.15668226530457052,1.0627739463669001,0.66463461521,1.46578373567,0.05882414506216847,0.24132116279254662,970.1476762591135,970.12478765216,970.21631226535,0.00044037965027216475,0.09152461319001759,0.020880034812457645,-0.0004931304588764326,2.0998998399113606,0.57,0.43,1.3424416393439602,Stairs up
-1.0946154785124,-1.45227050781,-0.62109375,0.05516036113517248,0.2336851675306346,0.07669677734129998,-0.16760253906,0.37353515625,0.01521779355952958,0.12274206949507689,0.26415161132439996,0.02551269531,0.49243164062,0.016760821973017665,0.12881464883035426,1.1398459174568,0.63506662128,1.51991360323,0.06147513795518996,0.246698979680983,970.0926954955631,970.0455351236,970.13637096799,0.0006529655693699393,0.09083584439008519,0.02542510400521972,-0.0008655299517012553,-1.1713673718484736,0.41,0.59,-0.13303195692858083,Stairs up
-1.0451171874967,-1.58923339843,-0.63134765625,0.054724772168675856,0.23276065914795202,0.1577856445272,-0.06860351562,0.37145996093,0.009601632506897707,0.0974967495962236,0.22721923827799997,-0.09118652343,0.53430175781,0.02604502041485909,0.16057574602258742,1.0954276003279002,0.65969844044,1.6859755783,0.05888980883028663,0.24145581529957766,970.0218689360408,970.00163633885,970.05112050982,0.00022993434757134776,0.049484170970004016,0.015087577807442593,-0.0004614033687017497,-1.024855105598243,0.57,0.43,0.6534684165646785,Stairs up
-1.0921691894488001,-1.36096191406,-0.89392089843,0.013804111027921144,0.11690196712477482,0.18562499999710003,-0.05834960937,0.42224121093,0.02513168602224713,0.1577351234253952,0.1358825683577,-0.28454589843,0.31481933593,0.03377059474460727,0.18284662643090027,1.1408534369483996,0.9387394262,1.42869935516,0.016350519867559858,0.127228199189033,970.0029079896933,969.99590936944,970.01035019549,1.708550700052909e-05,0.014440826049963107,0.004112742628772654,-5.985588832207551e-05,-0.6283314007695462,0.37,0.63,-0.17098164416192557,Stairs up
-1.1745507812459999,-1.59594726562,-0.8662109375,0.037417947547293884,0.1924675766767508,0.2155065917936,-0.16088867187,0.57434082031,0.037487654147896475,0.19264676900072192,0.1593225097625,-0.23901367187,0.35375976562,0.015271809984135114,0.12295971651030171,1.2259114904991,0.90519185609,1.65049521662,0.03819489492477072,0.19445551155861593,970.0015014507267,969.9938220623,970.01158162434,1.727562181307062e-05,0.017759562040055243,0.004135561097957557,-1.568280576761206e-05,0.341807117186927,0.56,0.44,0.33567621745711723,Stairs up
-1.1308959960894,-1.44763183593,-0.92553710937,0.017854694615937597,0.13295167418945208,0.2506872558555,-0.21716308593,0.47741699218,0.02483982800649719,0.15681654799934927,0.1947314453081,-0.23937988281,0.46740722656,0.02847933682485905,0.16791230882996774,1.1957664768789003,1.00371585331,1.52033619778,0.020499842058332413,0.1424599720544304,970.0016716079776,969.98824544278,970.04828429652,0.00019627188835733383,0.06003885374002493,0.013939482396192495,0.00015631029643777954,2.7044060550096534,0.76,0.24,1.7027042378486652,Stairs up
-0.5059179687466999,-0.95593261718,-0.01281738281,0.04357924319260312,0.20771001603359693,0.4529248046856999,-0.29724121093,0.9130859375,0.15656708693024518,0.39370219209567875,-0.5733557128867,-0.76391601562,-0.23937988281,0.01634102164349392,0.12719123958456802,0.9904412095478,0.61461687131,1.21483046594,0.023413466645105914,0.15224760089622053,969.9954243066501,969.91157656101,970.05110055459,0.0011164695332334185,0.13952399358004186,0.03324612515619052,-0.00017883919858345177,-0.26541626122503104,0.61,0.39,-0.11216137169171349,Stairs up
-1.1590905761687,-2.18872070312,-0.4951171875,0.32680956126866684,0.5688070548577787,0.4068359374974998,-0.05505371093,1.06848144531,0.1080897938124314,0.32712214213395446,-0.027478027345200006,-1.11828613281,0.53723144531,0.2628002315722231,0.5100708080810946,1.3967232577687005,0.64728082191,2.22169484562,0.2521699169492992,0.4996480939419325,969.9344625163935,969.91157656101,970.00634430341,0.0007098955989860167,0.09476774239999486,0.02651031201242559,-0.0004298284001474133,1.7372490326707482,0.72,0.28,1.678220309707917,Stairs up
-1.3652856445279,-1.71240234375,-0.95678710937,0.04379320420979345,0.20821928865428274,0.15785644531030002,-0.10375976562,0.42053222656,0.02311541899236433,0.1512754600139781,0.26793579101389997,-0.11828613281,0.5712890625,0.0452938505053419,0.21175672834714954,1.4246098639070994,1.06003383219,1.81324503236,0.04270739516577182,0.2056217916810232,969.9106275379698,969.87721840414,970.02714853622,0.0013959031724028266,0.14993013208004413,0.03717450928632143,-0.0008253856779952275,4.827139342983366,0.81,0.19,2.354676701780563,Stairs up
-1.2675793456989,-1.65515136718,-0.85534667968,0.06150704095263638,0.246762984548149,0.1776525878864,0.01489257812,0.43078613281,0.012307334143413293,0.11038233917606186,0.3108312988230001,0.02770996093,0.46557617187,0.013809774877678404,0.1169259472012163,1.3257705092387995,0.90132207127,1.72531769183,0.06466101137558156,0.2530106742053104,969.8444404529661,969.79885963608,969.87721840414,0.00045232500831406136,0.07835876805995667,0.02116132694872703,-0.0007132230464600108,-0.8648528173285639,0.41,0.59,-0.45319461054936677,Stairs up
-1.2172875976527002,-1.48779296875,-0.92834472656,0.032835880307634444,0.18029842346664626,0.1733520507772,-0.12133789062,0.34582519531,0.01593116783686026,0.1255860508117508,0.28977661132439997,0.01818847656,0.56018066406,0.015922060330367343,0.12555014825584107,1.2745300367432002,0.96444781283,1.5742476676,0.03578375374382265,0.1882177361631587,969.7764506660069,969.7361900956,969.80343944644,0.0003499600229630411,0.06724935084002936,0.018613447362952694,-0.0006151520029000669,-0.6702649565348127,0.41,0.59,-0.42016113374422365,Stairs up
-1.0964318847608998,-1.52416992187,-0.74963378906,0.04134555099435885,0.20231681957863826,0.02984130859370001,-0.38342285156,0.38916015625,0.04927019320865069,0.22085626836602168,0.16478515624860005,-0.21459960937,0.4091796875,0.04277993683764792,0.20579634950424033,1.1487410293754998,0.78017757242,1.59383367804,0.04309424343360731,0.20655096465345119,969.7033313926225,969.66513189141,969.7361900956,0.00041121039404451947,0.071058204189967,0.020176676884563382,-0.000690485153097375,-1.1349943395567472,0.53,0.47,0.053523491846591165,Stairs up
-1.0811132812476998,-1.37023925781,-0.85546875,0.02446551951500603,0.1556305378769089,0.074042968748,-0.16674804687,0.30029296875,0.019085244192397183,0.13745687232900802,0.09648437499900002,-0.16162109375,0.34802246093,0.025713211356917693,0.15954961373613075,1.1076206187270998,0.89175939259,1.41316116965,0.02560143738388509,0.15920245918341286,969.643495394828,969.62974274672,969.66513189141,4.304539011920439e-05,0.035389144690043395,0.006528011658844701,-0.00012859043536770056,2.062271375065463,0.61,0.39,0.6825312090836559,Stairs up
-1.1235839843716,-1.50891113281,-0.73693847656,0.056331232340713085,0.236152323760123,0.15404296874790002,-0.01062011718,0.55297851562,0.011308634425595796,0.10580901701338993,0.20274291991799998,-0.07434082031,0.69079589843,0.03504642743461265,0.18626852434124913,1.1678262318327,0.77585772226,1.67636794377,0.06577396084095406,0.2551788024749401,969.5921440015564,969.55034834183,969.62974274672,0.0003940072480480875,0.07939440488996752,0.01975011836844546,-0.0006688005599819329,-0.744315748441013,0.45,0.55,-0.05401862340091111,Stairs up
-1.0465954589812,-1.75427246093,-0.51391601562,0.09825802219439174,0.31189011201454886,0.0946752929665,-0.52282714843,0.66552734375,0.13084030487709983,0.35990540677840455,0.2605847167942,-0.09436035156,1.06774902343,0.10078282106113684,0.31587179812469085,1.2007537114601998,0.71716051985,1.86379848154,0.05757850661586474,0.23875242731688845,969.5484357723432,969.52399073008,969.5778437075,0.00024206784599013553,0.05385297742009243,0.015480541577420157,-0.0001527772104089652,-0.9607523986162723,0.57,0.43,-0.030069517494331535,Stairs up
-1.2985522460907,-1.75427246093,-0.96533203125,0.061750571721520896,0.24725101820681283,0.29299804687310005,-0.18139648437,0.67443847656,0.0624327668992929,0.24861303109511368,0.18140991210600002,0.00634765625,0.39782714843,0.011470823846308873,0.10656507686782657,1.3703735340796,0.99098494635,1.86379848154,0.061989237820642897,0.24772837028171898,969.5468826848056,969.53596135767,969.55647807147,3.411435572092851e-05,0.020516713800020625,0.005811472460893128,4.604819739461197e-05,-0.5727855229414929,0.59,0.41,-0.05023772472147027,Stairs up
-1.1800402831993,-1.71350097656,-0.85864257812,0.046857742316770756,0.2153814404576287,0.24946899413669998,-0.07275390625,0.54846191406,0.03448030695010611,0.18475796026316443,0.1425073242166,-0.1025390625,0.35168457031,0.01933386566007235,0.13834929346936192,1.2371045156516,0.89737678606,1.77032443242,0.04472302989423549,0.2104181541485742,969.5483433179465,969.53904030338,969.55754845406,3.915569103900567e-05,0.018508150679963364,0.00622608497601949,9.710108458984257e-05,-1.2290964769826087,0.52,0.48,0.22354598946194,Stairs up
-1.2276574707,-1.8125,-0.74670410156,0.10813126222545154,0.3271848859638798,0.23276611327760002,0.0185546875,0.47595214843,0.022491850750479186,0.14922108511525572,0.23829833984040005,0.07177734375,0.50354003906,0.014515838544884627,0.11987777174870987,1.2852891636188,0.78383752524,1.89934867216,0.1109377328416553,0.331403614212698,969.5472102342205,969.53790970476,969.56177022365,3.3716305725091185e-05,0.023860518890046478,0.005777468534560813,0.00014414319916208234,0.12911253294394998,0.55,0.45,0.5680264664881851,Stairs up
-1.2820361328088001,-1.78955078125,-0.77880859375,0.09501072533157479,0.3066930355881252,0.19512695312380005,-0.06896972656,0.4443359375,0.028524758984107678,0.1680461585227898,0.24106323241890004,-0.09875488281,0.52502441406,0.024323235043926843,0.15517732660890757,1.3395763928310003,0.80461435078,1.85883859302,0.09264431881139154,0.3028495924106183,969.5371062813865,969.50624189909,969.56177022365,0.00027236999236505326,0.055528324559986686,0.01642091021963773,-0.0005545103007653894,-1.1707229354884083,0.41,0.59,-0.2917024968046066,Stairs up
-1.1311645507783001,-1.71508789062,-0.66528320312,0.10070430735762452,0.31574873599754644,0.128853759764,-0.22204589843,0.43420410156,0.034616741342847625,0.18512313180534504,0.1994104003874,-0.02697753906,0.486328125,0.025643148282374656,0.15933209594915554,1.1814806311945,0.72611715142,1.77338707637,0.10036274065560738,0.3152128062897371,969.4849151892294,969.46439771863,969.50805723681,0.00017170391499104316,0.04365951817999303,0.013037901512173372,-0.00033959849319884595,-1.1069105236925243,0.61,0.39,0.43072753699868094,Stairs up
-1.1925988769496998,-1.65417480468,-0.78466796875,0.05503725218473721,0.23342424823246158,0.1458544921853,-0.05297851562,0.4033203125,0.017892459642740024,0.1330922050546636,0.20844726562219995,0.00964355468,0.45129394531,0.013709400639557806,0.11650024306052854,1.2311517578275002,0.82001511769,1.68983805245,0.05763024977289517,0.23885968114180808,969.4326533332204,969.38993811924,969.4690628073,0.0005988364106787204,0.07912468806000561,0.024348471134178696,-0.0008307362467431897,-1.2427659397839677,0.57,0.43,-0.13335965811651482,Stairs up
-1.2008837890585,-1.55200195312,-0.84655761718,0.04699291650713103,0.21569188056591215,0.1397741699197,-0.03918457031,0.43408203125,0.015465935509343057,0.12373874152523787,0.2492053222629,-0.01928710937,0.46594238281,0.01808340004397258,0.13380047101386772,1.2473456900177,0.88992122818,1.59923393492,0.04810863149388565,0.21823735972318486,969.3550585183334,969.30885595877,969.39201734252,0.0006335293614360895,0.08316138375005266,0.02504384291241519,-0.0008520542243790175,-1.452530694998286,0.53,0.47,0.012975067410956147,Stairs up
-1.2231506347618,-1.71142578125,-0.8828125,0.03673673439914463,0.1907075432570856,0.14382202148179998,-0.1865234375,0.427734375,0.021565106087812133,0.14611452709068326,0.27385375976160004,-0.0263671875,0.45483398437,0.01688415477188411,0.12928771490039287,1.2755837562689998,0.90462302635,1.77267664918,0.039493279765376886,0.1977330194168974,969.2760673867982,969.24794489611,969.31167805659,0.0004018612914074784,0.06373316048006927,0.019945994046259102,-0.0006784473847125809,-1.2398070183649013,0.49,0.51,0.20064767317033133,Stairs up
-1.1443969726524,-1.71142578125,-0.64135742187,0.08689708947545356,0.2933055038363566,0.09462402343589998,-0.13208007812,0.38232421875,0.01597651710375385,0.12576466885702164,0.21125610351260005,-0.12023925781,0.61071777343,0.026802129785224334,0.1628929356582786,1.1832210914543,0.65414332395,1.77267664918,0.0925192988253981,0.3026451814206598,969.2025102198407,969.16635692226,969.24928806713,0.0006266720064760041,0.08293114487003095,0.024907936213408848,-0.0008236686402880853,-1.0534513124558058,0.45,0.55,0.059505480010627505,Stairs up
-1.3051635742158998,-1.93444824218,-0.81030273437,0.10864900684726361,0.32796724955213286,0.1831591796851,-0.15747070312,0.47961425781,0.033838171043128584,0.18302947667711147,0.32215087890419997,-0.14233398437,0.83740234375,0.0795282552387315,0.2805939640946401,1.3914899457437002,0.87478976619,2.09372177033,0.12558731215232424,0.3526066349784147,969.138143037236,969.03602560415,969.25174906624,0.0033019179333936373,0.2157234620899544,0.05717428402752151,-0.001119033100449635,-0.27157574633983206,0.33,0.67,-0.5614243097688357,Stairs up
-1.2565673828083002,-1.98168945312,-0.80688476562,0.09802570668137932,0.3115211864617967,0.3079992675747001,-0.23461914062,0.81750488281,0.06654718176703904,0.25667432662689244,0.124739990234,-0.14270019531,0.68078613281,0.044366259963918415,0.20957718712750972,1.3409191707419006,0.8578076722,2.08143934027,0.09916235958911439,0.31332209624158847,969.1322829910757,969.10545608407,969.17184947206,0.0005014853370908514,0.06639338798993322,0.022281617619013726,0.0007229563157381428,-1.2774721641430646,0.47,0.53,0.4132853402722538,Stairs down
-0.9334814453086,-1.45861816406,-0.71228027343,0.03045628639192615,0.17364251647568027,0.2747497558564,0.00231933593,0.79406738281,0.054363102737124136,0.2319902405485043,2.197265670000004e-05,-0.12548828125,0.17907714843,0.009405070596999845,0.09649362616789695,1.0080903592271,0.72308487423,1.47535156872,0.024152606384137586,0.15463208050173874,969.1727102547369,969.16337348153,969.19320230161,5.0909643154027265e-05,0.02982882007995613,0.007099334245018119,0.0001718045780725496,2.592756607995118,0.67,0.33,1.708644437047302,Stairs down
-1.0867541503865998,-1.83703613281,-0.62438964843,0.13080914715767425,0.35986255110263626,0.19661499023120002,-0.044921875,0.38232421875,0.012417598521768512,0.11087570760338275,0.0949780273418,-0.08337402343,0.37805175781,0.015509605954880644,0.12391331605332753,1.1210760396139998,0.65971916446,1.88614860355,0.13035390400722716,0.35923580691121937,969.2255872519786,969.18744542555,969.27454527396,0.0006427797702554332,0.08709984841004825,0.025226017770406783,0.000837936895139357,-1.0591112202193806,0.47,0.53,0.0978912406951222,Stairs down
-0.5432458496072999,-1.72436523437,0.11743164062,0.2813308389047931,0.5277476011463673,0.7556896972616,0.24450683593,1.47827148437,0.14442191638588817,0.378123917812705,0.3311560058568999,-0.12634277343,0.65087890625,0.04127784451277322,0.20215109712204257,1.1430420526757,0.61749378282,1.81844139119,0.13299235505175908,0.36285318174330716,969.3723106795971,969.19124102123,969.57637212664,0.01551281492053474,0.3851311054099824,0.12392613433545563,0.00037026252262064695,-1.55283987221694,0.56,0.44,0.21019469958072662,Stairs down
-0.9944165039026999,-1.80847167968,-0.15307617187,0.20535810746921893,0.4508930320979985,0.36019042968379983,-0.0712890625,1.26635742187,0.1160465728392923,0.33894853165473277,0.2141296386684,-0.14477539062,0.59216308593,0.04322520842813663,0.2068645845567947,1.1781107811460998,0.55836901111,1.8567666022,0.13888021032800843,0.3707983390263882,969.3188129400136,969.0741537779,969.45200710108,0.012242671911845165,0.37785332317992015,0.11009198514300082,0.0032953039087387603,-0.16150081128930838,0.36,0.64,-0.9518136166803552,Stairs down
-1.1633435058563,-1.73046875,-0.59338378906,0.1239950915466881,0.35036429702699623,0.17714355468540005,-0.12707519531,0.51550292968,0.028216887218357724,0.16713682522464685,0.17515258788850002,-0.09411621093,0.51794433593,0.030717176130186968,0.17438464487702207,1.210664252131,0.59606284865,1.8236232823,0.13213970968133834,0.3616881427203896,969.4586193336883,969.41084735339,969.48875658769,0.00045533921280597046,0.07790923430002294,0.021231717327571755,0.0006301632310654364,-0.0852881086674353,0.35,0.65,-1.0000914234139424,Stairs down
-1.0729711914014999,-1.66003417968,-0.55590820312,0.12172530202497442,0.3471426925699642,0.18544433593419996,-0.12707519531,0.46813964843,0.022900956061760364,0.15057206414585264,0.0697814941389,-0.18115234375,0.36242675781,0.019077022079553328,0.13742726024613092,1.1086495250694997,0.64750749469,1.70520383932,0.12473607490623988,0.3514096102231376,969.5054414914287,969.47052623202,969.54165213847,0.0003811877715724537,0.07112590644999273,0.019426165186591234,0.0006187849632180432,-0.6700140899109939,0.51,0.49,-0.03417056902831832,Stairs down
-1.2714538574184002,-1.75561523437,-0.77844238281,0.08649308945676527,0.292622894801821,0.245332031247,-0.03576660156,0.51623535156,0.03399009449292189,0.18343989083073692,0.21521850585629998,-0.10083007812,0.36511230468,0.010055392455056544,0.09977393713042489,1.3289458125522,0.782036376,1.80729792829,0.08710903060960029,0.2936629706032142,969.5474700285074,969.53172961966,969.56918980766,8.114243932712465e-05,0.03746018799995454,0.008962757105592753,0.0002126736547779997,0.6717356717078813,0.55,0.45,0.6892929183131296,Stairs down
-1.1965014648404002,-1.62646484375,-0.87524414062,0.06566700568696703,0.2549712447122172,0.26042236327880003,-0.0966796875,0.54943847656,0.044309061819012015,0.20944204735635558,0.23255737304409999,0.06335449218,0.37939453125,0.005695739748237706,0.07509182612478757,1.266693251515,0.8818157105,1.68414761754,0.06416342441087758,0.25203529547817066,969.5535315813012,969.54597158983,969.56549540363,2.011358400403477e-05,0.019523813800105927,0.004462336626028389,5.599226337049853e-05,-0.777523278662895,0.44,0.56,0.04908893535231367,Stairs down
-1.470621337887,-2.3505859375,-0.90771484375,0.21273045830460396,0.45891519229761607,0.23540649413820008,-0.21252441406,0.61865234375,0.06058309336255664,0.24490255700774355,0.34208618163779986,0.16455078125,0.69494628906,0.025994823332643965,0.16042093098881308,1.5589990553717001,0.9429543931,2.431553011,0.2030338678743075,0.44833417134495157,969.5536349529855,969.53533543276,969.57191092451,0.00010256060450328553,0.036575491749999856,0.010076457634419582,-0.0001514232992128557,-0.806809031561968,0.53,0.47,0.20382609593677858,Stairs down
-1.6286828613239002,-2.58288574218,-0.58117675781,0.39226089404452424,0.6231679429367969,0.25847045898309995,-0.19714355468,0.72521972656,0.08966560131637219,0.2979411775891484,0.3749963378862,0.07116699218,0.74035644531,0.026609507912197298,0.16230653971136014,1.7331126625111,0.61781610998,2.68373778566,0.36344266328474,0.5998401759234644,969.5482629715231,969.53032553814,969.5770684147,0.000178465063507312,0.04674287655996068,0.01329211844937589,1.231790539682019e-05,-0.5502634614006223,0.48,0.52,0.5838767635704443,Stairs down
-1.2591918945262,-1.85693359375,-0.77185058593,0.096844332838489,0.3096383204806926,0.17167846679509996,-0.21496582031,0.52124023437,0.03792307409760842,0.1937623373017376,0.2145556640589,0.00988769531,0.45874023437,0.008763088577963414,0.09314213703895664,1.3076503357851001,0.84659078762,1.91352966443,0.09415923844648454,0.3053156498806107,969.5650230070065,969.5448234808,969.58445576281,0.00010659303686988926,0.03963228200996127,0.010272638731172744,0.00023855734840380396,-0.8182163207897992,0.43,0.57,0.0976048278241739,Stairs down
-1.2312463378871998,-1.8662109375,-0.7099609375,0.07550294190171652,0.2734006446274393,0.2940612792944,-0.142578125,0.74694824218,0.06617831291892615,0.2559619694207264,0.0493212890611,-0.24035644531,0.32946777343,0.020706312800003426,0.14317559034976385,1.2961047544425996,0.72078617516,1.96533239897,0.07813499163237106,0.2781252266804422,969.6211359265114,969.57194884433,969.66190303072,0.0006774654537091581,0.08995418639005948,0.025897698723478624,0.0008367932244850069,-0.9012617173633131,0.43,0.57,-0.4792119282102056,Stairs down
-1.0835229492142,-1.89379882812,-0.58508300781,0.1359474666730371,0.3668623611196803,0.20221923827860003,0.03100585937,0.53479003906,0.01440699057747291,0.11942747033952524,0.12832763671720002,-0.03942871093,0.39428710937,0.017030671274488242,0.1298474665203113,1.1209043272597998,0.63780552611,1.94588860633,0.14208823284880867,0.37505646310965046,969.6787409428648,969.64795039744,969.7185497926,0.0004560408006441139,0.07059939516000213,0.0212480679742341,0.0007030709816800549,-1.0773371839723798,0.55,0.45,0.36757708744061507,Stairs down
-1.2078100585898,-2.17614746093,-0.49389648437,0.2653492796836624,0.5125385711210677,0.1844531249966,-0.04223632812,0.41198730468,0.017381500089581885,0.1311780663399414,0.163098144528,-0.04187011718,0.52355957031,0.01992721705111532,0.1404562027131738,1.2455583929715999,0.50539292735,2.24254234177,0.27034828712209447,0.5173439902529781,969.7507003429092,969.71041451669,969.79205395248,0.0005754243966063589,0.08163943579006627,0.023867763880185664,0.0007320523683946171,-0.8792692359249386,0.59,0.41,0.22693054086295197,Stairs down
-1.111977539059,-2.3896484375,-0.18200683593,0.3773539923909405,0.6112122810178401,0.26904785156100003,-0.19104003906,1.0810546875,0.13685805566316883,0.3680889499924402,0.162526855466,-0.30688476562,0.66918945312,0.06657235615630497,0.25672287119526754,1.2620570370477997,0.51241652402,2.48800558242,0.32069128075938114,0.5634575121087546,969.8157137281094,969.77283059165,969.86237434003,0.0006338199692961473,0.08954374838003787,0.025049586216206964,0.0007573929100872911,-1.0152537409975075,0.47,0.53,-0.37802699078888174,Stairs down
-1.1225061035114,-2.021484375,-0.65539550781,0.09805451837955594,0.3115669642240017,0.24212402343439998,-0.501953125,0.50866699218,0.054626204593485085,0.2325509461334231,0.1600830078096,-0.14086914062,0.46496582031,0.03179951057224998,0.1774303115776092,1.1963681405128,0.71804191083,2.07670057568,0.09657501829553126,0.3092074839207097,969.9068201145035,969.86039767241,969.95867392955,0.0007605248009079971,0.09827625713990074,0.027439379601203035,0.0009269304946014915,-0.9517835318431596,0.47,0.53,-0.11444776409986662,Stairs down
-1.2602917480423,-2.10461425781,-0.50842285156,0.16936740510899456,0.40947982985478615,0.21018798827910004,-0.12585449218,0.5244140625,0.04331928221189866,0.20708956851995147,0.19392700194990004,-0.05651855468,0.466796875,0.014014417888558504,0.11778910692280894,1.3125807827163003,0.52426942503,2.18132865471,0.17342196533897009,0.41435220004916157,969.9669285537238,969.94207000208,969.99635291565,0.00017413960835345165,0.054282913570091296,0.013130049972102814,0.0003394410009977009,-0.2777146891255282,0.56,0.44,0.0015585319124919556,Stairs down
-1.3450927734336,-2.15222167968,-0.46484375,0.21636163104608774,0.4628153138516776,0.21144287109119997,-0.13842773437,0.59875488281,0.04642270641398131,0.21437928852816332,0.21896362304530004,-0.1259765625,0.65051269531,0.03662283142784393,0.19041166748276087,1.4057186971928002,0.4733584681,2.2381977312,0.22454117844467486,0.4714825199943558,970.0167477721634,969.96305703348,970.07231985429,0.0008549718597640735,0.10926282080993133,0.029093334995603938,0.0008917039997894269,-0.9737483684611679,0.55,0.45,0.09851660331141442,Stairs down
-1.2081982421845,-1.69946289062,-0.75646972656,0.052865246727321145,0.22877192629352042,0.25125610351410005,-0.13757324218,0.63623046875,0.050273805342763336,0.2230943013376534,0.3039440917921,0.06713867187,0.73022460937,0.02434715962645688,0.15525362485363203,1.2991080818806997,0.84986131812,1.77118963883,0.05559150006927372,0.23459664334465868,970.0667962064554,970.03570048766,970.09973185392,0.00022994293958847383,0.0640313662599965,0.015087859695549568,0.00042897904923642517,0.08218919883335385,0.31,0.69,-0.6000643187166808,Stairs down
-1.0755004882782,-1.6875,-0.69677734375,0.07665973976990409,0.27548710019201456,0.2472534179656,-0.25354003906,0.60424804687,0.04974856837116571,0.2219258495251377,0.20286865234000004,-0.01818847656,0.412109375,0.013101079999702687,0.11388621163119643,1.1477112274168002,0.71595037509,1.72247388311,0.0806711876841869,0.28260303573625145,970.082435128674,970.0709213427,970.10054599029,6.171763478020527e-05,0.029624647590026143,0.007816678222391096,7.329855326666888e-05,-0.09068844847360413,0.64,0.36,0.8569329199793863,Stairs down
-1.3853784179643998,-1.87805175781,-0.94177246093,0.07078282910813663,0.2647168313822437,0.15838867187400002,-0.31274414062,0.61633300781,0.06658923820860499,0.2567554202475947,0.28304443359020004,0.08605957031,0.49182128906,0.010109231477994137,0.10004068753869196,1.4509449053036,1.01338622491,1.94156838705,0.0658988397059261,0.25542092966095564,970.0690474019424,970.05275785445,970.08187874611,6.803669713858397e-05,0.02912089165999987,0.008207090237544493,-6.71486164882388e-05,-1.039442638937138,0.49,0.51,-0.2387599305155157,Stairs down
-1.3106103515588001,-1.95104980468,-0.88549804687,0.09420829845159975,0.30539517918114517,0.3687915039043999,-0.20288085937,1.70227050781,0.21137008342350794,0.457445496851016,0.3120556640582,0.08532714843,0.55578613281,0.013271489384225966,0.11462449341385857,1.4604334008886,0.8903989505,2.40902387519,0.1352333924777478,0.3658976066510552,970.0502282327043,970.0287442667,970.11692973795,0.00046282277323350814,0.08818547125008536,0.021405479333599917,-4.8836678884155934e-05,4.66198454804455,0.57,0.43,2.2810723319923274,Stairs down
-1.0786669921829999,-1.6962890625,-0.69689941406,0.08824072652396686,0.2955644079701194,0.26569335937219996,-0.05017089843,0.65454101562,0.03728599569981103,0.19212791505352084,0.1749951171834,0.03100585937,0.4189453125,0.011311209659497763,0.1058210638904315,1.1495661032438,0.7561721943,1.74899771632,0.0795010698164004,0.2805460017862247,970.0661492382053,970.04039104593,970.11852519153,0.0005298300465211638,0.0781341455999609,0.02290265805656523,0.0006623287142708502,-0.20309955963796167,0.51,0.49,0.812772053583286,Stairs down
-1.1728491210896,-1.64636230468,-0.65441894531,0.09104643595947534,0.3002265338038605,0.2307080078102,-0.06005859375,0.46350097656,0.021896590463782728,0.1472332318437142,0.16075927734,-0.07189941406,0.40161132812,0.012646806607057077,0.11189431862693702,1.2204421550723998,0.74314876345,1.6915908695,0.09040370887050711,0.29916495747630945,970.1477097863161,970.09265241723,970.1802454951,0.000694452139808496,0.0875930778699967,0.026220366481237652,0.0008475762820797168,-0.9583593936035975,0.43,0.57,-0.4750293038765932,Stairs down
-1.0755200195276,-1.80786132812,-0.65490722656,0.10375180094512221,0.3204906908720922,0.1533300781213,-0.06005859375,0.31188964843,0.010135953678833529,0.10017282137408925,0.1950842285136,-0.12915039062,0.56237792968,0.04139801698814581,0.2024451452079411,1.1303525557791003,0.67653682122,1.86140371291,0.10900104662967194,0.3284981524504746,970.2062479976161,970.17144489381,970.26429715926,0.0008476971545079728,0.09285226545000569,0.02896929724661772,0.0003695444023135724,-0.654839828898973,0.67,0.33,0.6413325578578637,Stairs down
-1.2076928710900001,-2.04321289062,-0.56396484375,0.1575606026366573,0.3949493595516908,0.21197265624680003,-0.12658691406,0.59460449218,0.052174394924181876,0.22727219578061028,0.18129638671479997,-0.13159179687,0.52490234375,0.027710883719384023,0.16563144291525744,1.2680524408477998,0.56729406296,2.11421303646,0.16508816913400706,0.40427377783213564,970.2767310869002,970.22163946234,970.32342255111,0.0008867374273646603,0.1017830887699347,0.029628871951038124,0.0009606854822863076,-0.9320052362426088,0.51,0.49,-0.22620937530073354,Stairs down
-0.8017504882775998,-1.73596191406,-0.0537109375,0.24758612652604056,0.49508611903463845,0.428657226559,-0.01916503906,1.21545410156,0.14076903983760125,0.37331133044581605,0.0698095703116,-0.20983886718,0.59753417968,0.05100602491763665,0.22471307186823886,1.0618069467553999,0.47498862102,1.83665866891,0.14036144104400072,0.37277047446593825,970.3634135249366,970.30228722296,970.42375050617,0.0011148690837143307,0.1214632832100051,0.033222287592476044,0.0010751532717103401,-1.339975294271117,0.51,0.49,-0.17129541070316853,Stairs down
-1.0188671874964002,-1.78137207031,-0.41040039062,0.15806890747767782,0.39558591785211594,0.36761962890359995,0.0029296875,0.91149902343,0.06143318957116378,0.24661479614056442,0.07194335937399998,-0.23669433593,0.50793457031,0.04287245102484916,0.20601875282265125,1.147207591825,0.64073387244,1.81851003086,0.12330901830324524,0.3493936578133793,970.4569817814819,970.4200909851,970.51567214006,0.0005945058184207797,0.09558115495997299,0.024260271231718988,0.000610548967797128,-1.0922208682170151,0.35,0.65,-0.19166921611773874,Stairs down
-1.2407080078082,-1.92272949218,-0.60815429687,0.17184012444302973,0.41245814720841606,0.17531005859119997,-0.32751464843,0.52697753906,0.049942416379208335,0.22235780223643212,0.16455566406039998,-0.11730957031,0.53283691406,0.024623927419255127,0.15613355867673862,1.2968422414763998,0.69492420326,2.00035292521,0.16092035165414217,0.3991380063807514,970.5158908859366,970.48981320333,970.57783528749,0.0004553079390616537,0.08802208416000212,0.02123098819346469,0.0005054969211974491,3.2155218763860223,0.71,0.29,1.9792746131492605,Stairs down
-1.1017578124968,-2.32971191406,-0.15051269531,0.4663623463036005,0.6794841593742745,0.5091577148405999,-0.15808105468,1.73376464843,0.2422011515623083,0.4896724824274744,0.0582324218752,-0.68872070312,0.6787109375,0.11590459308084773,0.33874112113831006,1.3641966817602003,0.3580094391,2.98459941459,0.43605423681661043,0.6570340131594744,970.5745612113573,970.5192830304,970.76860625304,0.0023926794375466447,0.24932322264010054,0.04866983298893862,0.0003524205911663873,7.412184492919641,0.52,0.48,2.3741616978153663,Stairs down
-0.0301464843764,-0.87475585937,0.228515625,0.05324528913227779,0.2295927617346745,0.9404077148409999,0.6064453125,1.13903808593,0.01932538139073467,0.13831893426724817,-0.21895751952919998,-0.35302734375,0.22644042968,0.01588661697729582,0.1254103297480828,1.0047670179186,0.71829580385,1.17641815095,0.011347303368936305,0.10598976523819147,970.6437500500369,970.6257749555,970.67203554969,0.00017752103432030095,0.04626059419001649,0.013256916080940467,-0.00017886494850819342,-0.7212059010266318,0.56,0.44,0.5899246675478179,Lift down
-0.9680297851524,-1.15283203125,-0.87475585937,0.003584696337614857,0.05957221981963328,0.3321484374971999,0.17785644531,0.69750976562,0.02264704123901218,0.149735002008956,0.16761230468379998,0.10559082031,0.30688476562,0.0031181867916702526,0.05556082184195578,1.0448058368510003,0.95551109251,1.37439762814,0.013065982385033079,0.11373355952041045,970.6923689674586,970.64587338814,970.73157390038,0.000559580578327329,0.08570051224000963,0.02353688111335178,0.0008039995224976964,-0.8857605194185632,0.46,0.54,-0.3242602552861105,Lift down
-0.9603955078083999,-0.98022460937,-0.94543457031,0.00012337569035637035,0.011051784175091669,0.21873535155860002,0.1982421875,0.23718261718,0.00015484361937527917,0.012381243200160732,0.1136962890586,0.08642578125,0.14831542968,0.00028643162563659296,0.016839456920584674,0.9917475268392001,0.97598610461,1.01398584431,0.00012866567695987713,0.01128623144323553,970.8086234857791,970.73157390038,970.90616181366,0.0025589733032161826,0.1745879132799928,0.05033272861850449,0.0017285528649146858,-1.075571154518813,0.54,0.46,0.2701964015264578,Lift down
-1.0020336914021999,-1.04162597656,-0.97351074218,0.0003815447501832621,0.01943525926457966,0.21298095702740003,0.17846679687,0.22631835937,0.00016139541612168108,0.012640469214410685,0.13420410155999998,0.11022949218,0.15673828125,0.0001529057820566998,0.012303524870382991,1.033334045261,1.00586863393,1.07192190668,0.00035634952480382307,0.018782599116091064,971.0222502587573,970.90616181366,971.13753454149,0.0047674959321119485,0.23137272783003482,0.06870095321602772,0.0023724483580107895,-1.1499885540893031,0.46,0.54,0.02973063004520288,Lift down
-1.0213403320276,-1.05517578125,-0.98620605468,0.0005228939020024477,0.022752251822235604,0.2052539062452,0.18054199218,0.23168945312,0.0001810422810728037,0.013387750306234266,0.14368896484059998,0.10876464843,0.15979003906,0.00016851693092633546,0.012916337004626044,1.0517862686388,1.01700150302,1.08520423365,0.0005263961208118742,0.022828319246141524,971.2013848992531,971.13753454149,971.23043814055,0.0007163344070069192,0.09290359905992318,0.026630265919379215,0.0008753581420111882,-0.578439832440413,0.46,0.54,-0.7845838273352368,Lift down
-0.9879467773392,-1.00476074218,-0.96960449218,5.158740463166714e-05,0.007146434816420735,0.21589599608979992,0.18908691406,0.23559570312,0.00014235268338596207,0.011871358664959223,0.1490576171832,0.13061523437,0.1708984375,0.00012752494427806975,0.011236088947462506,1.0223200009552,1.00671577661,1.03963932719,4.864167077369558e-05,0.006939398681871407,971.2384462551714,971.22808527457,971.24628275747,2.2831312019256937e-05,0.018197482899950046,0.00475426113071888,0.00013004348893525737,-0.6959159091928431,0.46,0.54,-0.31639693201438596,Lift down
-1.2181115722619,-1.43395996093,-1.00805664062,0.016465946536788328,0.1276764938092382,0.1564660644498,-0.06396484375,0.47119140625,0.026197863905689057,0.16104622090142992,0.22353515624649997,0.00732421875,0.35961914062,0.012201032855233988,0.10990460648526816,1.2633827876566999,1.06009859899,1.49281758092,0.01659143898939532,0.12816210282100307,971.1800944605051,971.14485952296,971.21521557742,0.0005228393193516098,0.07035605446003501,0.022751064286272275,-0.0007822737347900214,-1.36729123876213,0.5,0.5,0.031050104148616926,Stairs up
-1.2843749999967002,-1.56103515625,-0.91369628906,0.039093443239764665,0.19672953211799954,0.11788330078120002,-0.16870117187,0.43078613281,0.03221521759757419,0.1785862968472062,0.12992797851420002,-0.29309082031,0.46606445312,0.053874629209277686,0.23094562762084264,1.3283254971489997,0.95600587839,1.60741580299,0.040282549081068576,0.19969908259743682,971.1160092777945,971.09649736733,971.14485952296,0.0001518396875051063,0.048362155630002235,0.012260558332721036,-0.0003616159455188578,0.04474525210677882,0.46,0.54,0.6952370072480488,Stairs up
-1.3835815429653002,-1.93200683593,-0.88977050781,0.05974398734011699,0.24320063212647253,0.12333618163970002,-0.16870117187,0.41809082031,0.032754575860192016,0.18007506796219763,0.2519238281219999,-0.07800292968,0.40502929687,0.01683034141802514,0.12908151689473163,1.4291542193757005,0.91546502066,1.97012042607,0.0593223714354013,0.24234097408619798,971.0602570155335,971.01784071825,971.09649736733,0.0005955760137441528,0.0786566490800169,0.024282097388955332,-0.000819837019689621,-1.1178043880045607,0.46,0.54,-0.29428091340486995,Stairs up
-0.8760546874959999,-1.38903808593,-0.26745605468,0.10290053743283643,0.31917320072103184,0.3767358398409999,-0.07080078125,0.99450683593,0.08737692946604121,0.2941141958005101,0.41825927734060003,0.125,0.68310546875,0.01831841341787567,0.13466710542555266,1.1084525589358,0.6577752984,1.49805602626,0.06281351281897968,0.2493699614845178,970.9995469431352,970.92915562203,971.02595658717,0.0008792849156363275,0.09680096514000525,0.029504102536426425,-0.0007572325278556648,-0.2659928893717165,0.34,0.66,-1.1258802059897313,Stairs up
-0.6220434570279998,-1.21032714843,-0.267578125,0.07309935206695614,0.2690136772476199,0.4499291992144,0.19067382812,0.86511230468,0.0176880472175287,0.13232976515264208,0.5982861328089999,0.24755859375,1.09118652343,0.08069622116831764,0.2826468803235487,1.0431807954074,0.69484504244,1.38350516821,0.02915480383216989,0.16989189443245428,970.9591522078147,970.84198954211,971.05379756444,0.0034969709507074523,0.211808022329933,0.058838773280893424,0.0002784776978343335,-0.9291260642768986,0.46,0.54,-0.028481037400024604,Stairs up
-0.19781738280920003,-0.50561523437,-0.0361328125,0.013105434745076206,0.11390513771391282,0.21495117187200002,0.11767578125,0.39672851562,0.00341000980804432,0.05810257920233728,0.9504614257789998,0.69055175781,1.26794433593,0.02438769117132249,0.15538279911112834,1.0012473026838,0.74658392736,1.28959612927,0.026980392280393797,0.1634337430201911,970.8631816663706,970.69609495152,970.96358948663,0.005968552444530064,0.26749453511001775,0.07686915454253912,-0.0019071894508713753,-0.6747691534373885,0.54,0.46,-0.5737460139763346,Stairs up
-0.7667968749956999,-1.16479492187,-0.43139648437,0.040389371038589986,0.19996369002447442,0.4192553710905,0.27209472656,0.62512207031,0.007956660281646152,0.08875299250633575,0.4194592285115999,0.01062011718,1.14270019531,0.08341252090219727,0.2873645693073092,1.0219304140917997,0.70150177401,1.34976821384,0.025448376531719753,0.15872584152053676,970.7604949274313,970.68345819333,970.83077994434,0.0017826109767689652,0.14732175100994027,0.042009342615676286,0.0012636886136108655,-1.168141863751353,0.5,0.5,-0.024533800532068623,Stairs up
-0.9582324218709998,-1.29614257812,-0.65014648437,0.03738168836843545,0.192374300478913,0.1096020507795,-0.14343261718,0.40881347656,0.019197777972705173,0.13786152542670532,0.22783081054360005,0.07556152343,0.32165527343,0.005369593066066414,0.07291019911785834,1.0013938262563,0.65810094657,1.32943961772,0.0410796319627886,0.20166515723634737,970.7978504364196,970.67513110899,970.85880226138,0.002070001317431428,0.1836711523900476,0.04526920922942121,-0.0007437365103508644,0.16344995655679107,0.38,0.62,-0.7308697502627013,Stairs up
-0.9832446289031,-1.353515625,-0.61877441406,0.03499750555765548,0.18613847131122283,0.14090087890310002,-0.02770996093,0.46020507812,0.011866162106123146,0.10838588692750507,0.26206542968310004,0.07885742187,0.38635253906,0.009576332906313266,0.09736821646333126,1.0350077224250998,0.63120156565,1.44753076593,0.040339356022153015,0.19983984202838903,970.708158011071,970.61316729122,970.79237252409,0.0027254906838600755,0.17920523287000378,0.05194454520949697,-0.0007404671082590704,-1.1244484951466374,0.62,0.38,0.15998838707443608,Stairs up
-0.9644335937475,-1.15466308593,-0.77355957031,0.01478234250127694,0.12097321635909401,0.13788085937240002,0.02697753906,0.2919921875,0.005358507079259823,0.07283489554099205,0.2751220703082,0.14880371093,0.45739746093,0.008514759516615409,0.09181291805323069,1.0188179562092001,0.81628082991,1.20640209306,0.01536814829306399,0.12334693676834195,970.6811076104676,970.61905740412,970.76173307392,0.0010782357588766714,0.14267566980004176,0.032671905381962414,-0.0004596225582370914,-0.08104758899516007,0.46,0.54,0.1983068566556195,Stairs up
-1.0137133789024997,-1.36096191406,-0.8251953125,0.011792635742995845,0.10804956911328192,-0.04457641601550002,-0.34729003906,0.13830566406,0.018575054242366683,0.13560716684579402,0.27290405272999996,0.16979980468,0.58728027343,0.006442941395547542,0.07986558696705401,1.0633420950049,0.89017231629,1.37788881475,0.00992384594506165,0.09911915801504284,970.6936112963804,970.63028556431,970.77347361467,0.0015616226987659962,0.1431880503599814,0.039319288800515405,-0.00015333208586998682,-0.48664683090733396,0.6,0.4,0.39265427534304675,Stairs up
-0.9928942871061,-1.20007324218,-0.79748535156,0.012129784622182047,0.10958324130979255,0.11659423827840001,-0.04223632812,0.36083984375,0.012687783355421235,0.1120754456688307,0.307514648434,0.08654785156,0.68041992187,0.024746804140951328,0.15652263765839694,1.0624186075367,0.81400173128,1.2284662452,0.014478759116101343,0.11972456525266788,970.719845722205,970.62395471731,970.83180159462,0.0032001197501657684,0.20784687730997575,0.05628604225440008,0.0001441156038573423,-1.1267177449819352,0.64,0.36,0.30876401690584065,Stairs up
-0.9686462402315,-1.30322265625,-0.75146484375,0.022032244450960626,0.14768859809223941,0.0932128906224,-0.09436035156,0.384765625,0.010878000596454133,0.10377485529014045,0.2322802734342,0.08630371093,0.34228515625,0.006043804631216308,0.07735222417554743,1.0108331377256001,0.75726825795,1.36390031459,0.02340255602622478,0.1522121232555493,970.6758667579826,970.58697341277,970.80828929665,0.002670636938497419,0.2213158838799245,0.05141916538716323,0.0005693078879856373,0.17459799133844944,0.7,0.3,0.614246522861388,Stairs up
-0.99784912109,-1.47277832031,-0.73803710937,0.02841101053375502,0.16771076419961084,0.08585327148159999,-0.03967285156,0.47241210937,0.013131530204846975,0.1140184849171331,0.25174682616800004,0.05310058593,0.373046875,0.007244376430466715,0.08468726389583056,1.0415700623821997,0.75643340204,1.54830380159,0.03018279829843229,0.17286113014627658,970.7030811790366,970.62053335577,970.80581620744,0.0019367325229775697,0.18528285166996739,0.04378772884893431,9.894323758003653e-05,-0.4149188069897791,0.44,0.56,-0.031956152221005646,Stairs up
-0.9861584472611,-1.1904296875,-0.71704101562,0.017362438938567235,0.13110611941927638,0.0148608398438,-0.16967773437,0.24670410156,0.01130855583729481,0.10580864935779996,0.30057739257500005,0.1494140625,0.40942382812,0.0053469030107048164,0.07275598931083109,1.0371535943107002,0.74628757535,1.26658688597,0.02127902748250049,0.14514212761178433,970.6684131652022,970.53403482747,970.77629223514,0.003898595071885918,0.2422574076699675,0.06212575247968478,4.998056888936989e-05,-0.5086127250152623,0.4,0.6,-0.275350543665926,Stairs up
-0.9406054687456998,-1.19226074218,-0.68627929687,0.017708048170135424,0.1324045606783772,0.11274780273180002,-0.16967773437,0.34936523437,0.013903408536286577,0.11732167084952255,0.2951501464808,0.1298828125,0.45715332031,0.008850413938577354,0.09360507357612396,1.0020664839250997,0.73136655946,1.26068613295,0.020691250059394362,0.14312350456441603,970.5373095228501,970.44687812929,970.71761775768,0.002952687424006048,0.2707396283900607,0.05406626073408431,-0.00032665210756287015,1.1846683243782845,0.56,0.44,1.063666756767269,Stairs up
-0.9788891601522,-1.22473144531,-0.7080078125,0.02031119779496699,0.14180298239817568,0.0819763183587,-0.07507324218,0.29174804687,0.008651045348087564,0.09254477237859893,0.2617321777305,0.09875488281,0.35729980468,0.004053492707188134,0.06334791062155289,1.0215428412349,0.71504351425,1.26911126452,0.022811757079246653,0.15027853974687863,970.5046307672279,970.39963101339,970.62883014732,0.002870438188738561,0.2291991339299102,0.0533079150488103,-0.00045185717052051796,-0.0008732185342643639,0.54,0.46,0.3887418137908876,Stairs up
