avg_accX,min_accX,max_accX,var_accX,std_accX,avg_accY,min_accY,max_accY,var_accY,std_accY,avg_accZ,min_accZ,max_accZ,var_accZ,std_accZ,avg_magnitude,min_magnitude,max_magnitude,var_magnitude,std_magnitude,avg_pressure,min_pressure,max_pressure,var_pressure,range_pressure,std_pressure,slope_pressure,kurtosis_pressure,Pressure_below_avg,Pressure_above_avg,skew_pressure,Label
0.49838012694929995,0.44604492187,0.57104492187,0.001072121947407452,0.03257914559857851,0.7399536132774,0.68359375,0.78857421875,0.0006854093135205653,0.02604909250598492,0.49336181640359983,0.41125488281,0.52233886718,0.0005981442843729115,0.02433439626391381,1.0202920501479,0.93444291604,1.08997754331,0.0006628624445479739,0.025617061113689332,969.8634339350162,969.84821377527,969.88086464961,0.00010023998910072816,0.0326508743399927,0.009961806523403317,7.475385182515981e-05,-1.143132872595393,0.6,0.4,-0.001148760291937628,Lift down
0.5128430175753,0.4873046875,0.53540039062,0.0001917969984495752,0.013779659954624405,0.6761157226529,0.63647460937,0.72277832031,0.0004438133613011873,0.02096127924741654,0.5164660644486999,0.47668457031,0.58532714843,0.0006530272523832035,0.025426304880170288,0.9937504725440001,0.94631830412,1.0297182585,0.000619572099629353,0.024766436534815816,969.8755797487714,969.86749571142,969.88846699859,1.3831162378764394e-05,0.020971287170027608,0.0037003852171060177,2.915711711165133e-06,0.17185916396536527,0.4,0.6,0.018454478560967356,Lift down
0.5119458007771999,0.47888183593,0.57067871093,0.0006327258878108035,0.02502795694683638,0.6953161621056999,0.62878417968,0.92749023437,0.0026403772274581337,0.051127032528629636,0.49388305663789994,0.37060546875,0.63928222656,0.0017072973512453384,0.041112338509660146,0.9959463492305999,0.9302000428,1.25530320187,0.0025202098690499546,0.04995005275632305,969.9562543975627,969.88846699859,970.12285223659,0.0031932671681296244,0.23438523799995892,0.05622574585052944,0.001858941703651061,-0.21639468479236168,0.55,0.45,0.8070038953409632,Lift down
0.0767602539058,-0.15490722656,0.55395507812,0.0355037241201584,0.18747983059240483,0.9651928710901001,0.5107421875,1.28869628906,0.022967844003491944,0.15079179541161059,-0.053804931640200004,-0.5712890625,0.72985839843,0.12169834756147281,0.34710425535544515,1.0479234104965,0.75822341239,1.29798146811,0.020817300921630744,0.14355879601199795,970.1821153339105,970.05342821819,970.53001391717,0.009098223779966831,0.4765856989799886,0.09490648840920816,0.002534011223527587,4.9040138895224565,0.67,0.33,1.9486864319739843,Lift down
0.1619897460921,-0.21533203125,0.29272460937,0.016345922988753373,0.12721031309947256,0.9041101074174998,0.5107421875,1.03942871093,0.0162696902964376,0.12691333024341148,-0.151003417968,-0.68334960937,0.20581054687,0.1014384759716941,0.31689760367029784,0.9975217039561001,0.81200393792,1.12429518608,0.004163429202898776,0.06420120645961248,970.348168116,970.16472163068,970.47594855664,0.010242637879098692,0.3112269259599998,0.10069861717177503,0.0010114396491864093,-0.8622290167731461,0.4,0.6,-0.6032137768364676,Lift down
0.11105957030829998,0.08557128906,0.15698242187,0.0003237441332537805,0.017902700687919763,1.0299084472618,0.98278808593,1.06640625,0.0006211401522405416,0.024797756969494968,-0.0230163574197,-0.09301757812,0.11938476562,0.003051364474307965,0.05496226732554694,1.0377744519018004,1.00238147673,1.07393453826,0.0005614786442453909,0.023576765210752238,970.5874810095885,970.47594855664,970.70682076652,0.005671725914126503,0.23087220987997625,0.07493336142857357,0.0025811045296843947,-1.347559916398854,0.47,0.53,-0.04724678151105221,Lift down
0.0815295410121,0.07116699218,0.09704589843,4.250109044765505e-05,0.006486607706897227,1.0472338867144,1.01831054687,1.07458496093,0.00024975665288895455,0.015724474120302562,-0.09486816405840003,-0.12097167968,-0.05285644531,0.00038443873628187544,0.01950882746140979,1.0548578734041,1.0242890608,1.08308350528,0.00029358032967985226,0.01704829980916143,970.7593432802518,970.70682076652,970.78555053862,0.0005470411925415637,0.07872977210001864,0.02327167335229996,0.0007682108064275895,-0.8092864353720506,0.43,0.57,-0.6682208418200345,Lift down
0.09106323241689998,0.07202148437,0.10534667968,9.585615812666389e-05,0.009741539742022165,1.0157226562457,1.00134277343,1.04162597656,0.00010355012585737503,0.010124950597351143,-0.06164672851139999,-0.07116699218,-0.05139160156,3.2617135178145996e-05,0.005682513865039357,1.0217236750619,1.00778235161,1.04651009904,9.674833083155958e-05,0.009786769003263742,970.7931983829009,970.78437752131,970.80557258925,2.1614086012466162e-05,0.021195067939970613,0.004625791300128174,0.00010463661080225629,-0.4519553966666656,0.47,0.53,-0.042551458916047974,Lift down
0.1789721679649,0.07348632812,0.37744140625,0.00942793127866415,0.09661082737394142,1.0061560058552999,0.91711425781,1.03674316406,0.0005166654800733159,0.02261633978504441,-0.00038330078079999995,-0.08837890625,0.07580566406,0.0026440159897768083,0.05116225004707123,1.0279631836530998,0.9956763571,1.04688156182,0.000136880422294747,0.011640945755040677,970.7962027814785,970.78715064204,970.80557258925,2.79714270855705e-05,0.01842194720995849,0.0052622915934709275,2.8792375633292586e-05,-1.400968566349357,0.56,0.44,0.12864629149423584,Lift down
-0.9612658691376998,-1.1923828125,-0.82995605468,0.009983501860348225,0.09941663262123066,0.4230871581996999,0.25341796875,0.59020996093,0.0071618383143262545,0.08420344370144842,0.14542968749850002,-0.18041992187,0.41735839843,0.02991320313744483,0.17208739380346946,1.0774434312769001,0.92838333721,1.27987527948,0.009988099884165932,0.09943952375853513,970.7075142306153,970.67734915119,970.74468072287,0.00020654692456097078,0.0673315716800289,0.014299701231681769,-6.377936930558866e-05,1.1337404269236648,0.4,0.6,0.6135018741461802,Stairs up
-0.9184472656214999,-1.16577148437,-0.69775390625,0.01785507638072467,0.13295309555221882,0.4540283203085,0.3447265625,0.55310058593,0.003685763989967978,0.060406178078639426,0.1380175781214,0.01330566406,0.28491210937,0.006813341776425414,0.08212921744824529,1.0396267518463,0.87711997876,1.27023130042,0.016144246880780002,0.12642311660440983,970.6614558758624,970.61799753053,970.73380255428,0.0007479300519079838,0.11580502374999924,0.027211224731512988,-0.0005555148250043887,0.17112999535355788,0.61,0.39,0.7061914791786947,Stairs up
-0.9226513671834,-1.25549316406,-0.74072265625,0.024589556491695908,0.15602455232039267,0.4200439453082999,0.330078125,0.54406738281,0.0029837609541082583,0.05435000776970667,0.15179809570039998,-0.08483886718,0.29089355468,0.009860096692406256,0.09880028201114709,1.0312892972429,0.83464249455,1.35167919052,0.024511705661765824,0.15577736871942652,970.6080428878512,970.55976996129,970.65363169332,0.0005146581616371803,0.09386173202994996,0.022572363190875883,-0.000621965350769133,-0.07511501633927153,0.37,0.63,-0.11224113699395018,Stairs up
-0.9361059570275998,-1.22412109375,-0.74926757812,0.017045798982018533,0.12990512304061894,0.4853149414018999,0.36437988281,0.74084472656,0.008683120210987102,0.09271617447283527,0.1352905273414,-0.07470703125,0.36108398437,0.018951468846448705,0.13697428283434893,1.0764246753183997,0.86861467199,1.36511032348,0.018927356101903065,0.13688711605145326,970.539853764471,970.50582157188,970.5707002518,0.0004469670637772577,0.064878679919957,0.02103562200505336,-0.0006601257470832709,-1.1381217943732227,0.41,0.59,-0.39199314496638393,Stairs up
-0.8754174804653999,-1.10375976562,-0.72546386718,0.013496058812191545,0.11559021681816169,0.4912670898402,0.3603515625,0.68041992187,0.009193459671028237,0.09540191336822315,0.23380859374660004,0.05554199218,0.45727539062,0.012995830545231448,0.11342782833052538,1.0392286389436,0.84332406808,1.29482466273,0.017876675465993582,0.1330334871802346,970.4802782591979,970.45808530344,970.51199861911,0.0002383844281503513,0.053913315670001793,0.015362310499037826,-0.0004961464582299145,-1.0193956255277745,0.57,0.43,0.39751996558687885,Stairs up
-0.9124877929648,-1.29248046875,-0.64245605468,0.023264242693723784,0.15176165611506268,0.5185961914025998,0.03466796875,1.96923828125,0.16742247680871727,0.4071219129949039,0.3974877929655999,-0.06616210937,0.78662109375,0.05343113239909836,0.22999308918988712,1.1865704575740001,0.93452392909,2.2882979519,0.09424217192226866,0.30545007808649516,970.4611610660986,970.3058982282,971.09279959909,0.0369883911701789,0.7869013708899502,0.19135962807885343,-8.636722169986555e-05,6.548586592254448,0.85,0.15,2.799070304992836,Stairs up
-0.8581616210892,-1.05493164062,-0.65893554687,0.013015306001861765,0.11351278756969696,0.5034570312461999,0.30737304687,0.82751464843,0.01762105024206012,0.13207891481852627,0.30077392577820006,0.09814453125,0.59167480468,0.01924971282443849,0.138047874652941,1.0539766909601997,0.87643618736,1.33930178655,0.019086513075783382,0.13746144166647442,970.3734373309073,970.36105503254,970.39080587384,0.00010051411331970676,0.029750841300028696,0.009975418396564111,-0.00023977921640017325,-1.5529565557735907,0.49,0.51,0.1838607679539013,Stairs up
-1.0580712890586,-1.66711425781,-0.28881835937,0.0959422835438706,0.3081928952919452,0.42807617187199987,-0.34204101562,1.10217285156,0.11013791657368072,0.3302068100568853,0.22917724608960005,-0.04711914062,0.50695800781,0.015280631509434692,0.12299522427452354,1.2012887590427999,0.30823179336,1.89134910998,0.13266546716402722,0.36240697081097506,970.3866320267532,970.35450827454,970.41628330916,0.00024609556580633163,0.06177503462004097,0.015608799125758148,0.00035135690329934894,-0.5159119293524936,0.63,0.37,0.09118603058391239,Stairs down
-0.9119409179647998,-1.2880859375,-0.58142089843,0.0348187539856868,0.18566250683923755,0.5154370117156,0.22790527343,0.83459472656,0.023469925655287903,0.1524310545746339,0.2851367187476,-0.19384765625,0.75183105468,0.051014425392693886,0.22473157574930797,1.1174288109746002,0.75238384445,1.43859917143,0.0385630562347073,0.19539044416849108,970.4855733467584,970.35354621805,970.96729411829,0.022093310007978567,0.6137479002400141,0.14789312664183818,-0.0010554925319109687,6.076870772538758,0.86,0.14,2.670711547929785,Stairs down
0.2164648437492,-0.83972167968,1.26696777343,0.36569528208394914,0.6016962101119714,0.6558105468714,0.0380859375,1.13879394531,0.09098795507890954,0.300130097671194,0.1566333007802,-0.54296875,0.90686035156,0.20808313410988347,0.45387476551223316,1.0403921043542,0.55368351405,1.45159131299,0.07796108044328168,0.2778155316731749,970.5423810044656,970.36665130586,970.88004780942,0.023909817801354753,0.5133965035599886,0.15385291555034375,0.00014251773158228931,-0.6870376955321031,0.62,0.38,0.741491674789761,Stairs down
-0.4707055664046,-1.65100097656,0.78039550781,0.6192437280798004,0.7829759196801664,0.7787695312476001,-0.61181640625,1.87463378906,0.40009970522700944,0.6293637328085718,-0.0078002929694,-0.71716308593,0.52038574218,0.09270291331229649,0.3029453485022893,1.2794755884937998,0.33055588044,2.08351181735,0.29492389819765374,0.540346795322853,970.6085479752808,970.38335970343,971.23824225033,0.04420008413041811,0.8548825469000576,0.20918432849789184,-0.002181421239633942,3.741012746625465,0.7,0.3,2.034881815656144,Stairs down
-0.9008886718714001,-1.58703613281,-0.05432128906,0.14987082363330886,0.38519101157344754,0.34487304687259995,-0.32751464843,1.30114746093,0.16665558561943344,0.40618841657934945,0.16029296874739998,-0.13708496093,0.39758300781,0.024483421618849352,0.15568746706996314,1.0812752837745998,0.14578088316,1.61110732444,0.12593449157051356,0.35309367971518324,970.6726507923065,970.61763024212,970.70216789973,0.00041440812368516596,0.08453765760998522,0.020254975745438806,0.0006019159378322031,1.1362763474519717,0.34,0.66,-1.2269951182863637,Stairs down
-0.949172363278,-1.51025390625,-0.24609375,0.13226997123124828,0.3618663724621781,0.6527490234336,0.01953125,1.72485351562,0.24454204388403608,0.49203315279074006,-0.02657714843580001,-0.2880859375,0.44592285156,0.050185844776314645,0.22289904963581944,1.2739135985668,0.41474383456,1.87434918711,0.12887659828249876,0.3571943900730718,970.7297571313367,970.69575261889,970.7536471942,0.00030530667567660395,0.05789457531000153,0.017385442442452763,0.0005525332618088669,-1.0464279154728409,0.5,0.5,-0.5761728423446314,Stairs down
-0.4435583496053999,-1.0859375,-0.03002929687,0.11806267850768878,0.34188017158444844,0.8586108398404,0.30419921875,1.27075195312,0.07639808474745732,0.2750165520472954,0.2599084472624,-0.11218261718,0.50891113281,0.02300001396508393,0.1508973618902368,1.0851073273776999,0.70759228318,1.5882597866,0.03973458815933712,0.19833618499341907,970.7581508760294,970.74393051957,970.78757690039,0.00014815948575556604,0.04364638082006422,0.01211106481272437,0.00014350268021819129,0.3341015251840225,0.68,0.32,1.0698824951490098,Stairs down
-0.09317626953040001,-0.28186035156,0.09460449218,0.014509507651895286,0.11985162733720528,0.7879760742156,0.58410644531,1.01599121093,0.011158597740080338,0.10510476565160846,0.6125439453086,0.33850097656,0.82373046875,0.017496583413487758,0.1316116164301346,1.0180395619998002,0.86290526509,1.20333272825,0.011239078582171002,0.10548311616722979,970.7551405335581,970.7289621725,970.79258320402,0.00028070412420135043,0.06362103152002874,0.01667024543788534,-1.4873519254791252e-05,0.042067766601722845,0.72,0.28,1.100757457158079,Stairs down
-0.19107666015360003,-0.30834960937,-0.029296875,0.005458827120965847,0.07351352834517051,0.4986499023406,0.34228515625,0.78588867187,0.010835776672070948,0.10357325381270127,0.8167114257779999,0.33666992187,1.09399414062,0.02566371436675158,0.15939597618222381,0.9889820144984001,0.71515253829,1.2001519626,0.015790785992763196,0.1250315085601848,970.7368101911737,970.71607167064,970.75656271009,0.00011405194763332353,0.04049103944998933,0.01062597892699728,0.00029636317085938904,-0.3376301747075061,0.42,0.58,-0.13585762418908645,Stairs down
-0.8843603515594001,-1.14794921875,-0.26440429687,0.03347150691815101,0.18203513905004579,0.49965820312199993,0.34875488281,0.81713867187,0.010813433112565558,0.10346641378457022,-0.0466015625002,-0.25439453125,0.33666992187,0.014241569908585562,0.11873985939649628,1.0349948124346002,0.71515253829,1.40907897377,0.020858828339267388,0.14370191389078543,970.7619841704585,970.73359730902,970.80122617144,0.00033422566189927064,0.06762886242006516,0.0181902008037371,0.0003325889168040985,-0.3437324811438498,0.68,0.32,0.8715312752080177,Stairs down
-0.9504370117151999,-1.07971191406,-0.86157226562,0.00425137202544918,0.06487571429429266,0.48748779296539996,0.35607910156,0.76049804687,0.009663184634379178,0.09780875619306988,-0.04028808593679999,-0.29956054687,0.2822265625,0.02152981960339857,0.14599493623877707,1.0815460676086,0.9678785496,1.32124188121,0.0080262904408021,0.0891404932474242,970.7602924449061,970.74866761224,970.77519211143,4.0096773042837626e-05,0.026524499190031747,0.006300460722233673,6.646936539542194e-05,0.8397268433053946,0.38,0.62,0.2985410930477369,Stairs down
-0.7229858398414,-0.96264648437,0.50048828125,0.08973958350715278,0.29806406638855554,0.4414404296839999,0.12768554687,0.91247558593,0.030478428132316302,0.1737056241202142,0.5296630859337998,0.18774414062,1.31567382812,0.09514616896424856,0.306911562627748,1.0790377265568,0.59848925563,1.59066434485,0.04748412690512367,0.21681624855179196,970.7719931502006,970.76057691388,970.81561586583,0.0002648437998170929,0.05503895194999586,0.01619244767843707,0.0004322276880165119,0.9474456644297136,0.7,0.3,1.4876196711327823,Stairs down
0.20819580077999994,-1.03369140625,0.91918945312,0.41066667118624306,0.6376205803409898,0.6043896484344,-0.03381347656,1.17346191406,0.09866622984970808,0.3125373058551747,-0.104523925779,-0.53674316406,0.80444335937,0.13267459761400194,0.36241944158372896,0.9942270427044001,0.45901390143,1.59809855375,0.06733090997999833,0.25818133333027454,970.7918445989473,970.74739967644,970.87344482746,0.001139612813396333,0.12604515102009373,0.03358893694748867,-0.00031339314938122877,0.39494936669881797,0.62,0.38,0.9078658372884576,Stairs down
-1.0776196289028,-1.60705566406,-0.48388671875,0.11403378754528187,0.3359962048443837,0.44570312499599996,-0.21203613281,1.13635253906,0.1359995633657648,0.36693264740563375,0.13435302734140003,-0.24291992187,0.38244628906,0.025628056122101145,0.15928520195197082,1.226394581111,0.51966364328,1.82394300496,0.14831030360302105,0.3831803760202117,970.8636933302237,970.79139944449,970.97505464863,0.0017216537153762884,0.18365520413999548,0.04128482988002404,0.0013426392680134793,0.9505444724988092,0.5,0.5,0.8079180968347554,Stairs down
-0.8651782226527999,-1.29260253906,-0.5234375,0.04700458303230689,0.21571865288375927,0.34054931640359987,-0.00756835937,0.69409179687,0.03659496360934447,0.19033920766161402,0.0938720703106,-0.58959960937,0.39318847656,0.04414974619502147,0.20906517819347928,0.9721606853126002,0.59179784441,1.43080064037,0.05524703159765339,0.2338686838413319,970.9388848260659,970.89868196136,970.98782121495,0.0006641884310565217,0.08913925359001951,0.025642670429305067,0.0007393069880499071,-0.999302580383103,0.48,0.52,0.2764790045780096,Stairs down
-0.7741967773403999,-1.373046875,-0.28576660156,0.0812794796683755,0.28366650290736084,0.6867309570268,0.0126953125,1.25280761718,0.12572022534943586,0.3527931732558632,0.18510253905979998,-0.14526367187,0.4453125,0.022186904699501218,0.14820605808301562,1.1043700543594002,0.36842027648,1.6244991842,0.11364094344019096,0.3354169554536399,971.0400277534245,970.98782121495,971.09306022346,0.0009218721260358693,0.10523900851001144,0.030210154001188254,0.0009836679347917476,-1.0521605517830246,0.5,0.5,-0.058027718751946324,Stairs down
-0.9609741210905999,-1.28698730468,-0.52319335937,0.03172530203785491,0.17722316162814714,0.5064428710897999,0.03039550781,1.04418945312,0.0651961085109633,0.2540554022764595,0.2052172851528,-0.14526367187,0.80883789062,0.03911400985804204,0.19678127390445876,1.139406738255,0.56437149249,1.66759391164,0.0590880083125189,0.2418617957210144,971.1063700872703,971.07017400156,971.11836668763,0.00016845371492616451,0.04819268607002414,0.012913914115282898,0.0003669345192231065,0.4637049263122579,0.34,0.66,-1.2793310778495717,Stairs down
-0.47487304687279985,-1.88366699218,0.16125488281,0.2833842149630932,0.5296700603332817,0.6883764648408,-0.25915527343,1.75061035156,0.3414216738078352,0.5813840873895302,0.2926391601558001,-0.23120117187,1.39904785156,0.2530357971616865,0.5005051839792168,1.1595555800066,0.32086736025,2.32989982824,0.3126246181813809,0.5563257786581232,971.1241003128443,971.09223232272,971.20315411788,0.0008617483924053242,0.11092179516003853,0.029208404757556875,6.025927284617797e-06,1.6594659699375507,0.7,0.3,1.4747987578340414,Stairs down
-0.3661840820309999,-1.74633789062,0.46643066406,0.49006924802749036,0.6965404191769602,0.49187499999780004,-0.65002441406,1.1435546875,0.20741214665235905,0.4531423895265543,0.5706591796843999,-0.06018066406,1.19995117187,0.11141352482531827,0.332113519112163,1.1847095032152,0.5002690128,1.8358436601,0.09995258607858849,0.31456805339672145,971.1600093787714,971.05729573547,971.27492148856,0.0032992072100253493,0.21762575309003296,0.057150810474787636,0.00011098250258711199,-0.2686499756137244,0.72,0.28,0.5064871391268162,Stairs down
-0.8139013671841999,-1.12121582031,-0.0732421875,0.10186642603426568,0.31756536614360675,0.5687207031208,0.29553222656,0.8916015625,0.03143506156082614,0.17641063161050663,0.22198242187119996,-0.14270019531,0.79235839843,0.039134280994001125,0.19683225900258605,1.087281726199,0.71959119789,1.32770307795,0.02392396774060919,0.1538984342454565,971.1382790933075,971.0811014384,971.18342609283,0.000814529689867958,0.10232465443004912,0.028396908158623158,0.0005669848705266588,-0.682868371101931,0.42,0.58,-0.46257485978389673,Stairs down
-1.0168994140602,-1.17102050781,-0.90747070312,0.006238259546911105,0.07858674793781706,0.38798339843359997,0.20068359375,0.61596679687,0.01167267245465327,0.10749858478187858,0.16336181640199998,0.01232910156,0.26684570312,0.004250935117458599,0.06487238061212193,1.1056719109534001,0.93580857122,1.29803706006,0.010840901624907378,0.1035977442257229,971.1658843701816,971.1561213717,971.17368933323,2.7358808958931124e-05,0.01756796152994866,0.005204346344099498,0.00013082140182212146,-1.0228044483803334,0.36,0.64,-0.533534731119077,Stairs down
-1.0127343749956,-1.16125488281,-0.89990234375,0.0045491465655543,0.06710927730127003,0.3737939453095999,0.24548339843,0.57153320312,0.00783990949101375,0.08809943470933064,0.131542968747,-0.00170898437,0.24914550781,0.003959132565256434,0.06260623962197275,1.0920151112974,0.98711227368,1.31804271144,0.006408165566882368,0.07964975775991753,971.174225366535,971.16492227275,971.18124543761,2.0668214715686375e-05,0.016323164859954886,0.0045234425572266874,4.140869974625281e-05,-0.5209839639885621,0.52,0.48,-0.20339883969091774,Stairs down
-0.9740600585896001,-1.08923339843,-0.35949707031,0.01956676307928079,0.1391800828009812,0.3575341796839999,0.16076660156,0.69165039062,0.02136696699890441,0.145441731731011,0.1586450195286,-0.04248046875,0.29077148437,0.0075818444080288875,0.08663732431203423,1.0687829029843998,0.70893436181,1.21663490797,0.007601469325679851,0.08674937828263124,971.1727399283257,971.16894573365,971.17773478765,7.611575298364443e-06,0.008789053999976204,0.002745079151022935,2.0506553058918642e-05,-0.9128532649942374,0.48,0.52,0.3678081297436448,Stairs down
-0.9601562499958001,-1.71533203125,-0.26843261718,0.13942785214979206,0.37152869825666784,0.598461914059,-0.04077148437,1.39404296875,0.12880689748601407,0.3570977856430279,0.0982836914054,-0.11560058593,0.376953125,0.025541127334898293,0.15901482969065908,1.20197207955,0.44900396436,1.80241621026,0.1371895042076968,0.36853440703090373,971.2089268566566,971.1697393054,971.23923564892,0.0005356852990953007,0.06949634352008616,0.023028861155175426,0.0006947963341943665,-1.459493217328267,0.54,0.46,-0.20918382057703327,Stairs down
-0.6700439453091999,-1.12072753906,-0.26916503906,0.03700137078128957,0.19139320017565062,0.6083300781217998,0.140625,1.09985351562,0.03254504406063955,0.17949817163423462,0.26016601562139996,-0.02807617187,0.59887695312,0.03336615516623811,0.18174843497146193,0.9776496508668001,0.71231266788,1.42723383133,0.03312659873550025,0.18109481701071747,971.2649909768234,971.23638598541,971.2929405731,0.0003440755854692745,0.05655458769001598,0.018456295121572524,0.000607982713550274,-1.421134330871969,0.42,0.58,-0.2555079554361484,Stairs down
-0.7957763671846,-1.25439453125,-0.09606933593,0.06255621019038242,0.24885869100451083,0.7528369140592,0.45593261718,1.26037597656,0.04636771544055744,0.21425227720178813,0.0792480468734,-0.36071777343,0.48693847656,0.05948365276389065,0.2426701799485296,1.1475746843848,0.75374052963,1.57611165646,0.05666620711293671,0.23685342522709554,971.3492549495146,971.2929405731,971.62877884773,0.004502981246757123,0.33583827462996396,0.06676789224087841,0.0016089562476036933,5.973814177310466,0.62,0.38,2.497405320550499,Stairs down
-0.21426025390220005,-0.91101074218,0.06860351562,0.0715051301134072,0.266064050206474,1.0560327148397999,0.60327148437,1.57568359375,0.08040126916712004,0.28212985746894786,-0.0296533203124,-0.40844726562,0.31970214843,0.03299572000464123,0.18073672234660787,1.1224497089254002,0.68676855451,1.59071069647,0.08601173701721794,0.2918075044392206,971.3978167190097,971.29341427881,971.62877884773,0.0026905363885268902,0.33536456891999933,0.05161037710230009,0.0009178525422467845,6.042905684081299,0.56,0.44,1.5098082423395296,Stairs down
-0.4664208984339999,-0.994140625,-0.08605957031,0.037340814321047223,0.19226909834353714,0.8623437499964001,-0.08972167968,1.3359375,0.13597086851007503,0.36689393538865467,0.2576074218706,-0.07141113281,0.67016601562,0.032301718803096825,0.17882589749548541,1.0627560167321999,0.38127602504,1.53248817636,0.10268050300466222,0.3188317706481203,971.5111772366887,971.45672327214,971.6369266703,0.001338347573343638,0.18020339815996067,0.036400056285810896,0.0005810053658054594,3.448421529857849,0.5,0.5,1.2769644166188263,Stairs down
-0.9771728515584001,-1.50891113281,-0.56689453125,0.06343920664338243,0.25060888766551875,0.4698632812470001,-0.27185058593,0.87829589843,0.06251560596442421,0.24877791281538633,0.17003417968519996,-0.15856933593,0.40490722656,0.021998891830311368,0.14757676955404686,1.1318326520981998,0.60642994294,1.58949327003,0.07068577998701508,0.2645352947852988,971.5713979215626,971.54467772901,971.60374078774,0.00030090589927440653,0.05906305872997564,0.017259688301984554,0.0005770706530339776,-1.1377808492657715,0.5,0.5,0.32863389854527825,Stairs down
-0.8645825195271999,-1.53674316406,-0.50659179687,0.09092064855682412,0.3000190695126826,0.6419897460906,-0.27185058593,0.87805175781,0.05742552647052214,0.23843504609393504,0.21314697265400004,-0.06140136718,1.162109375,0.055368316444174934,0.23412525126464506,1.1648286454165997,0.84604919612,1.69217703966,0.05044138634789597,0.22346581949912833,971.6267503749056,971.60028684636,971.64426150088,0.0001846388012032182,0.043974654520070544,0.013520074452131763,0.0003891705208184492,-0.9736265804963362,0.42,0.58,-0.48345289095007987,Stairs down
-0.2175634765626,-1.32189941406,0.74963378906,0.527341795108445,0.7225429932933822,0.44118408202759996,-0.03820800781,0.79345703125,0.04693051642274121,0.2155486285238526,0.0027221679694000135,-1.01293945312,1.20275878906,0.29409506600532875,0.5395869858931694,0.9883500953473998,0.13679387889,1.51067546951,0.1260933975291295,0.3533163788360769,971.6349654013711,971.27921799303,972.14538951952,0.07667713080971168,0.8661715264900067,0.27551834694193156,-0.005843854199008399,-0.6341161322247828,0.54,0.46,0.7361361081403296,Stairs down
-0.9256640624964,-1.14831542968,-0.39367675781,0.022447779900842877,0.14907482048231502,0.41282714843419993,0.22741699218,1.04284667968,0.04029720999962662,0.19973541974229395,0.33531738280900003,0.12805175781,0.97302246093,0.03889631974540614,0.19623291402808063,1.1066539121694001,0.93253015241,1.4525242148,0.015818155074054804,0.12513981589931422,971.6371340994924,971.54848626891,971.65802616524,0.0006988407020433601,0.10953989633003403,0.026303085275741447,0.0007680197083670696,1.8087619395998997,0.34,0.66,-1.6041540711804267,Stairs down
-0.6676904296848,-1.02294921875,0.34741210937,0.18423490574683843,0.42707441586844097,0.5531982421849999,-0.19116210937,1.42443847656,0.14498263657623522,0.3788572425208114,0.07813720703040002,-0.24230957031,0.90515136718,0.06653549710143479,0.2566517915979167,1.0420539097168002,0.44424489524,1.47195532229,0.0645084711605961,0.2527120623337757,971.6451029903385,971.59916141848,971.75116014202,0.0013166437723213164,0.1519987235400322,0.036103702505395525,-0.00011873066594251243,3.2519793965684505,0.48,0.52,1.7706224158278943,Stairs down
-0.46487304687200004,-1.01416015625,0.65246582031,0.25961766734071534,0.5069728697546922,0.43750732421579996,-0.07153320312,0.95532226562,0.06188698092460036,0.24752396068937318,0.4154809570294,-0.11083984375,1.19445800781,0.19877325819488967,0.4436051460622845,1.0279081617204,0.48800741528,1.37461372389,0.03901411370779661,0.1965298261606076,971.6495614929049,971.61197011654,971.73346186574,0.0007022452175004303,0.12149174920000405,0.026367077299644454,0.00019877803263204983,2.7685678921504566,0.66,0.34,1.7091993323120127,Stairs down
-0.8899145507783999,-1.39501953125,0.41711425781,0.11957608791822423,0.34406442280340754,0.4539160156205999,0.17541503906,0.72302246093,0.03049013364167984,0.17373897750724518,0.18675048828000002,-0.21252441406,0.46789550781,0.033129680643811575,0.18110324082515325,1.0719831308996,0.62442435935,1.57298055944,0.06573688085364737,0.25510686397098553,971.6240178095802,971.56549771271,971.69077484655,0.0009473232353414398,0.12527713383997252,0.030624336776296487,0.0009066847032196172,-0.5594060768628166,0.42,0.58,-0.18797367759857755,Stairs down
-0.8120849609335999,-1.75952148437,-0.07641601562,0.240598423313161,0.4880496276814781,0.6782910156215999,-0.17724609375,1.27917480468,0.14578919588847378,0.3799095996807517,0.14623779296540002,-0.20361328125,0.36853027343,0.02146494719060801,0.14577481853427887,1.1668248117592,0.3834063925,1.87286677603,0.18509098700170065,0.42806550565501494,971.694522167857,971.65556044926,971.74808507277,0.0006408131262698104,0.09252462351003032,0.025187397543357123,0.000666353397051745,-0.8254040760290864,0.54,0.46,0.3309284076622059,Stairs down
-1.0157519531216,-1.3037109375,-0.60266113281,0.028116578381572943,0.16683948153167227,0.25965087890300004,0.04370117187,0.51208496093,0.01796900046562504,0.13337657388375512,0.1871240234346,0.01000976562,0.34155273437,0.007340767070518727,0.08524880878823786,1.075295276997,0.61790488596,1.35947893556,0.031129453592694967,0.17555101553898234,971.7684876732741,971.74808507277,971.78922735976,0.00011326973616156284,0.04114228699006617,0.010589477739716309,0.00035080485212120744,-0.40434538324850955,0.46,0.54,0.04164142440313256,Stairs down
-0.9406323242142,-1.28356933593,-0.63098144531,0.04252936780444526,0.20519277308521566,0.3588623046835998,0.15954589843,0.68823242187,0.023381594455790893,0.1521439401068376,0.1976879882782,0.03967285156,0.47631835937,0.015909808579257608,0.12550183462190914,1.0388514432377998,0.68491052507,1.39809740182,0.05499202606611325,0.23332832191024758,971.8306114544635,971.78786352157,971.88586351154,0.0007906870231335403,0.09799998997004877,0.02797820853632707,0.0009115555569412667,-1.0198722576311827,0.54,0.46,0.24359040975692076,Stairs down
-0.8068261718713999,-1.24548339843,-0.35705566406,0.060085546031547185,0.24389483506468873,0.7088330078083999,-0.07849121093,1.30578613281,0.12172964700464566,0.3471488881367751,0.1805151367174,-0.34497070312,0.54907226562,0.056141587392529536,0.23575447295566682,1.151821271165,0.36558285576,1.66776570104,0.09584180916751613,0.30803147741073633,971.9262608333743,971.8804422536,972.05625486392,0.0018896658897161358,0.1758126103200084,0.04325238988563493,0.0010381863431055682,3.719901324515278,0.62,0.38,1.9953002694962512,Stairs down
-1.0719775390585997,-1.65161132812,-0.48889160156,0.1269260643467139,0.35448103433504985,0.4400952148405999,-0.13464355468,0.99914550781,0.09874244399035158,0.3126579913426939,0.1517846679662,-0.06665039062,0.38488769531,0.012001106889461627,0.10900043954299915,1.2215905527588005,0.51895054651,1.73531154743,0.10996734170420276,0.32995100891974966,972.0227686612791,971.95909220373,972.07751518025,0.0013585979915978113,0.1184229765199234,0.03667440540324864,0.0012544550754112198,-1.2592315252681996,0.46,0.54,-0.197460220182226,Stairs down
-0.8483520507777998,-1.30517578125,-0.43115234375,0.06112006713036611,0.24598550050574616,0.6194653320283999,-0.00634765625,1.11291503906,0.10380749727117736,0.3205767026757646,0.04081542968740001,-0.10925292968,0.16943359375,0.006348804247049027,0.07927998615400066,1.0974302430162,0.49800859191,1.42338549898,0.07102511678680754,0.2651695035612871,972.0948241172671,972.07356559115,972.13517404293,0.00033834499598090357,0.06160845177998908,0.01830195470492413,0.0006062159759480395,-0.8674943305881166,0.54,0.46,0.5756775274599609,Stairs down
-1.1861108398395999,-1.56311035156,-0.50207519531,0.06068466280995667,0.24510776442588902,0.3359472656221999,-0.28479003906,0.70861816406,0.06450344025430148,0.25270220784899855,0.1261572265608,-0.04467773437,0.33410644531,0.013365289923728933,0.11502885300867623,1.2656714095632,0.5045812802,1.67157160599,0.07159482581150102,0.2662308726526396,972.1756831659726,972.13517404293,972.19774189624,0.00025808532055129115,0.06256785331004266,0.01598450710362313,0.0005092420549087893,-0.21513898948637333,0.42,0.58,-0.9291178641200077,Stairs down
-1.037878417964,-1.18298339843,-0.96630859375,0.0014622134692727292,0.038047225057551856,0.377102050777,0.21862792968,0.54504394531,0.00937010380347252,0.09631408394122738,0.122680664061,-0.01892089843,0.23303222656,0.006248359125932752,0.07865033715549746,1.11764146675,1.04347121889,1.24341509397,0.002258115097183346,0.04728143341959413,972.1978736611726,972.19337667092,972.20664024273,9.885356526359626e-06,0.013263571810057329,0.00312833869027892,-3.2315791162911444e-06,0.38276655367123835,0.42,0.58,0.48097012407410367,Stairs down
-1.0132983398397999,-1.10046386718,-0.91772460937,0.002020208769340013,0.04472143425301354,0.3741528320274,0.17199707031,0.5400390625,0.011763177381593088,0.10791452917831387,0.08812988281020001,-0.02941894531,0.2080078125,0.004727270241713573,0.06841050752111431,1.0907146716005998,0.98716365814,1.22746658414,0.0032300994599610763,0.056549080146024173,972.2003558694034,972.19121816542,972.20584637532,1.2330937290032653e-05,0.014628209900024558,0.0034939416018491677,-2.6813386688313726e-05,1.3804426664753704,0.5,0.5,-1.0312722951814786,Stairs down
-0.9961071777308999,-1.14733886718,-0.86840820312,0.005298665946904385,0.07242706184455738,0.3403295898398999,0.10778808593,0.52978515625,0.01384160223059903,0.11706060912319327,0.13975219726080002,0.01342773437,0.2509765625,0.0029290142008461502,0.05384908596102341,1.0684899510987997,0.9493529064,1.2424501885,0.006018007446298539,0.07718696374282093,972.2026395411169,972.19473851796,972.20838737165,1.536935366555073e-05,0.013648853690028773,0.003900725590053115,8.826439348357819e-05,-1.0206682218630199,0.48,0.52,-0.3554527783695802,Stairs down
-0.9532385253876998,-1.22229003906,-0.74230957031,0.01736413597314146,0.1311125265312588,0.4064013671839999,0.02233886718,0.71362304687,0.02925869344448657,0.17019431985246072,0.1572375488248,0.04760742187,0.27685546875,0.004695737029282071,0.06818195992334959,1.0620460303405002,0.79083537179,1.30494138109,0.021629307590377605,0.1463318643169485,972.2418925038319,972.20630630694,972.28917882716,0.0007219792564632002,0.08287252022000757,0.026734985765819442,0.0009143759800846068,-1.2513487783040236,0.5,0.5,0.2587622087962587,Stairs down
-1.0485681152293997,-1.36462402343,-0.75634765625,0.02116518509956349,0.14475335315137902,0.3118334960912,0.02490234375,0.61462402343,0.023771554357947564,0.15340742750717154,0.18588500976100003,0.06811523437,0.32067871093,0.005665860650179483,0.07489460623888537,1.1235164677654002,0.81083940489,1.405516889,0.019288665843634256,0.1381874783951061,972.3316055739671,972.28917882716,972.35607799919,0.00029668260425341,0.06689917203004825,0.017138138119728055,0.0005644907344424664,-0.5116503292453793,0.34,0.66,-0.65098599087148,Stairs down
-0.9149096679648,-1.15112304687,-0.65075683593,0.021271631217979873,0.14511690082757445,0.41669677733959987,0.23510742187,0.65759277343,0.018631079636371017,0.13581151954089649,0.15118408202800002,0.01501464843,0.28344726562,0.00577395988837105,0.07560568953119427,1.026415051311,0.71119243117,1.2862666762,0.025499573654906897,0.158885423870026,972.4015824385579,972.35607799919,972.46091065877,0.0009923791792911024,0.10483265957998356,0.03134414438931443,0.001069174677922372,-1.0282957338289656,0.5,0.5,0.39330309515331674,Stairs down
-0.9364575195274,-1.21923828125,-0.58959960937,0.02836098045432946,0.16756303485490517,0.4214794921838,0.2060546875,0.61669921875,0.01754266960451569,0.13178483565445054,0.0505810546846,-0.04565429687,0.20300292968,0.0038273007939112176,0.06155507928653902,1.0365940041651998,0.65314262265,1.30256746701,0.03218444765121674,0.17850098928214533,972.5004869761548,972.45599345985,972.53916420524,0.0006876847444728374,0.08317074539002078,0.02609229574085249,0.000895519017760421,-1.2175506285477515,0.42,0.58,-0.03968271238651489,Stairs down
-0.9794360351528002,-1.24182128906,-0.70007324218,0.02996229475813697,0.17222854528374673,0.45287353515259987,0.18029785156,0.734375,0.0236233752244475,0.15292855021938523,0.1100878906222,-0.10705566406,0.28649902343,0.007704161248760595,0.08733338214149838,1.0979168551118001,0.73172947007,1.35310593166,0.03208509256533511,0.17822525533627875,972.6085771854102,972.53916420524,972.66096751479,0.0011571890986530405,0.12180330954993224,0.03384696748109807,0.0011575851474103108,-0.9787203515383411,0.42,0.58,-0.34329251417079937,Stairs down
-0.8606408691368997,-1.17944335937,-0.55822753906,0.037237882811450816,0.1920039165833247,0.5229919433562998,-0.01831054687,0.953125,0.08722140944771509,0.293852335966958,-0.040183105467499994,-0.19409179687,0.14758300781,0.007651666612881656,0.08703533734497063,1.0477520783881,0.62210066165,1.39541341623,0.056551347116989815,0.23661325754450008,972.6941928208007,972.66027567896,972.7412734608,0.000456517803666209,0.08099778183998296,0.021259177444801266,0.0006058575525511224,-0.4552014704501399,0.62,0.38,0.5818932082133822,Stairs down
-1.0868725585898,-1.38708496093,-0.88073730468,0.015951830696746192,0.12566746750762,0.35776000976279987,-0.00354003906,0.7216796875,0.030596502156725346,0.1740417683636836,0.1995288085907,0.04565429687,0.30249023437,0.006751054290581188,0.08175294335787169,1.1735541655581,0.90917133692,1.56263943526,0.0248817600333697,0.15694885292042118,972.7673560345661,972.7412734608,972.78175392616,0.0001652401079486453,0.04048046536001948,0.012790141002708252,0.00041029409167117284,-1.0447611382504516,0.42,0.58,-0.6162183175066505,Stairs down
-0.7837878417933999,-0.83032226562,-0.63000488281,0.0009687480586808432,0.03096870320329921,0.6713146972608999,0.43725585937,0.72631835937,0.0033783509559717497,0.05783223535721261,-0.23656494140299994,-0.50769042968,-0.17700195312,0.003665785542655372,0.06024224171815669,1.0620040673648001,0.91970017468,1.08354305872,0.0010402947640849244,0.0320919275900354,972.7234863284277,972.57462418599,972.79490942747,0.0038311783930105596,0.22028524147992812,0.06158625340999771,0.001813671782158532,-0.4486765572051383,0.36,0.64,-0.8147003414157268,Lift up
-0.7473791503858999,-0.78002929687,-0.72607421875,0.0002001979901699555,0.014078210478191322,0.6706506347627998,0.64831542968,0.69982910156,0.00015831308384916355,0.012519183400312973,-0.2316662597613,-0.24060058593,-0.22119140625,2.104305708753184e-05,0.004564277217332063,1.0305909203405,1.00857994519,1.07333885916,0.00027801793476940373,0.01659029099870493,972.6660507480166,972.56069999627,972.77572207912,0.0036726241501914086,0.2150220828499414,0.06029840718202674,-0.0020780320285114775,-1.1051791356123695,0.46,0.54,0.09821329464662301,Lift up
-0.7398278808561,-0.74633789062,-0.73266601562,1.5802472227497413e-05,0.003955306246704854,0.6763403320275999,0.654296875,0.68530273437,4.138464276674322e-05,0.006400843408417034,-0.20902465819860003,-0.22729492187,-0.18493652343,0.00021533594438645246,0.014600773436451506,1.0240673822390003,1.00857994519,1.03676215068,2.8929513266963274e-05,0.005351655644218305,972.451803733869,972.34785879945,972.56069999627,0.004075858528617474,0.21284119682002256,0.06352243653490709,-0.002193916820116842,-1.1824945659037946,0.54,0.46,0.027996372702833967,Lift up
-0.7394946289021002,-0.75122070312,-0.73278808593,2.3390253393650495e-05,0.004812104618533765,0.6736572265591998,0.63000488281,0.69030761718,0.0002015467845906773,0.014125555449070685,-0.19622924804310002,-0.2119140625,-0.17602539062,7.175029378036273e-05,0.008428095327092539,1.0195076684424,0.99495798321,1.03032872923,7.082556171717019e-05,0.008373607711136133,972.2376818882202,972.13160076594,972.34785879945,0.0038551209764860713,0.21625803351003015,0.06177839239346724,-0.0021320952440661623,-1.184417981787304,0.47,0.53,-0.052126161162460063,Lift up
-0.7420385742144999,-0.7470703125,-0.73657226562,7.82132751416817e-06,0.002782645187411879,0.6871154785121999,0.63208007812,0.72998046875,0.000417486999696016,0.020330079431695684,-0.16016845702809998,-0.20959472656,-0.12487792968,0.0006105446755247549,0.02458534581350255,1.0243464787857997,0.99693283941,1.0531323659,0.000144087810699484,0.011943489129751371,972.0207079210363,971.92224658763,972.13160076594,0.0035896542284364896,0.20935417831003633,0.05961340190051331,-0.002052632440155572,-1.0876978005569113,0.47,0.53,-0.06849845151767761,Lift up
-0.7410534667934999,-0.74499511718,-0.73706054687,3.700995385851466e-06,0.0019141539729062944,0.6916394042930998,0.67736816406,0.70422363281,3.32112550054456e-05,0.005734033698487579,-0.16050537108989998,-0.17651367187,-0.14526367187,6.387601597863363e-05,0.007952185600125748,1.0263364457778001,1.01509069179,1.0340335876,2.076850517775494e-05,0.0045344040541153135,971.8232723505139,971.72755654116,971.92224658763,0.0035483253199826014,0.19469004646998656,0.05926923372866209,-0.0020353343319673835,-1.4041453754163835,0.55,0.45,0.04285116273158345,Lift up
-0.7383374023403999,-0.7490234375,-0.73156738281,1.9680195384713465e-05,0.004413999708978958,0.6890588378868,0.67883300781,0.69921875,1.991754078630966e-05,0.004440536609290206,-0.16453979491889995,-0.17712402343,-0.15234375,4.6582864692661266e-05,0.00679095251387717,1.0232714863496002,1.01401293534,1.03068579064,1.851504709207929e-05,0.004281342852559054,971.6261134197036,971.51633313636,971.72755654116,0.0037627325547983153,0.21122340479996637,0.06103364014418878,-0.0021065486675959783,-1.1983043331959244,0.47,0.53,-0.10881400288785081,Lift up
-0.7228735351519998,-0.73791503906,-0.70178222656,0.0001436615170824585,0.011925808228863733,0.6699719238246999,0.63256835937,0.69677734375,0.0003873278682289882,0.0195819965669157,-0.16767211913650001,-0.1845703125,-0.15380859375,6.039072015706951e-05,0.0077321932823422625,0.9998421871787001,0.9652812213,1.02846042153,0.00042781122693774946,0.02057992018129254,971.4178795748827,971.3282022376,971.51633313636,0.003041382142034852,0.1881308987600505,0.05487229100934736,-0.001891259590210459,-1.029278359279855,0.47,0.53,0.09095309373510968,Lift up
-0.37207519531120015,-0.77612304687,0.06164550781,0.12124847159042718,0.34646210019931895,0.3094140624992,-0.35900878906,1.205078125,0.27051140746368085,0.51750004192178,-0.5245629882777,-0.97436523437,-0.16125488281,0.11942797585596439,0.3438512703152407,0.9934204130485997,0.58115046376,1.36196397465,0.02882343536169684,0.1689236543769992,971.3339929186886,971.30344669423,971.39696038362,0.0008114186032328541,0.0935136893899653,0.028342625446498876,0.0006908190183763239,-0.15351042820893568,0.69,0.31,1.0106143272772707,Lift up
-0.050118408203100005,-0.29016113281,0.11987304687,0.021494150237316066,0.14587394810226706,0.6883447265592,-0.37023925781,1.01611328125,0.18028451688195435,0.42247091226868483,-0.5694580078084999,-0.93725585937,-0.09497070312,0.048507098597524216,0.21913928815150643,1.0221633791277998,0.86442584974,1.10818090782,0.0036138126366592463,0.05981366491273256,971.2111689208571,971.10472273399,971.37264826573,0.002746821232044442,0.2679255317400475,0.05214741623248459,7.57810798406944e-05,0.13577318467523591,0.48,0.52,0.35246372651109004,Lift up
-0.1585095214843,-0.82214355468,0.21545410156,0.11127563512988012,0.33190793720334755,0.8400939941355,0.50231933593,1.02905273437,0.02403896426154159,0.15426786644964716,0.32629150390350004,-0.09497070312,0.68115234375,0.0483958233420543,0.21888779113654044,1.0091469646726998,0.91521019083,1.04809471501,0.0008535910129923638,0.029069831490093647,971.2409555898045,971.19470577357,971.29077572207,0.0005412540402808195,0.09606994849991679,0.023148250471212967,0.00036207850412004725,0.26057653961994864,0.37,0.63,0.1440965663735754,Lift up
-0.6673010253870999,-0.69226074218,-0.63818359375,0.0003988575619178392,0.019871310633641174,0.7427539062462,0.70190429687,0.77563476562,0.00046742188809235723,0.021511570589137226,-0.07971069335559999,-0.09497070312,-0.06176757812,6.98787681351316e-05,0.008317450357758696,1.0017280114614002,0.95164102972,1.03262510518,0.0008036424775532927,0.028206489550771107,971.1620334461848,971.15451781547,971.16915846575,1.0017892974112878e-05,0.014640650280057343,0.00314924023287709,-5.2135221176336165e-05,-0.06156702505986367,0.28,0.72,-0.8593522524406976,Lift down
-0.6632873535122,-0.70141601562,-0.63732910156,0.0003063430012206717,0.01741492380713924,0.7409179687452999,0.71545410156,0.78930664062,0.0003530937011594878,0.018696597662352713,-0.06737548827749999,-0.09594726562,-0.01928710937,0.00045908635917454887,0.02131889996183676,0.997083058552,0.96763363472,1.03868231594,0.00038557408247198705,0.019537613509517153,971.2330562389784,971.16291648723,971.32016021479,0.0025571590552541,0.15724372756005778,0.050314883133140226,0.0017291422937299476,-1.3133115456559805,0.49,0.51,0.1795620010615932,Lift down
-0.7146826171832,-0.76745605468,-0.62866210937,0.0011981770486180223,0.034441185782894325,0.7601708984337999,0.71057128906,0.93688964843,0.0016732248633324418,0.040700032121598104,-0.0009912109396000002,-0.19750976562,0.06420898437,0.003068716019933453,0.05511831691673937,1.0450618334371,0.96183843944,1.22176856579,0.002382324926512518,0.04856440751463352,971.4598073292934,971.32016021479,971.57164932416,0.006049201612553504,0.2514891093700271,0.07738675336534004,0.002657442700439502,-1.4015218713281707,0.57,0.43,-0.025871527562593446,Lift down
0.6138513183573999,-0.75891113281,0.96301269531,0.24226916259257011,0.4897412285755044,0.5044335937460999,-0.00952148437,1.52490234375,0.16516035641075494,0.4043621555569306,-0.17579589843410004,-0.388671875,0.19006347656,0.020622239955200312,0.1428846302288959,1.0096747937637,0.24341818158,1.60354433951,0.06717064814088283,0.2578738871221241,971.6014936514667,971.57164932416,971.61938788821,0.0001511240288072742,0.04773856404995058,0.012231630656588739,0.0002904636113173901,-0.7836675140463516,0.45,0.55,-0.3050214194634899,Lift down
-0.36782226562359993,-0.91296386718,0.93408203125,0.36659596423554963,0.6024367224806222,0.6779016113237999,0.21752929687,1.2431640625,0.09177969280370808,0.30143307030860267,0.07804321288849998,-0.1806640625,0.28662109375,0.020728322909654588,0.14325166554200353,1.0228058431543001,0.59720695661,1.3446286733,0.02940980218191706,0.17063324459230647,971.6536270046877,971.60997052589,971.70305104702,0.0006883005959293713,0.09308052112999121,0.026103976516425185,0.0006121170305521982,-0.8665230869823599,0.49,0.51,-0.20601728103068465,Lift down
-0.5211791992142,-0.64038085937,-0.44079589843,0.0027966913250309774,0.05261866980246334,0.8452416992148,0.720703125,1.10668945312,0.0065127772454721565,0.08029725694578511,0.2576635742147,0.15881347656,0.35192871093,0.0024834328167041377,0.04958425645844754,1.0291151080208,0.89374889493,1.25346940295,0.005099870789885535,0.0710554155711349,971.675032212688,971.62112528655,971.70845465001,0.0006926993733568426,0.08732936346007136,0.026187256053723424,-0.0001523532871149466,-0.8414238550394741,0.4,0.6,-0.4080330250392882,Lift down
-0.6148498535119999,-0.720703125,-0.39758300781,0.006527172608573579,0.0803859495340314,0.7779833984339,0.66088867187,0.92431640625,0.005304501249460477,0.07246693202396437,0.24973754882450006,0.18969726562,0.36059570312,0.0022523666195122683,0.04722121295897793,1.0290977747527998,0.99296933255,1.07733528958,0.0005740646155261361,0.02383954633315984,971.6694935013178,971.62224284499,971.69449499768,0.00027013694346657296,0.07225215268999818,0.01635345755587812,0.0001754615873523851,1.7020034510576165,0.44,0.56,-1.0767806575993513,Lift down
-0.8240441894494,-0.92785644531,-0.79736328125,0.0011303961442333725,0.03345283519809702,0.5400634765589999,0.42883300781,0.67065429687,0.003590780978191861,0.05962275713525786,0.09156249999740002,0.03771972656,0.18078613281,0.002058270507350497,0.04514075544645872,0.9920802417425004,0.91272433867,1.05839368471,0.0011835415622761772,0.03423019349424446,971.6626237823783,971.60220556809,971.73677944126,0.0013162331214991965,0.13457387316998393,0.03609807183609957,0.0007590433423295957,-0.3792956149017317,0.6,0.4,0.5226715528691905,Lift down
-0.8220800781207999,-0.88342285156,-0.78601074218,0.000743003951217279,0.027121465884149886,0.5591308593708,0.51647949218,0.63708496093,0.0008931015477504732,0.02973500516685626,0.09896484374719998,0.0615234375,0.13220214843,0.0006041665510473919,0.0244565918626639,0.9996042221039998,0.94540640467,1.06918864171,0.0012588702265346873,0.035302712704115814,971.6841269301875,971.58488656502,971.776321885,0.004377851585388042,0.19143531997997343,0.0658336773204578,0.0020273710427395272,-1.3548468108200495,0.53,0.47,-0.17308249963541586,Lift down
-0.8090527343711998,-0.82629394531,-0.79174804687,9.18372472149197e-05,0.009535138947218887,0.5769531249972001,0.53918457031,0.64184570312,0.0006053833046335721,0.024481206497785936,0.24026855468239994,0.13903808593,0.27282714843,0.0009773614671553742,0.031106074205592395,1.0230992731967998,0.98962827714,1.04142692986,9.689615232929406e-05,0.00979424273775166,971.9102177124186,971.776321885,972.00506213701,0.0032523472867125023,0.2287402520099704,0.05674349137870684,0.0019195753486608153,-0.8531067932316252,0.53,0.47,-0.02705605316753372,Lift down
-0.8548876953087998,-0.865234375,-0.82861328125,6.740777179016436e-05,0.008169069351661958,0.5530175781223998,0.52941894531,0.58361816406,0.00013617279554518127,0.011610816835594706,0.29174804687120004,0.2783203125,0.29821777343,2.26232740551018e-05,0.004732551247958207,1.0592180028335998,1.03577252163,1.06883361723,6.010144557555279e-05,0.007713652255565924,972.112780269234,972.00506213701,972.1700975263,0.002310498840049891,0.16503538928998296,0.047826706468764836,0.0016198841990513978,-1.0155641541375422,0.45,0.55,-0.4646128610912837,Lift down
-0.823378761211881,-0.84448242187,-0.81396484375,5.519011233561576e-05,0.007392136063399914,0.5329384378833661,0.52502441406,0.54162597656,2.1486004979665613e-05,0.004612295768605334,0.28403948793,0.27490234375,0.29772949218,3.249567333436581e-05,0.00567220715369437,1.021131968329901,1.01324643595,1.04255905391,5.2507709100383294e-05,0.007210258718829631,972.1888559290927,972.16940862921,972.20028789394,6.181711695405914e-05,0.030879264729946954,0.007823366685203222,0.00024554819190749597,-0.4566796958168262,0.29,0.71,-0.4539833929993017,Lift down
-0.8230859374955999,-0.84460449218,-0.80822753906,6.639779214926806e-05,0.008107639251210884,0.5301611328088,0.51550292968,0.54382324218,5.1112993796730985e-05,0.007113498707300344,0.29113281249639994,0.27648925781,0.3076171875,9.146781883112278e-05,0.009515941395511615,1.021487043886,1.00247300103,1.03945506001,7.14239904200332e-05,0.008408908996762473,972.2038001749964,972.19487169431,972.21609291419,3.340204677983843e-05,0.02122121987997616,0.005750480528794098,5.504202740832237e-06,-0.7070924660231359,0.64,0.36,0.4026246735878214,Lift down
-0.1096875000008,-0.89709472656,0.31774902343,0.14288594515412797,0.37610781127568554,0.0212255859372,-0.39001464843,0.41455078125,0.04199988350546692,0.2039114628225011,0.9575830078087999,0.67541503906,1.29431152343,0.014981489133289368,0.1217853613615219,1.053885407424,0.85178879697,1.29978653961,0.016809376397651694,0.12900109547470975,972.0521704331419,972.03768766397,972.07261910425,9.434631704015622e-05,0.03493144027993367,0.009664515190621548,-0.0002839073719398254,-1.0115161056849586,0.47,0.53,0.16544741069269117,Stairs up
0.14645507812160002,0.06042480468,0.22241210937,0.001690020802057534,0.04090379681688436,0.6633203124968,0.30603027343,1.03833007812,0.052128676116005766,0.227172598160178,0.7087011718715999,0.26989746093,1.07385253906,0.04810946604247018,0.21823925261521007,1.0191758722188,0.79286947709,1.32448153293,0.026151212835196395,0.16090276786570337,972.0339582453905,971.95689786869,972.1717047228,0.0034237731554765368,0.21480685410995193,0.058219716796990444,-0.00070799049370895,0.2976210539188555,0.55,0.45,0.7580860028226507,Stairs up
-0.0115722656236,-0.51013183593,0.26110839843,0.03877299843302789,0.19592158750045285,0.736762695308,0.25415039062,1.18151855468,0.0775885932136401,0.27715105498897835,0.45256835937199996,-0.55859375,1.1689453125,0.20205407079860627,0.447251081709838,1.0111194990455998,0.69497167613,1.39165284179,0.041050677685152685,0.20159407458628628,972.0284670337729,971.92941195212,972.21634701223,0.009381421200206214,0.28693506011006775,0.09637223141654526,0.0024647159225316658,-0.8148944195307486,0.65,0.35,0.8275285456633847,Stairs up
-0.5268945312467997,-0.69494628906,-0.35986328125,0.013853555640503085,0.11711114414989741,0.752832031246,0.53454589843,1.01635742187,0.01413877202995026,0.11831054183651919,-0.3868408203071999,-0.53698730468,-0.08776855468,0.010290670876573744,0.10093445481007964,1.0078603083591997,0.80599906661,1.26002684258,0.016300507054819936,0.12703346796916054,971.8582269788255,971.77848651723,972.04410604389,0.0026544622953376174,0.26561952665997524,0.05126321948906683,-0.0005793398486172127,0.7074419425408283,0.43,0.57,0.7124388165496686,Stairs up
-0.9299169921836,-1.29077148437,-0.70080566406,0.033581282538569075,0.18233340262602293,0.3843212890591998,0.23352050781,0.578125,0.0074764801757782155,0.08603322250166172,0.284897460934,0.00463867187,0.54028320312,0.017904189283140824,0.13313582309171867,1.0542829455748,0.81076211484,1.4633783411,0.04088366865652335,0.20118357778396853,971.8330247428626,971.80302619685,971.8926146423,0.0004866389369206076,0.08958844544997646,0.021949317701272664,-3.565202710803964e-05,1.7334168901759526,0.63,0.37,1.5405901460357356,Stairs up
-0.9342041015588001,-1.21752929687,-0.71997070312,0.024450479131683862,0.15558269293326626,0.37885253905799987,0.24499511718,0.62866210937,0.009960647881579273,0.09930277641014615,0.25521972655800007,0.09790039062,0.42211914062,0.007920186062165853,0.08854933202201017,1.0481938475079997,0.84340373634,1.36310233551,0.024849814683301615,0.15684806832240109,971.7616210086494,971.72482868983,971.90325156709,0.0014894822125046494,0.1784228772600045,0.03840035664391156,-0.0002527611822945582,5.002212551217648,0.68,0.32,2.1585941426382345,Stairs up
-0.8605712890583999,-1.14318847656,-0.732421875,0.009539671618464547,0.09718165928960001,0.39385742187079986,0.12780761718,0.89282226562,0.029473256727758378,0.1708172244256439,0.47845703124679984,0.13220214843,0.78625488281,0.04128878660886288,0.2021778888572493,1.0876331221439997,0.83372949283,1.40181452825,0.02139457826863693,0.14553567427249772,971.7323837994248,971.61614706754,971.83347970009,0.0025714653662440314,0.21733263254998292,0.050455432934240006,-0.00033686358425603224,0.7110222010646909,0.52,0.48,-0.24130456419172264,Stairs up
-0.9936376953083998,-1.38781738281,-0.73059082031,0.0347041100203213,0.18535659934331467,0.3000585937460001,0.17272949218,0.53857421875,0.006105800975553959,0.0777479450905194,0.18011230468399994,-0.169921875,0.39929199218,0.01780092489814426,0.13275133012200976,1.0659124006168001,0.7912217425,1.45882923062,0.03196661946182382,0.17789590570669575,971.6630191044555,971.63418965705,971.67893898226,0.00012470045785391954,0.04474932520997754,0.011110960951933022,-0.00011481934430909919,0.15169294361777208,0.4,0.6,-0.9022217411562135,Stairs up
-1.0046826171836,-1.39318847656,-0.751953125,0.028767637387503327,0.16876006936958843,0.224545898434,-0.16564941406,0.5048828125,0.020560828266626367,0.1426717210380533,0.21691894530879996,0.08715820312,0.38928222656,0.005001996502758665,0.070370281637429,1.0622272524535998,0.81775233075,1.47501983487,0.03264875988590106,0.1797839600382694,971.6091167238244,971.5821871843,971.64841011513,0.0003264998987051445,0.06622293083000841,0.017978734652864006,-0.000607052905864893,-1.0633543269896593,0.52,0.48,0.23944220824465992,Stairs up
-0.9970605468707998,-1.14184570312,-0.88940429687,0.0035050733160831116,0.05890689758357913,0.3994140624963999,0.19799804687,0.60021972656,0.010075651034045927,0.09987439373385687,0.15828124999920004,-0.17639160156,0.47131347656,0.03609040033846814,0.18902247574054112,1.1058428211704,0.95474434697,1.24605240349,0.005050858440780879,0.0707131519335199,971.5827731613664,971.56204440733,971.60944021952,0.00012567244047619676,0.04739581219007505,0.011154179309632547,5.25052120619914e-05,0.7823295229434644,0.68,0.32,1.0331233322190416,Stairs up
-0.9588476562463998,-1.08508300781,-0.84509277343,0.0037170194857095045,0.06066176135633064,0.34618652343359996,0.21801757812,0.50158691406,0.004899981623874868,0.06964898999724345,0.07503417968559999,-0.14050292968,0.228515625,0.011360517318265638,0.10605145989133286,1.0296311473508004,0.92106697263,1.20136441184,0.004546978452022825,0.06709328332629576,971.5532326841113,971.54713890345,971.56204440733,1.4071496096548088e-05,0.014905503879958815,0.0037323961654120545,-7.178449704635465e-05,0.13341046611888085,0.56,0.44,0.6679021937309761,Stairs up
-0.087109375,-1.09912109375,0.98266601562,0.6107039535854492,0.7775583026690633,0.5201562499967999,0.32165527343,0.89697265625,0.027819666380978665,0.1659562283168935,0.3952294921831999,0.16687011718,0.64599609375,0.027537495825160983,0.1651124491578675,1.0300360116352,0.57341729889,1.29553316972,0.0331143823056126,0.1810614218505877,971.6787802761289,971.38666786248,972.30131081417,0.057483895475164644,0.914642951690098,0.23855619153652877,0.00490538566220806,1.6532039146681035,0.68,0.32,1.659723147323069,Stairs up
-0.0029785156252,-1.07727050781,0.9931640625,0.7041037335489742,0.8349028064472441,0.46456054687199994,0.01477050781,1.05859375,0.10778033458884917,0.32665353395143404,-0.08354003906239998,-0.40563964843,0.23645019531,0.05417974895741475,0.231598686239453,1.0151699289096001,0.64753414332,1.50134047078,0.05013889469972601,0.22279476150199032,971.4049350472816,971.22740348956,971.48427633143,0.00466543109213922,0.256872841870063,0.0679615831276599,0.00174921042188158,0.15069352707903416,0.4,0.6,-0.9526494471511519,Stairs up
-0.9642871093707999,-1.2587890625,-0.68041992187,0.025972441086085485,0.1603518527339944,0.39689453124639995,0.29809570312,0.64794921875,0.005670719532204293,0.07492671310608955,0.1323974609344,0.05603027343,0.2265625,0.003492431207161029,0.058800568833042924,1.0552894042980001,0.77912343516,1.34093958802,0.02631565149393012,0.16140785290372592,971.5119818836735,971.36981401112,971.99615743821,0.012157560901401554,0.6263434270900916,0.10970863818491021,0.0001244895957012656,12.49345264567162,0.72,0.28,3.195891249024667,Stairs up
-0.9722216796840002,-1.1982421875,-0.84582519531,0.010418902840339611,0.1015613795295053,0.415288085934,0.31237792968,0.52172851562,0.003713959973358349,0.06063679059469396,0.20277832030880003,0.0380859375,0.4287109375,0.014893270116931295,0.12142626328666291,1.0844677370047997,0.95842428225,1.32360376576,0.011579631264937945,0.10706929976556569,971.4351760796254,971.37767152394,971.47313666814,0.0004784515595624495,0.09546514420003405,0.021763893125238992,0.00029942893700631696,0.9645708624643121,0.52,0.48,-0.9578230792226892,Stairs up
-0.9657714843711999,-1.21850585937,-0.74060058593,0.01444378645737753,0.11957988372967987,0.3849755859352,0.26025390625,0.56103515625,0.004690942764322042,0.06814714474340669,0.13161132812239998,-0.005859375,0.2412109375,0.005056738468002268,0.07075430081148598,1.0532606882824,0.83979958706,1.28090601467,0.012963413143645883,0.11328627018403167,971.3984893243581,971.35063182203,971.43504966182,0.0008347327938562043,0.08441783979003503,0.028746920981518043,-0.0007799896988755509,-1.5993230389429764,0.48,0.52,-0.07988050478801272,Stairs up
-0.9572070312463998,-1.2099609375,-0.76196289062,0.018384961263376316,0.13491149562117585,0.43095214843479984,0.3359375,0.59777832031,0.007066266560925362,0.08363972677690971,0.09206542968440001,-0.01281738281,0.19067382812,0.003085589167970111,0.055269641542988225,1.0582821083144,0.85311738943,1.28274328158,0.01892073362998075,0.13686316631468431,971.31437791798,971.26966656485,971.34913281709,0.0006042582493313735,0.07946625223996762,0.024458447760192382,-0.0007684572131530592,-1.0354153230916376,0.48,0.52,-0.3112889987928608,Stairs up
-0.8851806640587998,-1.16650390625,-0.69177246093,0.01792827278674373,0.1332253356493287,0.4534228515591998,0.29516601562,0.80871582031,0.014642021969157632,0.12039768166150898,0.147944335934,-0.01049804687,0.2822265625,0.007390779052009589,0.08553871206354169,1.0137970796832,0.8307046478,1.27537764444,0.023031879971471495,0.15100185817319195,971.232664621539,971.17544926213,971.34626887456,0.0014768728426354698,0.17081961243002297,0.038237470028875016,-0.0009397384913724508,1.0322438666880132,0.64,0.36,1.0109191069881707,Stairs up
-0.9326425684526735,-1.23791503906,-0.74133300781,0.018096983527201762,0.1338574072379896,0.4253292272537623,0.26489257812,0.74633789062,0.015366727275921225,0.12334740151826525,0.17802323444821783,0.01184082031,0.32470703125,0.008390736497321902,0.09114636525028585,1.050304859238614,0.84734586667,1.37964928359,0.020926324876573803,0.14394142399310278,971.1692365579178,971.07603824727,971.546660699,0.013818925867671946,0.47062245172992334,0.11697052970503799,-0.0013050502297318502,5.648813438494061,0.72,0.28,2.569671686745258,Stairs up
-0.9442028808552999,-1.16845703125,-0.71252441406,0.017817295288679928,0.1328123576170272,0.47520874023079995,0.279296875,0.91430664062,0.02483379663056219,0.15679750847592117,0.1941369628866,0.0595703125,0.43579101562,0.008577050781894533,0.09214814308533617,1.0844303116348002,0.80203761655,1.41765093328,0.030058937223943233,0.17250608062240533,971.0741102380512,971.03726046148,971.1018314735,0.0002534448265541605,0.06457101202011017,0.015840150829099415,-0.00040647482903934866,-0.15733430049355412,0.53,0.47,-0.4990716752065564,Stairs up
-0.9323083496044998,-1.05383300781,-0.78747558593,0.004421648188978922,0.06616216220083147,0.5430102539034999,0.34838867187,0.91918945312,0.03197657285885991,0.17792359913814498,0.2879541015587,0.05590820312,1.17431640625,0.08607349181446873,0.2919122417719477,1.1534383073338998,0.97871655744,1.73799698894,0.03818548091073849,0.19443154605575483,971.0390105394453,970.98745828555,971.07345805165,0.0005824556402515378,0.08599976610003068,0.024013143980933075,-0.0005256334970265983,0.09036782457695391,0.33,0.67,-0.9038073278894152,Stairs up
-0.43414428710790004,-0.99975585937,0.18334960937,0.15099845374738236,0.38663738723758795,0.7985571289024,-0.41027832031,1.61340332031,0.17599331055530681,0.4174127183612806,0.03754638671790001,-0.25170898437,1.08447265625,0.08079006249764761,0.2828111770646117,1.0494927492819002,0.20551402677,1.78542074251,0.13116511014506146,0.36035185450280516,971.0433151190039,970.99895209943,971.13827159564,0.0013328593550868443,0.1393194962100779,0.03632534599334156,-0.0006862363779659651,0.11146808127053998,0.6,0.4,0.9104326555051807,Stairs up
-0.8380768130483838,-1.13647460937,-0.63195800781,0.015065841633328128,0.122121502671764,0.7255366161577778,0.44372558593,1.08068847656,0.030381118740104796,0.17341925715684234,0.11498530223878786,-0.10668945312,0.33764648437,0.011182215723829875,0.1052105700481268,1.1341271703915152,0.94516936708,1.32297075591,0.011930986297296772,0.10867599221627915,971.0299060358047,971.0049481271,971.04428141625,6.852602981917732e-05,0.03933328915002221,0.008236130626683363,0.00011098814704548392,0.8730843852683035,0.56,0.44,-0.360082027185691,Stairs up
-0.9588818359344,-1.14013671875,-0.81909179687,0.005737268178248573,0.07536508141351728,0.4872021484336,0.40087890625,0.70092773437,0.0054861459828166965,0.07369724908698105,0.17507324218439999,-0.03894042968,0.39721679687,0.014263613055099456,0.1188317168290876,1.0975075644496,0.9492015523,1.32885191042,0.008262880577595009,0.09044474430180593,971.0361703122805,971.01591089609,971.05137068381,8.054463277841908e-05,0.0354597877200149,0.00892968008669039,9.324768611059783e-05,-0.4956386414546077,0.56,0.44,0.14581634795476478,Stairs up
-0.9601562499968,-1.21826171875,-0.67260742187,0.015798672281223,0.1250627264951903,0.5216601562463999,0.33618164062,0.71350097656,0.008380053115610618,0.09108376685477226,0.23156738280880002,0.08752441406,0.37463378906,0.0051812005765024495,0.07161974986508558,1.1236084420756,0.86896689746,1.3468693025,0.014366860015316379,0.11926102219569985,971.0258180980538,970.98058720151,971.04293615948,0.00020315285310728995,0.062348957969902585,0.014181725021174858,-0.00030232334482224407,3.06209538522603,0.28,0.72,-1.8291499731258865,Stairs up
-0.931279296872,-1.2197265625,-0.70324707031,0.015165860580855386,0.12253245274231163,0.4707226562464,0.28857421875,0.64807128906,0.01185962850395532,0.10835604375813916,0.2390039062476,-0.05407714843,0.60900878906,0.02708863359458322,0.16376125078490755,1.0902657165996001,0.90584661286,1.30726299089,0.010987337119137101,0.10429508017133757,970.956595547057,970.92636976558,970.99058494321,0.000503150803670966,0.06421517762998974,0.022318586326966507,-0.0006949817836289907,-1.5524340378977846,0.52,0.48,0.019722140636509303,Stairs up
-0.9597119140583998,-1.22607421875,-0.80041503906,0.014498563101740905,0.11980641665087682,0.47682128905959986,0.22692871093,0.58166503906,0.007058955587594461,0.08359644748264436,0.1143749999956,0.01049804687,0.19348144531,0.002623450250427523,0.050962885985030786,1.085185135092,0.95139830163,1.27590820302,0.00787830518676357,0.08831490324342735,970.8842662292122,970.84498629542,970.92636976558,0.0006180134237415286,0.08138347016006264,0.02473526408802043,-0.0008509865037466044,-1.2487606333328247,0.52,0.48,0.023419520360378983,Stairs up
-0.9696794264349503,-1.20141601562,-0.82690429687,0.010948448470240043,0.10411555114552618,0.41544153194267325,0.28356933593,0.513671875,0.005336717827601135,0.07269029534421254,0.09122882502683168,0.0126953125,0.15600585937,0.0016848461137647516,0.04084316918499361,1.0641714497235641,0.9242295246,1.24543811925,0.006589009841672514,0.08076987136592355,970.8040910084284,970.76541751167,970.84954472538,0.000584725325103164,0.08412721371007592,0.024061088201672784,-0.0008121598717630968,-0.9827515535284981,0.49,0.51,0.202004554296099,Stairs up
-0.9376806640583,-1.24377441406,-0.71472167968,0.014187280120235155,0.1185133212724747,0.46281372069899995,0.34838867187,0.60778808593,0.004136679345485081,0.06399462908737132,0.06821044921580001,-0.06604003906,0.30651855468,0.005164876002008215,0.07150683353350316,1.0531769554003,0.83720079671,1.35977238842,0.012289374672432827,0.11030177208779783,970.7294044284354,970.68684724836,970.77000322005,0.0007092496470638188,0.08315597168996192,0.02649824806648886,-0.0008942509020168875,-1.2488238681429478,0.49,0.51,-0.02678820920990564,Stairs up
-0.9640991210893,-1.27575683593,-0.77026367187,0.019420998716434868,0.13866069641131376,0.4784423828093998,0.29211425781,0.79943847656,0.017486719169820485,0.13157451112629026,0.0941198730446,-0.12670898437,0.30651855468,0.019907578209452617,0.14038697385212806,1.0957635619258002,0.86381860122,1.38174719643,0.023032463581192427,0.15100377129522463,970.6518500548049,970.61958917229,970.69154090917,0.0004958444421127646,0.07195173688000978,0.022155947230746806,-0.0007395320511973709,-0.8988571146128863,0.53,0.47,0.3353196180241435,Stairs up
-1.0233752441364998,-1.45349121093,-0.75146484375,0.03644738850417371,0.18995503315030104,0.3878784179650999,0.1494140625,1.14782714843,0.05788341721438283,0.23938375684711566,0.16532714843460003,-0.04602050781,0.36389160156,0.01304766732038001,0.11365381932507243,1.1302120427407,0.79407897987,1.6456370634,0.05455055575450541,0.2323898668121318,970.5943143369972,970.56269793924,970.65659442097,0.0006901596251250414,0.09389648172998477,0.026139204824818046,-0.0006563157651840529,-0.7109364510508529,0.57,0.43,0.4064012813663795,Stairs up
-0.6608227539023999,-1.35400390625,-0.07849121093,0.12086639543402093,0.3459157866875704,0.6122143554645,0.08947753906,1.22692871093,0.09022336554608046,0.29886641144601656,0.30362548827720004,0.07800292968,0.59912109375,0.016720783680679894,0.12866070046394545,1.0411452396838003,0.67402838343,1.53193307257,0.04568747004522421,0.212674858280832,970.6000543268507,970.40292359806,970.92858769166,0.019677152836080264,0.5256640935999712,0.13957213657359932,0.0013332769791014254,0.14709097290436057,0.59,0.41,0.9036676305943582,Stairs down
-0.4040185546840999,-1.03100585937,-0.03991699218,0.09279702892249658,0.30309909045272904,0.9500720214808999,0.34313964843,1.41430664062,0.07505345991648128,0.2725856293301547,0.13011352538960003,-0.22570800781,0.42639160156,0.034293119019620615,0.1842557674251322,1.1089319533013002,0.68447011086,1.51469107985,0.05372673004665009,0.2306284083676241,970.7187182789636,970.60472131312,970.861977559,0.006359750083946066,0.2572562458800576,0.07934829918219172,0.0019548834739615056,-0.9806194719950145,0.51,0.49,0.3191689541079466,Stairs down
-0.6791516113237,-1.17004394531,-0.10412597656,0.12933002996199558,0.3578222039817759,0.6353381347620999,0.1826171875,1.44372558593,0.09138108494686509,0.30077778192113264,-0.2030603027306,-0.47497558593,0.095703125,0.019311640134672483,0.13826974988523613,1.0447537321356002,0.56616213569,1.49622628244,0.05277485845911444,0.22857626708502196,970.7655612216003,970.61673242829,970.92216545985,0.005936455538193157,0.3054330315600282,0.07666218743820988,-0.0007058173119729065,-0.11749851755327301,0.6,0.4,0.14913541431303898,Stairs down
-0.6282263183546999,-1.30432128906,-0.17333984375,0.09288152457945521,0.3032370513866349,0.7884094238248,0.44787597656,1.42456054687,0.05924951890962594,0.24219212150796665,-0.10999145507550001,-0.35437011718,0.22729492187,0.02053235346991137,0.14257289340969503,1.0719143523446,0.60730137503,1.49180127183,0.05080023340154749,0.224259294272349,970.81196079657,970.61673242829,970.91437015923,0.004530338978547478,0.29763773093998225,0.06697040830666932,-4.222645528357146e-06,0.23854046833370912,0.43,0.57,-0.7252981624021939,Stairs down
-0.8394738769478,-1.45336914062,-0.52502441406,0.05620444918347233,0.23588642328806803,0.5478601074179,0.35668945312,0.85119628906,0.01996816145508411,0.1406004261747925,0.058516845702000005,-0.11633300781,0.33874511718,0.016967232375740104,0.12960540132256335,1.0314023993722001,0.70224492838,1.5381452664,0.03707964016936677,0.1915955212620407,970.9171929668004,970.8063732634,971.06514799176,0.008414834890388861,0.25877472835998105,0.0912725946902189,0.0009870428582995677,-1.4678433939380722,0.52,0.48,0.3480786252246092,Stairs down
-0.8185131835891,-1.19177246093,-0.1767578125,0.06869815654811606,0.2607895223789386,0.6238793945276,0.35693359375,1.23791503906,0.0460941804716289,0.21361937802295142,0.23725585937169996,-0.04663085937,0.49682617187,0.02072131934765611,0.14322746298870043,1.1011844156197,0.76320942489,1.37349438055,0.03740512730941531,0.1924346019725173,970.9259882711395,970.82007284165,971.0438996606,0.0026171949262995074,0.22382681894998768,0.05090209206934929,0.0012360121848718866,0.302907161883732,0.51,0.49,0.5599823977015633,Stairs down
-1.0401965331988001,-1.49072265625,-0.81555175781,0.02431526728816741,0.15515190819092667,0.4082226562456999,0.18310546875,0.57360839843,0.008020533672399195,0.0891085199948647,0.06814575194969999,-0.21411132812,0.25061035156,0.01015167416156107,0.100250473415069,1.1283216782874996,0.88253215119,1.51711084347,0.022475958526480797,0.14916835770771222,970.9907508381663,970.96269958697,971.08961244306,0.001034313213242529,0.1269128560900299,0.03199953251393063,-0.00038526090012490805,4.412276023415135,0.6,0.4,2.2145627065933353,Stairs down
-0.9738559915516162,-1.11901855468,-0.83923339843,0.004657683944229459,0.06790166884297826,0.36254882812121214,0.271484375,0.49792480468,0.005381226539561991,0.07298541440541427,0.1490071614540404,0.0146484375,0.23022460937,0.0034063890271538904,0.05806876145728131,1.0534120875390909,0.91379156743,1.17832364575,0.005730626566995582,0.0753176038529987,970.9795900970873,970.95383302109,971.02085094502,0.00034176120203446283,0.06701792393005235,0.018393179950203807,2.942558747932733e-06,-0.2700462893638549,0.6,0.4,0.7237179817674055,Stairs down
-0.9720166015581,-1.18518066406,-0.81042480468,0.009960038228367685,0.09929973739181795,0.3745898437463998,0.27722167968,0.5166015625,0.0032280031841382334,0.05653072750546247,0.11948974609070001,-0.0400390625,0.275390625,0.004283728328560856,0.06512212408448644,1.0515927172483,0.90336758876,1.27060499706,0.009981771401360483,0.09940801621271234,970.9868714860728,970.95456760073,971.01506558548,0.0003395873668254069,0.060497984749986244,0.018335525439898165,-2.6145692257421245e-05,-1.0313467641830878,0.48,0.52,-0.11557960807880656,Stairs down
-0.49766857788980184,-1.00817871093,-0.27490234375,0.04308546707198818,0.20654025827692093,0.7309292330563367,0.361328125,1.01416015625,0.021306402647813118,0.1452427215599859,0.38351108059633665,0.1044921875,0.69775390625,0.022831804787649058,0.1503520778522998,1.0018417901283172,0.80329156365,1.25037832495,0.01180226149481395,0.10809906299597546,970.99605708896,970.94602252671,971.05438712871,0.0009893187920245712,0.10836460200005149,0.031297341044567537,0.0003517261322532806,-0.8878394931806612,0.59,0.41,0.49901398121989804,Stairs down
-0.8138415527308999,-1.32507324218,-0.32604980468,0.07113293942034346,0.2653707030290647,0.5414819335901998,0.28125,0.8203125,0.024629853102878255,0.1561523441125668,0.3499035644501,0.12536621093,0.60083007812,0.020809621249545843,0.14353231356405563,1.0627066018762001,0.51311472858,1.48432875109,0.06468144417655476,0.25305064658046067,971.0402290044403,970.88912032206,971.40130928569,0.016015638570674853,0.5121889636300239,0.1259185537757169,0.0028489237291280008,2.7006592322749556,0.64,0.36,1.6924709518415406,Stairs down
-0.9297827148404001,-1.39050292968,-0.62939453125,0.04505020427552642,0.21118641583390527,0.35147094726239986,0.22131347656,0.50427246093,0.005056313906876758,0.07075133050203361,0.17865356444990002,0.0322265625,0.46728515625,0.0134379627291608,0.11534115961732479,1.0204205892829001,0.7317647402,1.45402552788,0.042015835096002006,0.2039501820176731,971.072056969759,970.99428086387,971.18240768665,0.0024894950077940328,0.18812682277996373,0.049644738469611184,0.0012183271716836972,-0.08481789074316959,0.55,0.45,0.4237423536650875,Stairs down
-0.9322619628870998,-1.42028808593,-0.60437011718,0.05440887149409995,0.2320878772774635,0.43033081054289996,0.22131347656,0.70397949218,0.010148986076560059,0.10023719976034076,0.17015136718329998,0.05688476562,0.33264160156,0.004839783750403929,0.06921983756770807,1.0498905540481003,0.68141615486,1.49749165656,0.05018378902166168,0.2228944843001842,971.1535414615723,971.07731737816,971.23477028661,0.0012073862041414316,0.15745290844995452,0.03457328943129388,0.0007260147586868029,-0.06111436125054226,0.43,0.57,-0.39587673073709756,Stairs down
-0.9399951171839999,-1.18334960937,-0.66723632812,0.02351822405159006,0.15258781671900992,0.39442626952750004,0.2548828125,0.64526367187,0.012453005476453798,0.11103366796467304,0.1437316894478,0.01538085937,0.26745605468,0.004239860922137949,0.06478782534486374,1.0356890426713,0.73715843114,1.28386600274,0.027251401426953897,0.1642525111305284,971.2601129145874,971.18239931954,971.39877915048,0.003449881918385357,0.21637983094001356,0.05844127906883544,0.0012547594520620742,0.25989403352853957,0.67,0.33,1.0986226964083818,Stairs down
-0.3093725585928999,-1.32568359375,0.29504394531,0.21289940878990107,0.45909739130385185,0.4698144531215,0.07080078125,0.83874511718,0.04208167396404704,0.20410991456665345,0.6426086425738999,0.080078125,1.37622070312,0.1315852844275347,0.36092856853297073,1.0351273177505,0.76088693634,1.41092275356,0.04100063418181403,0.2014711588292376,971.3468089066499,971.25270035112,971.5139085635,0.0022090256438386862,0.2612082123799837,0.046764680982556685,0.0012971246343678109,0.6462597526745619,0.48,0.52,0.07147100264723381,Stairs down
0.5346960449183998,0.18896484375,0.77600097656,0.02741720455328288,0.16475142642098747,0.5335009765580999,0.13354492187,0.83435058593,0.025010189118943583,0.15735338327393583,0.6535131835897999,0.38757324218,1.37622070312,0.049011349431519385,0.22027536389075422,1.0332839836290002,0.7669031121,1.399900944,0.028202223608114703,0.16709339116803382,971.4282597817519,971.26191431944,971.57058892271,0.006705403708527584,0.3086746032699921,0.08147606809022089,-0.0008716450014227156,-0.4114991542494435,0.52,0.48,-0.12154097263852078,Stairs down
0.5710180664023999,0.40026855468,0.67614746093,0.006562803303369477,0.08060505734962158,0.6202954101522,0.41564941406,0.84777832031,0.014626970321062003,0.12033578278239347,0.5801684570275999,0.39807128906,0.80224609375,0.01071579637564652,0.10299824470295625,1.0343839652504,0.89854521727,1.18244692823,0.009151306343112314,0.09518294637003621,971.4293035930011,971.37313708029,971.47930827012,0.0012915193733050007,0.10617118982997908,0.03575757513551431,-0.0004193367142971069,-1.5734019604663596,0.48,0.52,-0.08508358572493828,Stairs down
0.5288891601529999,0.3837890625,0.68737792968,0.005657632308651112,0.0748402030032295,0.82871582031,0.68273925781,1.03076171875,0.011121828965476591,0.10493145703659044,0.20028320312220005,-0.04870605468,0.39807128906,0.01865041378731055,0.13588196955239296,1.0162337433876,0.86403852363,1.18143615214,0.009041991033498025,0.09461274292167543,971.5982506259388,971.02159367878,971.98445500198,0.03062239885921008,0.9628613231999452,0.1741154067583279,0.0021319576302810837,0.09719377122136219,0.68,0.32,0.21138002696548533,Stairs down
-0.6205290206725252,-1.04077148437,0.50451660156,0.26708347748001454,0.514184465514251,0.6036364622755556,0.35888671875,1.00939941406,0.042619573977129,0.20539978877760626,0.11633300780979798,-0.10595703125,0.28332519531,0.008913837524937686,0.09393507737825911,1.034030798469596,0.81443248695,1.1772049367,0.009238778168731808,0.09563188368493249,971.3382533498379,971.02159367878,971.48356899868,0.014571568057307253,0.4619753198999206,0.12010154245959057,0.003920370737929049,0.22015114277463033,0.47,0.53,-0.9146066005407995,Stairs down
-0.9504805460978217,-1.10510253906,-0.62341308593,0.014752850615136816,0.12085852385026127,0.332025206911881,0.19201660156,0.52490234375,0.006989191286642993,0.0831864855184654,0.10429276569990101,-0.23620605468,0.28332519531,0.012512532985493194,0.1113042969533984,1.0213467243052472,0.68708410471,1.23347526063,0.015450249715066332,0.12368216098374991,971.4853040242922,971.45570053133,971.53481986456,0.00032143973207115323,0.07911933322998266,0.017839763464420944,4.756262936636589e-05,0.8434536619983963,0.63,0.37,1.1704835305160237,Stairs down
-0.9585485839808,-1.39611816406,-0.65869140625,0.033611501483887786,0.18241542278285822,0.4224133300751,0.19592285156,0.62390136718,0.011932886337752946,0.10869019033185753,0.13083740233930002,0.04626464843,0.24487304687,0.002296464124164851,0.047681227783302756,1.0620006175063998,0.71348693155,1.46203491486,0.034226229265238196,0.18407598152009355,971.544427563696,971.48225953077,971.84234841852,0.004442800419950345,0.36008888775006653,0.06632022629447852,0.0003116457584651623,13.37153251086512,0.76,0.24,3.5557324527396075,Stairs down
-0.8742272949183999,-1.49291992187,-0.26867675781,0.1057928463591091,0.323627745867869,0.3845214843725999,-0.03735351562,1.04992675781,0.07467106827530483,0.2718903411166932,0.25860107421589995,-0.06481933593,0.75720214843,0.035464938366739314,0.1873773972043371,1.0563112796847998,0.6403486656,1.61706138432,0.06433452592134974,0.2523711169332502,971.6104235245584,971.53552248951,971.66203265542,0.0009292393987185937,0.12651016591007647,0.030330628162492903,0.0005613477284840979,-0.5312147997550185,0.59,0.41,-0.11008187417975024,Stairs down
-0.9135424804639999,-1.60046386718,-0.24890136718,0.16208538251054727,0.40058024000871756,0.4655053710908,0.07275390625,1.02038574218,0.06368639257804208,0.251096652013247,0.3421679687457999,-0.08520507812,0.91137695312,0.054174269665972115,0.23158697495608943,1.1562901857371999,0.56130165032,1.67164534479,0.10956931680724229,0.3293533416244169,971.6971981214894,971.63048762599,971.92225357051,0.005422176807676605,0.29176594451996607,0.07326632950817066,0.000277193508650884,4.25645260513372,0.59,0.41,2.1724798317128338,Stairs down
-0.9287597656212,-1.31579589843,-0.49182128906,0.061693364923324834,0.2471364628582589,0.37818603515259996,0.16577148437,0.62023925781,0.015663920177536247,0.12452823364908411,0.11285888671560002,-0.06506347656,0.306640625,0.009811191371870144,0.0985549565377178,1.0211577883437999,0.5559619983,1.40416257956,0.06251522297692891,0.2487771507738595,971.7880150092221,971.69743929605,971.91985152181,0.004893109165674971,0.22241222575996744,0.06960012984196381,-8.796529191021051e-05,-0.835386810037849,0.55,0.45,0.4256878936163302,Stairs down
-0.9655224609331998,-1.44262695312,-0.52429199218,0.07193436716547168,0.2668614312594028,0.402807617184,0.17614746093,0.70471191406,0.024698838441215266,0.15637087342853564,0.15002197265199999,-0.02685546875,0.29235839843,0.0066558270080455135,0.08117431082531627,1.0732659940358003,0.58192696373,1.50578872475,0.068030747115492,0.2595196324834348,971.8579706626545,971.70880865532,972.32767662761,0.015471109393101212,0.6188679722899906,0.1237594372125625,0.0012724993439927872,6.000090853058351,0.55,0.45,2.15534829834582,Stairs down
-0.9429565429632001,-1.43530273437,-0.63024902343,0.0425687957593037,0.20528786569524918,0.3549853515577999,0.25231933593,0.48962402343,0.0017151001486746958,0.04120617850745139,0.1292895507772,0.00317382812,0.28979492187,0.0042954773674172084,0.06521136859277711,1.0205515973397998,0.7490538152,1.51889362539,0.038853986253730245,0.19612609818989657,971.9359412178288,971.88228002846,972.03404052916,0.0007126688965811075,0.1517605007001066,0.02656204449238229,0.0005810660844754766,3.8132824585143936,0.51,0.49,1.3860937192607306,Stairs down
-1.034067382809,-1.61157226562,-0.36376953125,0.07850211487893849,0.2787778573168054,0.4778857421837999,-0.16027832031,1.24938964843,0.10661400409480469,0.3248813076399697,0.22349121093360005,0.001953125,0.94873046875,0.058678585086166794,0.24102240401113156,1.2292939528424,0.5997438311,1.68885387752,0.07859756632667149,0.2789472901166182,972.0132794147673,971.93094708906,972.41499451689,0.004035310836116883,0.484047427829978,0.06320567797085729,0.0011521296844876354,15.048024935296986,0.52,0.48,2.8613233229811823,Stairs down
0.8241723632783998,-0.36376953125,1.12451171875,0.11718264125103263,0.34060360367812065,0.29283447265340007,0.08801269531,0.98132324218,0.021846903845418392,0.14706608992886228,-0.18967285155959998,-0.39013671875,0.35632324218,0.02063348799001572,0.14292359185983106,0.958855127017,0.39059039916,1.16449613622,0.04005166821462359,0.1991259690057461,972.058015345851,971.95322342063,972.41499451689,0.01799196120269547,0.46177109626000856,0.133461760780639,-0.003340168156248258,1.262186417172603,0.73,0.27,1.586563328242751,Stairs down
0.9395507812462999,0.79516601562,1.13659667968,0.011037412315875643,0.10453247434513778,0.28655761718369993,0.10498046875,0.45593261718,0.008533371963701299,0.09191321038928128,-0.2406396484334,-0.44226074218,-0.05822753906,0.009666754705792938,0.0978268222868095,1.0198203785306001,0.86575660703,1.19634111563,0.011808018216172288,0.10812001680544896,972.0568560880243,971.97382601851,972.13798250984,0.001975012215454831,0.16415649133000443,0.04421834566444433,0.001028062745450935,-0.6427053260246609,0.52,0.48,0.03907078951415002,Stairs down
0.9049682617153999,0.81262207031,1.08068847656,0.0067736700628906465,0.08188976347665036,0.288374023434,0.10046386718,0.46142578125,0.01348254160444831,0.11553231664085953,-0.30456054687140005,-0.43225097656,-0.19226074218,0.004390015722473147,0.06592507539054025,1.0063590811089997,0.90233081131,1.18710447299,0.006591337170693236,0.08078009531429325,972.0315233217549,971.99928005706,972.09537786668,0.0006792460115116303,0.09609780962000514,0.02593170938053475,-0.0001757681057967224,0.4195865315559928,0.56,0.44,1.00976265611644,Stairs down
0.7711694335902,0.32958984375,1.14880371093,0.0448939806818438,0.21081992523247267,0.04793457031300001,-0.6923828125,0.53308105468,0.1485061268824568,0.3834332609641895,-0.3916772460899999,-1.02966308593,-0.05969238281,0.061628666724527714,0.24700684212645294,0.9944329178316003,0.7641089279,1.32992258156,0.014134082747523109,0.11829092069997543,972.0241943643734,971.97597988606,972.19090089394,0.001489258494613096,0.2149210078799797,0.03839747269895462,0.0006842763333006029,1.7408852088975415,0.63,0.37,0.9265437382258136,Stairs down
0.2856616210916001,-1.05615234375,1.09020996093,0.31248828799156303,0.5562044634050031,-0.040161132810800006,-0.91552734375,1.25,0.53024368153162,0.7245282911773038,-0.3368969726542001,-1.03356933593,0.28137207031,0.14269599168438468,0.37585772809341145,1.0650883629603998,0.62209724835,1.47911339874,0.03825809011967455,0.1946163128272597,972.0903974429373,971.95666425549,972.30434289288,0.00845944288742633,0.34767863739000404,0.09151419812549343,0.0012601260122628679,0.17783499247778245,0.56,0.44,0.7649587416671003,Stairs down
-0.8803344726517998,-1.21997070312,-0.62707519531,0.0295376062693631,0.17100359705769194,0.5376245117152,0.28430175781,1.03515625,0.03907791971553832,0.196690468804116,0.1452099609336,0.0048828125,0.26184082031,0.0031833029515102034,0.05613795438021501,1.0557644984813999,0.74174768567,1.50822424331,0.041976764129378424,0.20385533225325414,972.1855139491125,972.13041569355,972.29008279056,0.0012492456236602462,0.15966709700990123,0.03516750158063043,0.0011313811104410904,-0.6490756394039869,0.55,0.45,0.38266703003609626,Stairs down
-0.9459350585904,-1.3291015625,-0.60717773437,0.04766434626751992,0.21722730676608024,0.45457031249579993,0.30139160156,0.68542480468,0.012155679957916736,0.10970015113179,0.12023925780920001,-0.03271484375,0.25415039062,0.0066666338177345215,0.08124018389662332,1.0642032446604,0.69361457963,1.40637877192,0.04967477847374434,0.2217612019470649,972.3072052075241,972.23996233891,972.3612081437,0.0012515124250997353,0.1212458047899645,0.035199393472739524,0.0009018211962141252,-0.898953463653883,0.39,0.61,-0.27557614486428983,Stairs down
-0.9578320312459999,-1.29089355468,-0.65075683593,0.04152775964358371,0.2027621316891985,0.41671142577759995,0.2978515625,0.62670898437,0.008208266562849148,0.09014534872760023,0.13775146484040002,-0.06335449218,0.30676269531,0.006119967235343291,0.07783808555578599,1.0599008262382,0.72346734588,1.35887422326,0.042397727845577673,0.20487496325105686,972.4027338997794,972.33898662716,972.45051406692,0.0009130418909577515,0.11152743976003876,0.030065120522761488,0.0007978854005004625,-0.3679353973146742,0.47,0.53,-0.4255152059677314,Stairs down
-0.9580371093707999,-1.50561523437,-0.48889160156,0.07519023741137355,0.2728338964228232,0.47440673827759994,0.25573730468,0.87194824218,0.026149692926574965,0.16089809196292296,0.10707275390299997,-0.11828613281,0.326171875,0.011934501961891702,0.10869754800487813,1.090571270477,0.65771047113,1.5797705852,0.07793679078171745,0.27777225000690814,972.5022013531459,972.40825699627,972.59682594347,0.0023024022200250236,0.18856894719999673,0.047742833994483126,0.0011016560532594935,-0.4849856061827311,0.51,0.49,0.153529655324228,Stairs down
-0.7306518554637997,-1.31115722656,-0.27185058593,0.06482187319904409,0.2533251950893429,0.6975708007771999,0.38037109375,1.29309082031,0.05703705022396821,0.2376271864112533,0.23995849609059994,-0.1474609375,0.67138671875,0.045400362911689356,0.21200556427266823,1.0798334636788,0.61268184307,1.57805419989,0.07836729295962051,0.2785383636593428,972.5519275559906,972.40706107001,972.90148722646,0.012845569877651708,0.4944261564500039,0.1127701830222652,-0.0007122554927771435,1.6752550521450829,0.6,0.4,1.1237766900699204,Stairs down
-0.8061376953088,-1.1416015625,-0.35888671875,0.04689744544754051,0.2154726687843846,0.6262622070275999,0.18505859375,1.16918945312,0.09673573309116235,0.3094646599536863,0.15767822265460002,-0.14953613281,0.41943359375,0.026434305490306946,0.16177132760598795,1.1004738353626002,0.87275262435,1.42363781173,0.024493842948862095,0.1557205976079384,972.6180571708823,972.55245212316,972.7789666126,0.004566630075729325,0.2265144894399782,0.06723811251791674,-0.0005594796032417503,0.5232783690741996,0.8,0.2,1.35133662460106,Stairs down
-0.9678417968704,-1.28015136718,-0.78271484375,0.020930850842933644,0.14394979101931446,0.3769091796838,0.28308105468,0.53515625,0.005460709490050339,0.07352620209931855,0.12319580077740001,0.01599121093,0.20776367187,0.003196210144792064,0.05625164924999216,1.050556442958,0.86342699883,1.32705675809,0.01977629470958533,0.13992330671653483,972.4713062615041,972.42015403457,972.51685316275,0.0007463730599017744,0.09669912817992099,0.0271828866992223,-0.0007980774455020286,-0.7417228083421494,0.54,0.46,-0.06941391258856153,Stairs up
-0.9785253906207998,-1.21789550781,-0.83435058593,0.010337849361772481,0.10116556167073239,0.3958276367147998,0.28759765625,0.61791992187,0.006475326322502087,0.08006605435062393,0.12668457030879998,0.04235839843,0.27026367187,0.0027028147621127067,0.051728006094296536,1.0678350442988,0.91934069114,1.26910086158,0.009383421355103005,0.09638250433326567,972.4110625400929,972.35610121742,972.46337823711,0.0008102957331202916,0.10727701968994552,0.02832300788738881,-0.0007145161971999096,-0.5357957600975198,0.46,0.54,-0.20181697903335571,Stairs up
-0.12015380859200002,-1.14050292968,0.908203125,0.6226077370222115,0.7850997768767926,0.5490698242157999,0.13537597656,1.08703613281,0.08013721396822412,0.281666188649866,0.1687133789052,-0.23791503906,0.80151367187,0.07526297475827284,0.27296583121462314,1.018306257808,0.54200530165,1.48018911836,0.07844346020988412,0.2786736901965905,972.2989151668897,972.20930200765,972.40213278086,0.0024541226212183524,0.19283077321006203,0.049290784077818936,-0.0009169432474525853,-0.6781670381935228,0.42,0.58,-0.22107412356738076,Stairs up
-0.9819946289021999,-1.22888183593,-0.79833984375,0.010244969918230967,0.10071008002701942,0.34635742187139995,0.15563964843,0.4853515625,0.00886990130564072,0.0937080695169008,0.2276293945276,-0.01403808593,0.37255859375,0.012351147339467409,0.11057864109344415,1.0763636148036,0.89523488485,1.28542460738,0.008772508320920918,0.09319218442397252,972.2424804424675,972.20818412049,972.27665301119,0.00041692289682432104,0.06846889069993267,0.020316339922734062,-0.0001733523981365124,-1.062040639405021,0.5,0.5,-0.10943041949048202,Stairs up
-0.9942089843713998,-1.3447265625,-0.72045898437,0.027853210863628016,0.16605625177930441,0.34005615234039993,0.109375,0.62475585937,0.015631468494819462,0.12439917125877997,0.16647216796540001,0.01489257812,0.287109375,0.005168810523044272,0.07153406473711549,1.0720791885092,0.79166836592,1.42258503236,0.030925093540136835,0.17497383405736833,972.1795140380409,972.12303381577,972.22804473058,0.0009841219785695604,0.10501091481000913,0.031213470790411386,-0.0006771041249035687,-1.0013206028007038,0.48,0.52,-0.22053918195164404,Stairs up
-0.8916772460908,-1.06921386718,-0.70861816406,0.010217157812923877,0.10057328787901208,0.45099121093359995,0.33569335937,0.67504882812,0.009971008902955504,0.09935441013828197,0.1427148437448,0.03308105468,0.22351074218,0.003677578670679888,0.060339065985256096,1.0152598840306,0.79384541088,1.22870620559,0.011841783812936576,0.10827449364835288,972.1305129203045,972.11470090847,972.18075510445,0.0002531855539013004,0.06605419597997297,0.015832046562661677,-0.00032246631659257435,0.390484484308923,0.66,0.34,1.1754660797232173,Stairs up
-0.9609374999957998,-1.06884765625,-0.82653808593,0.0033165493397085103,0.05730081889738946,0.4160400390589999,0.255859375,0.54467773437,0.005800576523017342,0.07577975163450437,0.13304199218520002,-0.03002929687,0.28259277343,0.009044022054064764,0.09462336832687851,1.0625098078511999,0.95630355728,1.16448348708,0.0032755649917274266,0.056945670088340804,972.1211991668633,972.09419370769,972.16493215117,0.0003923395370097914,0.07073844347996783,0.019708275968224453,1.9567190539810357e-05,-0.3000883876312401,0.52,0.48,0.6409730763253474,Stairs up
-0.9609277343712,-1.08984375,-0.84716796875,0.0045632417995809535,0.06721316375223788,0.40088623046539995,0.29553222656,0.5263671875,0.004396884375216303,0.0659766286761012,0.11658691405800002,0.00573730468,0.19287109375,0.0029240622905837956,0.05380354698045434,1.0510195416762,0.94210767929,1.2164010618,0.004856220792381815,0.06933728134602624,972.1180507921026,972.10718822371,972.14602398852,0.00011234615110988843,0.03883576481007367,0.010546216838221635,-1.3008346606075474e-05,1.4567619148764726,0.6,0.4,1.4538069758664625,Stairs up
-0.9666845703097999,-1.14465332031,-0.82849121093,0.004113976907276887,0.06381878358449115,0.4199780273404,0.27990722656,0.53686523437,0.006249723536881498,0.07865892385173269,0.133381347654,-0.0673828125,0.29150390625,0.013717707124242315,0.11653553128981689,1.071572635501,0.9326358254,1.20380289623,0.0042665314772179636,0.0649912775874254,972.1058047316192,972.07895066314,972.16977400608,0.0006725949935995204,0.09082334294009797,0.025804438448908847,-7.407184416590675e-06,0.579167181538264,0.58,0.42,1.1668715723852832,Stairs up
-0.9650390624965999,-1.24487304687,-0.80187988281,0.014324039521667605,0.11908316054947034,0.3972045898399999,0.29541015625,0.52490234375,0.004555088251526209,0.06715308905039996,0.11752197265240001,-0.00512695312,0.2265625,0.003810518805342638,0.06141997734686339,1.054012898287,0.88631328269,1.29800879083,0.014548336111679182,0.12001188587203515,972.0840365379776,972.05443569909,972.13121971547,0.00035850052261669817,0.07678401637997467,0.01883920161234364,-0.00032890078021525316,0.8931858024386452,0.58,0.42,0.8365796774416525,Stairs up
-0.9747583007776001,-1.24841308593,-0.7275390625,0.02195696053467458,0.14743605708688712,0.3559472656215999,0.22766113281,0.51708984375,0.005746371119881425,0.0754248460965126,0.14373779296539999,-0.00415039062,0.30126953125,0.0042439393623224415,0.0648189784607812,1.0530071145011999,0.82946831237,1.30461230603,0.02052178694981469,0.1425362027006351,972.0552355957258,971.90844934609,972.42116738976,0.013285598919010865,0.5127180436699064,0.11468540853055699,0.000496151807216012,5.456140776722917,0.72,0.28,2.4426661576987954,Stairs up
-0.9735424804639998,-1.24096679687,-0.74035644531,0.01942294643962384,0.13866764934629708,0.36787109374659993,0.20849609375,0.62683105468,0.015070094604511025,0.12214496984512263,0.16668212890460005,-0.15930175781,0.36193847656,0.01819159419208646,0.13420014251171863,1.0698479657378,0.84863742173,1.37178672493,0.01866682229553613,0.13594173043102242,971.9822243541488,971.9212635291,972.17070031517,0.00454276944944322,0.2494367860700777,0.06706222300929778,0.0010910367527834338,2.2809828762612314,0.64,0.36,1.7462645901603862,Stairs up
-0.5874072265592,-1.18432617187,0.11596679687,0.17936692151021635,0.4213944141717047,0.6805834960901999,0.13928222656,1.64562988281,0.12276279842629513,0.3486189473365327,0.0421240234368,-0.48278808593,0.47119140625,0.0726564808547259,0.268197531767499,1.0284779818526,0.33347681305,1.70627854117,0.12453228075180986,0.3511224258635323,971.8928869287334,971.61957679944,972.63061433764,0.052683175627830994,1.0110375382000711,0.22837763435054817,-0.0025596534699610382,1.967312595011979,0.5,0.5,1.2805848799369104,Stairs up
-0.9866748046827999,-1.25671386718,-0.7822265625,0.017510095846598215,0.13166242777699427,0.382192382808,0.26647949218,0.53515625,0.004211974770227579,0.06457441461233158,0.093610839841,-0.1123046875,0.22839355468,0.008273901367241206,0.09050504048708444,1.0686612178431998,0.86683992345,1.30366618904,0.016182212880666416,0.1265716822668473,971.7928442209657,971.72616256233,971.84035122922,0.000793734657165382,0.11418866688995877,0.028032076458830664,0.00011296775683944759,0.15492585895965316,0.44,0.56,-0.8515340121704238,Stairs up
-0.9692651367148,-1.29248046875,-0.69177246093,0.029409408744278116,0.1706321032421371,0.3626464843711999,0.27099609375,0.48950195312,0.0029089234091885263,0.05366408645543723,0.0840624999966,0.00415039062,0.20983886718,0.003885865669127586,0.0620242453596681,1.0429039778962,0.77928351866,1.3368077093,0.026512455068500886,0.16201027904986734,971.7566420359805,971.73021705531,971.79245789482,0.0003534246583406277,0.06224083950996828,0.018705357835583403,-0.0004914727227936653,-0.9332877814715137,0.54,0.46,0.20502903455966384,Stairs up
-0.7670581054642,-1.30358886718,-0.18249511718,0.08442554016853951,0.2891042800908595,0.5699096679653999,0.24609375,0.99890136718,0.051657290922079324,0.22614313611705866,0.12227783202700002,-0.06762695312,0.25427246093,0.007231976799058205,0.0846147565798521,1.0235012191783996,0.70313654996,1.36626897747,0.022680756724017585,0.1498464185650675,971.730687817092,971.64658087445,971.79191119791,0.0016576098081556088,0.14533032346002983,0.040509674277560574,0.00013537181681396446,-0.5181699141922662,0.42,0.58,-0.49153715595076625,Stairs up
-0.7648828124957998,-1.20068359375,-0.32861328125,0.06121190258935137,0.2461702328947549,0.6520410156215999,0.31970214843,1.36267089843,0.08910067228313577,0.2970011204697794,0.098081054686,-0.08666992187,0.26220703125,0.010369199237145842,0.10131883953527292,1.0709396563250002,0.77679436405,1.49360023649,0.03230939906360749,0.17884715561890108,971.587524000009,971.43613596918,971.73328115943,0.007692790941277514,0.29714519025003483,0.08726891217303409,-0.0019073178992573888,-1.044880392041425,0.54,0.46,-0.10948398502115186,Stairs up
-0.946945800777,-1.24548339843,-0.70483398437,0.025709608522108275,0.1595384356100034,0.4318212890593999,0.27124023437,0.96923828125,0.02849344487177765,0.16795389374188344,0.2015014648388,0.00756835937,0.67028808593,0.024999199040023408,0.15731880704360549,1.0746124943586,0.77584721648,1.62290431565,0.047875790409098014,0.21770859538614235,971.5280472650986,971.43591884562,971.587546404,0.0010288531157859066,0.15162755838002795,0.03191495863428383,0.00013531990800424258,1.3380664771949364,0.28,0.72,-0.793395506659038,Stairs up
-0.26449707031080005,-0.8330078125,0.08728027343,0.046711919620691524,0.21504604256875923,0.5998730468706,0.35815429687,0.93933105468,0.023843883480519856,0.15364063474782527,0.7120751953084001,0.27062988281,1.06896972656,0.04231579643310688,0.20467691239799327,1.0206700895398004,0.85911539664,1.18060134708,0.0069019274738357375,0.08266140695087025,971.5224074304718,971.45394481143,971.59350989002,0.002159318989142934,0.13956507858995337,0.04623554692281151,-0.0007553548054417923,-1.3162926977652727,0.54,0.46,0.13332237662212137,Stairs up
-0.1677563476556,-0.8134765625,0.29968261718,0.08788879098750847,0.29497441088615367,0.86303710937,0.47985839843,1.38525390625,0.045412146082136735,0.21203307435708083,-0.33147949218480016,-0.77124023437,0.29187011718,0.08335817175545081,0.2872709348992625,1.0203236511412,0.56714873483,1.62561773974,0.05685460881550098,0.2372468392357335,971.5855300320557,971.43707378816,971.7793994592,0.00795661344595535,0.34232567104004374,0.08875273129034282,-0.0017829234473090043,-0.8872707725752207,0.46,0.54,-0.02574849680694321,Stairs down
-0.6287451171831999,-1.20727539062,-0.1015625,0.14472847541100903,0.37852501985588605,0.8363159179652,0.49475097656,1.33154296875,0.0686975309647688,0.26078833496750026,0.10476562499920002,-0.14514160156,0.49743652343,0.03722084565522496,0.19195998853582147,1.1210370384188002,0.5687419351,1.86492992932,0.09811809617205335,0.3116679566627484,971.6969069362646,971.57575496707,971.890093893,0.005953381070912853,0.3143389259299738,0.07677139610690771,0.001350380469515907,0.3174421672622576,0.58,0.42,0.8384026185579853,Stairs down
-0.0023242187496,-0.73767089843,0.64379882812,0.14765408060530963,0.3823317143518917,0.8338891601513998,0.32214355468,1.51953125,0.11119640191993108,0.33178974954138013,-0.06537109375020002,-0.7001953125,0.68225097656,0.2162821107651525,0.46273025582676236,1.0490806069034004,0.67586642483,1.63644378646,0.07016268776721028,0.26355466394950816,971.7435609255181,971.61342520711,971.88203366776,0.0065861309633929695,0.2686084606499435,0.08074818669022259,-0.0006027801012773087,-1.0064290385330212,0.56,0.44,0.08124066724038376,Stairs down
-0.6158557128877998,-1.724609375,0.09826660156,0.2866338067268195,0.5326982904605113,0.8630676269493001,0.20104980468,1.55859375,0.1380941510730175,0.3697474943286125,0.11051147460720002,-0.09887695312,0.34265136718,0.017441881031914058,0.13140571609178542,1.1781509990693,0.25471198543,1.95846817046,0.18796478549463458,0.4313758658521455,971.8609760950811,971.78984193187,971.93502183792,0.0010196159673047673,0.14517990604997522,0.03177136773309767,0.0001038599747444729,-0.20540302542635924,0.46,0.54,0.19763426432056422,Stairs down
-0.46846679687169995,-1.60339355468,0.15002441406,0.15943952367674863,0.3972972796785565,0.8118664550752999,-0.07592773437,1.5634765625,0.23920129124988163,0.4866305357634093,0.23812255858939999,0.0341796875,0.52136230468,0.018258079585135596,0.13444515160199805,1.0522394158069999,0.19234179529,2.04837567521,0.2432452029744779,0.4907267579261733,971.9585918462475,971.90149987709,972.04027665647,0.001834285194312717,0.13877677938000943,0.04261387499828653,0.00034658998747475925,-1.1878378037088888,0.58,0.42,0.5159719745878509,Stairs down
-0.9225024414025998,-1.60339355468,-0.60974121093,0.040359108141031816,0.19988876171416314,0.611835937496,0.33947753906,1.22082519531,0.05002722737758726,0.22254652345927894,0.1585253906216,-0.23327636718,0.36682128906,0.025054659361012335,0.15749321498846294,1.148976120845,0.87521081326,2.04837567521,0.04507548175628489,0.21124565543159,972.0223284531103,971.977682938,972.1386237092,0.0018769334238876165,0.16094077119998929,0.04310642747489915,0.00047742439753525076,0.23793036607147577,0.64,0.36,1.1223529740591092,Stairs down
-0.8696777343716,-1.09545898437,-0.55114746093,0.019576173238183104,0.13921354641629266,0.4551611328081999,0.25903320312,0.65270996093,0.007532710041653567,0.08635614014786111,0.23860351562159998,0.03002929687,1.05627441406,0.06230356823292276,0.24835565737585594,1.0494379777436,0.91974261535,1.3118936296,0.0077180949657172935,0.08741232187775429,972.0469691747909,972.01523927633,972.06714422208,0.0001540549897677064,0.05190494574992499,0.01234967367463729,7.363442679808343e-05,-0.5040566585544002,0.56,0.44,-0.2621279867889427,Stairs down
-0.5389941406216,-1.67053222656,-0.14794921875,0.18452501667925048,0.42741053626748365,0.43026855468419983,-0.67846679687,0.91198730468,0.13634012537603896,0.36739178559445035,0.6213867187478,0.30285644531,1.05627441406,0.04835626212041192,0.2187983078070025,1.0834392988982,0.73806527425,1.85241845622,0.053995598734627,0.23120476367774243,972.0459218346814,972.01051586017,972.09477589911,0.0008334645885716127,0.08426003893998768,0.028725075155443834,-0.0006731621068626514,-1.234865537652717,0.56,0.44,0.2927834098425379,Stairs down
-0.9943310546840002,-1.18481445312,-0.84326171875,0.006213218370973174,0.07842886067809121,0.3382250976533999,-0.29211425781,0.52307128906,0.031614183060482144,0.17691252423126327,0.10022705077820002,-0.29638671875,0.30285644531,0.014260097229935133,0.1188170705649478,1.076844404051,0.94666289984,1.25577112365,0.005160280642545642,0.07147501546778556,972.0444944084473,972.01813889257,972.13817868498,0.0005568857102696661,0.12003979240989793,0.023480137417974566,-0.0003247398724532421,7.458926855900408,0.7,0.3,2.4516497167617985,Stairs down
-0.7772998046846001,-1.06860351562,0.39453125,0.1544538771003531,0.3910362365936814,0.4001977539026001,-0.14099121093,1.01696777343,0.06081896845012272,0.24537884742907545,0.17611083984040007,-0.26135253906,0.63647460937,0.03015322050033762,0.17277641128155846,0.9948807467975999,0.31338896671,1.45053866139,0.0490427894378724,0.22034600414687278,972.0432789985128,972.0099019794,972.07214242681,0.00027165555109514086,0.06224044741009038,0.016399359608966123,-0.0002947280312707341,0.03991614684214939,0.58,0.42,-0.20111919585064536,Stairs down
0.06682373046769997,-1.1611328125,0.83947753906,0.33631398345765057,0.5770189283057134,0.08108520508009999,-0.72534179687,1.33166503906,0.3855612757715924,0.61782332669937,-0.23871215820169997,-1.00146484375,0.76928710937,0.3273473422466089,0.5692748622802019,0.9974273332368001,0.37621278154,1.65050159058,0.11507454814736662,0.33752600294776247,972.0763509614266,971.92140557307,972.48213569216,0.018075383112416965,0.5607301190899534,0.13377080877864497,-0.00012758246140480894,3.99969986060184,0.6,0.4,2.016991151276009,Stairs down
-0.8077624511668998,-1.47766113281,-0.51940917968,0.06415926196806063,0.25202712026363355,0.4741467285124999,-0.20886230468,1.14733886718,0.1162096446485922,0.3391865979105104,0.1950231933567,-0.16687011718,0.50537109375,0.02547743183579586,0.15881642710197805,1.0054102839182,0.54201073142,1.84387617568,0.10936098958275539,0.32904008826726244,972.1531094925944,972.01391443804,972.44378313328,0.013310038413003942,0.42986869523997484,0.11479084470842568,0.003202341176332026,0.9843510704103298,0.7,0.3,1.418578486615787,Stairs down
-0.27173706054560004,-0.86413574218,0.71740722656,0.22298318787262103,0.4698439698388124,0.4809655761681999,0.05651855468,0.98010253906,0.05029333247575551,0.2231376237907851,0.4391333007777999,0.00231933593,1.1162109375,0.09152339708351044,0.3010118986230865,0.9040469795748001,0.54280614819,1.23960466393,0.042280755922988036,0.2045921512760403,972.2171339621165,972.04259327026,972.34586048731,0.006811074913823853,0.30326721705000637,0.08211555373183338,0.002384861510719404,-0.4198018758463662,0.6,0.4,-0.2969366754708837,Stairs down
0.21292724608910002,0.02404785156,0.81335449218,0.04656399575734174,0.2147052765997341,0.6801867675739999,0.07385253906,1.251953125,0.13574590559444188,0.36659029793285236,0.3019934082006,-0.07214355468,0.84436035156,0.08187363341984069,0.2847014174282283,0.8843386263433999,0.34935542425,1.2580885673,0.07947369988784517,0.2804977056750495,972.329320304567,972.22557350924,972.50066139279,0.004947354506319376,0.27508788354998615,0.0699848623722029,0.0011454526138536657,-0.07708142409737029,0.56,0.44,0.5588236357634715,Stairs down
-0.6470288085914,-1.27746582031,0.29614257812,0.23279005482143464,0.4800647396687454,0.7358886718700001,0.11633300781,1.46374511718,0.10695042092303521,0.32539347982681655,0.21553955077740006,-0.05920410156,0.66284179687,0.03470040346016988,0.18534670060610245,1.1478030379042001,0.5203869878,1.61675578265,0.06048522331010316,0.2447046609221045,972.4162094189529,972.30628532581,972.48545197914,0.003277720742834934,0.17916665332995763,0.05696440586371971,0.0014619257739262848,-0.9678475994663827,0.42,0.58,-0.5644610422570084,Stairs down
-0.48538818358999997,-1.15661621093,-0.10546875,0.06728384606151853,0.25809108392368646,0.7095117187465999,-0.06506347656,1.41052246093,0.21053786557102355,0.45654406897397465,0.23888427734059994,-0.07019042968,0.56176757812,0.02259487239326368,0.14956244070397837,0.9737342774296002,0.30679662344,1.63343281803,0.14679620294316334,0.3812194130861277,972.512469280387,972.44125036515,972.60887287913,0.0018019575345306405,0.16762251397994987,0.04223668972807095,0.0010893177470565315,-0.023641675998258282,0.62,0.38,0.6351513948432872,Stairs down
0.18410278319910003,0.08703613281,0.28833007812,0.0032779195258154986,0.05696613318944286,1.0263269042937,0.95483398437,1.05419921875,0.000745717339753541,0.027170943420426266,0.13698730468470002,0.01428222656,0.26574707031,0.002542909347620692,0.0501744980457651,1.0544026139818001,0.98509581983,1.10077972195,0.0007497770526007118,0.027244802845216274,972.5220728771584,972.01097309509,973.10832174232,0.09728474010928749,1.0973486472299783,0.3103415742503647,-0.0038866273454222344,-0.5192110133008172,0.4,0.6,0.2742130355468926,Lift up
-0.3993664550762999,-1.12036132812,0.11437988281,0.20163584023033787,0.4467879607017567,0.7966101074182999,0.22875976562,1.07153320312,0.07384759942000989,0.270386988270164,0.08399291991979999,-0.03991699218,0.18334960937,0.004579522469500602,0.06733295808744479,1.0319066910967,0.75832924479,1.25502313207,0.013703992571540705,0.11647726235547133,972.5237634950142,972.45780031543,972.59229632977,0.002300891855590363,0.1344960143400158,0.047727171894367044,-0.0014737750246790059,-1.633240690825881,0.51,0.49,0.08380322203643224,Lift up
-0.9456225585887,-1.12036132812,-0.88146972656,0.0018636672845942122,0.04295381952455765,0.1806274414041,-0.21960449218,0.52600097656,0.05291770910252413,0.22888541240432708,0.21574951171709997,-0.06323242187,0.47448730468,0.029686689731231567,0.17143460220713685,1.0275028872912997,0.97833491653,1.15694661677,0.0012498482565574218,0.03517598291436712,972.3382639061938,972.23093750933,972.50793605386,0.007644230731844637,0.27699854452998807,0.08699303664389577,-0.00266441678824263,-0.6068030759982022,0.67,0.33,0.989955452195251,Lift up
-0.37277954101209987,-1.09912109375,-0.04736328125,0.11872176320182543,0.34283311620934054,0.5951953124978999,0.34533691406,0.72717285156,0.0135741729690208,0.11592424784888877,0.5740185546843999,-0.04931640625,0.77844238281,0.07059857084231713,0.26437205815648135,1.0054067778791,0.67481591619,1.20986813735,0.012870828559776306,0.11288100050131795,972.095206089584,971.92143026658,972.23093750933,0.010598583076282612,0.3095072427499872,0.10243337954748825,-0.003407726660928605,-1.2053510297268144,0.47,0.53,-0.32367248845697344,Lift up
-0.4113146972618999,-0.60302734375,-0.13830566406,0.019290341721195942,0.13819348140916046,0.1875048828103,-0.27014160156,0.76696777343,0.13466001999301738,0.36512110291393346,0.8244201660116,0.58447265625,0.97192382812,0.014605516548973733,0.12024750052905048,1.0247297920349,0.9864219923,1.09232620482,0.0008137820079652486,0.028383871967819965,971.8298405153633,971.72787283426,971.96836123485,0.004418352949984692,0.2404884005900385,0.0661375038876192,-0.0014810844709220834,-0.26172100644849117,0.67,0.33,0.5638818467549971,Lift up
-0.22284423827730002,-0.28100585937,-0.1806640625,0.0006815440184757782,0.025975538075100973,-0.2441394042929,-0.26293945312,-0.22424316406,0.0001294250123949473,0.011319485954361965,0.945727539058,0.92346191406,0.96667480468,0.00014632278017230412,0.012035761395548728,1.0022646177046999,0.98879722273,1.01823797083,7.831958322269566e-05,0.008805474853207448,971.5865047827472,971.44754504732,971.72787283426,0.005381398139405892,0.28032778694000626,0.072990301807924,-0.002481855351636547,-0.7603622520216131,0.51,0.49,-0.05807766453273239,Lift up
-0.23411865234020005,-0.24401855468,-0.22290039062,3.511902659081846e-05,0.005896425724530945,-0.2415991210904,-0.26477050781,-0.22180175781,0.00010667978511375736,0.01027681795414416,0.9484814453079999,0.94006347656,0.95776367187,2.0531066740382332e-05,0.0045084094837291025,1.0064486771221,0.9959605558,1.01518959836,2.0704726822306984e-05,0.004527436311433206,971.3438523093522,971.23771616643,971.44754504732,0.003912621159505162,0.20982888088997242,0.06223740794658877,-0.0021381406864766964,-1.2745650541986342,0.51,0.49,-0.20602227073011758,Lift up
-0.2192260742155,-0.23315429687,-0.21240234375,3.6484514830571964e-05,0.0060099641997491335,-0.23516967773049996,-0.27160644531,-0.22595214843,7.567366415180199e-05,0.008655456516572882,0.9072436523406,0.88500976562,0.95251464843,0.0002955833528821364,0.017106359032632135,0.9625856482038999,0.94153541058,1.00917562812,0.00029134104951604727,0.01698315751033614,971.1247711652079,971.05624000809,971.23771616643,0.0030859650975014123,0.18147615834004682,0.055273008299950514,-0.0018885247821683112,-1.2055824047464232,0.51,0.49,0.3204556119416212,Lift up
-0.2544641113232,-0.32739257812,-0.22058105468,0.000994098082637953,0.0313712782941909,-0.21122070312029997,-0.27160644531,-0.12768554687,0.0012377310521654913,0.03500505308728779,0.9388720703086,0.88708496093,0.96862792968,0.00042157375448551336,0.020429342058437865,0.9965876415790998,0.95415367054,1.02019162915,0.0002897730299596374,0.01693739353206511,971.0181486522455,971.00631104686,971.056742239,0.00017855125385944615,0.05043119213996761,0.013295327800428679,-0.0003416119667840661,1.2260005323812289,0.63,0.37,1.3646589958594184,Lift up
-0.21891723632340004,-0.30688476562,-0.13159179687,0.001289238428510063,0.03572598555988291,-0.3090551757772,-0.5966796875,-0.16088867187,0.018832371566098637,0.13654320873056136,0.9207958984337,0.79968261718,0.98779296875,0.00328239067640148,0.05700497144668582,1.0070786548282,0.98365319748,1.04383903797,0.0002701901621326508,0.016355068343217777,971.0236177656096,971.0055660418,971.05037293456,0.0001536012109565049,0.04480689275999339,0.012331471884853805,0.000205744742069475,-0.6619527678187307,0.61,0.39,0.5458466883339381,Lift up
-0.9085058593712,-0.94165039062,-0.82666015625,0.0004789144342202848,0.021774418244308664,0.3766076660121999,0.3427734375,0.57458496093,0.002622976765073373,0.05095828683759531,0.16640014648050003,0.14123535156,0.24487304687,0.0005345935698393243,0.023005382721027073,0.9991516672447998,0.98123482491,1.0360876895,0.00020333850891318274,0.014188203685599206,971.027126542186,971.00419128794,971.04129831486,8.143629188124127e-05,0.037107026920011776,0.00897897148689252,-5.974207862605147e-05,1.4797716967043213,0.37,0.63,-1.4175119568660393,Lift down
-0.5173425292927999,-0.82666015625,-0.37316894531,0.01517007665632707,0.12254948343328012,0.5416760253872999,0.39050292968,0.76489257812,0.009316701207226016,0.0960392325831155,0.6004589843716999,0.24487304687,0.80969238281,0.03037138416285858,0.17340031811167472,0.987559343261,0.9377620728,1.04481244093,0.0006498231870667861,0.02536385134785564,971.1021631131558,971.00740096458,971.25429151515,0.005005351875139106,0.24689055057001497,0.0703938801060697,0.0022230684829954946,-0.699881310632831,0.49,0.51,0.43160788789412263,Lift down
-0.40946289062119995,-0.42834472656,-0.39074707031,0.00010395738812453535,0.010144841755458288,0.8346289062471999,0.72973632812,0.90893554687,0.0027778094705707924,0.052440741564789915,0.3853015136679999,0.26416015625,0.58483886718,0.009816665810368604,0.09858244850004953,1.0125090870578999,0.9874178315,1.02914775079,0.00012052862643477433,0.010923522333497863,971.2808786797576,971.19859038218,971.39304573858,0.002748486274923818,0.1944553563999989,0.05216321895909588,0.0016528780303348293,-0.4064572625578027,0.65,0.35,0.46988542197919575,Lift down
-0.4563867187456999,-0.47570800781,-0.42297363281,0.00011972347895637184,0.010886975896308769,0.7242602539023,0.70544433593,0.73962402343,8.846985571309787e-05,0.009358694201434668,0.5552697753865999,0.52856445312,0.58483886718,9.510157536681415e-05,0.009703121127407717,1.0204964411519,1.00243115686,1.03377169016,5.4092372000250174e-05,0.007317885506090381,971.5237041346373,971.39304573858,971.69794005651,0.005593153893685506,0.30489431793000676,0.07441251477237314,0.0025221550776299436,-0.4854164090780584,0.49,0.51,0.302457543041348,Lift down
-0.21533081054540001,-0.49072265625,0.15942382812,0.06713966302511824,0.2578144030012037,0.8217858886678999,0.67883300781,1.15979003906,0.010874785333724593,0.10375951754122292,0.43233276366809986,0.22741699218,0.73022460937,0.014150726089467042,0.11836054591193965,0.9959593910543001,0.77432017581,1.22592752871,0.007999431719044839,0.08899122092574296,971.7740312495796,971.6965917857,971.92118209922,0.004071313213486172,0.22459031352002512,0.0634870071853392,0.0018891735111044134,-0.7760149047930169,0.53,0.47,0.5643806771457164,Lift down
-0.32347778319940007,-0.36206054687,-0.18969726562,0.000842516246208209,0.028880635099424783,0.9381420898398,0.87622070312,1.15979003906,0.003129850920930476,0.05566464238384337,0.3206005859335,0.16333007812,0.42797851562,0.0062148708044180555,0.0784392892393466,1.0468801673983001,0.99531966405,1.22592752871,0.0016772458134556216,0.04074890618557835,971.9953728437206,971.90852662826,972.14916663092,0.004764699482517242,0.2406400026600295,0.06868080144911,0.0022969034437369624,-0.9265286601652631,0.49,0.51,0.40832575572957147,Lift down
-0.3126232910119999,-0.33996582031,-0.24816894531,0.0007089958934457384,0.026493507402971034,0.9047729492143,0.8369140625,0.98071289062,0.0020927586639301935,0.04551737115971101,0.3097949218713,0.05676269531,0.49133300781,0.02156673920308326,0.14612005957791158,1.0178932052120997,0.98808761629,1.06181704085,0.0003419565027149241,0.018399373296060246,972.2505359151994,972.14916663092,972.3622123205,0.003571390778468254,0.21304568957998526,0.05946155792344809,0.0014547215212362948,-0.9252335239784553,0.53,0.47,0.39201991678852266,Lift down
-0.38703124999539995,-0.4228515625,-0.3359375,0.0004633256642733182,0.021417105491419352,0.8323242187459,0.68322753906,0.90075683593,0.0019448267088602552,0.043879134469262865,0.5217822265587999,0.33728027343,0.71423339843,0.006210728221505344,0.07841314264388521,1.0596671031061002,1.00566767375,1.09743175722,0.0004563716408557312,0.021255773908450706,972.4737389391954,972.3622123205,972.57970347724,0.004736896411668948,0.21749115673992492,0.06848012447091681,0.001948639590133309,-1.3521097673454394,0.45,0.55,0.08520612575761523,Lift down
-0.3476342773396999,-0.42932128906,-0.30029296875,0.0015494914909562933,0.039166268344670394,0.6949450683564998,0.59814453125,0.77978515625,0.002909852848738197,0.05367265896385994,0.6750842285116999,0.59057617187,0.7451171875,0.002792921420010934,0.05258319318766049,1.0326270807541,1.00414508546,1.08244006149,0.00040202989550262673,0.019950177857543036,972.5583487911608,972.48998454692,972.60683204584,0.0009774604356073146,0.11684749891992396,0.031107649079466636,0.0007964389478469313,-0.7004699721736705,0.57,0.43,-0.36544717623634404,Lift down
-0.4863256835905,-0.939453125,-0.318359375,0.04856882492098634,0.21927867354527772,0.6481518554652999,0.37890625,0.74328613281,0.009985153187374802,0.09942485431470872,0.5788769531220999,0.35290527343,0.69787597656,0.011810117514570903,0.10812962748213459,1.0296959304792999,0.97220250925,1.09507253252,0.0011098692331690857,0.03314770792735743,972.5922492431339,972.56885684753,972.63565406514,0.0002827095301013123,0.06679721760997381,0.01672968722960173,-0.0004030777467443621,-0.014974033671345754,0.51,0.49,0.6606902337500031,Lift down
-0.9156628417938001,-0.96008300781,-0.88317871093,0.00043444678488491114,0.020738908289398023,0.3892041015593,0.33068847656,0.51281738281,0.0018216279780943231,0.04246659508735519,0.2382116699176,0.13635253906,0.38061523437,0.003238091340893866,0.056618993522358975,1.0252966575243003,0.95439890637,1.08213219016,0.0008778390994718254,0.02947983562500149,972.5940268333502,972.54359997057,972.63701586882,0.0004923767268993506,0.09341589824998664,0.02207833688551647,-0.00015991682100705937,0.5496469235437265,0.28,0.72,-0.480143080192551,Lift down
-0.905043945308,-1.03833007812,-0.78784179687,0.00688660424168643,0.08256959609486754,0.36785644530959993,0.12524414062,0.572265625,0.015311069103257427,0.12311766084613877,0.28123535155759993,0.03662109375,0.47729492187,0.009652370539465164,0.09775401185665226,1.0311982037828,0.93061515463,1.08665127932,0.0016949881046807898,0.040963864852257066,972.5945174673324,972.51565687407,973.04501926595,0.009496836501758735,0.5293623918799994,0.09696323084933355,0.002260320590319015,11.199088076453627,0.57,0.43,2.9802245825407776,Lift up
-0.9216113281224,-1.03820800781,-0.89770507812,0.0008238188907662773,0.02855837358566861,0.2919384765592001,0.17639160156,0.32678222656,0.0007623146037774592,0.027471648253056907,0.4378564453083999,0.37719726562,0.46899414062,0.00023570195593603812,0.01527563211054383,1.0619835638648,1.04268977545,1.11860075173,0.0003114223155261834,0.017558704176872553,972.9181836749303,972.26748969049,975.72186006595,0.81503202193066,3.4543703754599164,0.8982659415292074,-0.015012130083576693,4.769839240166383,0.83,0.17,2.4530612083130365,Lift up
-0.8907373046824,-0.91223144531,-0.87231445312,0.00019131395553570167,0.013762296900602917,0.2905957031208001,0.28039550781,0.29858398437,2.985419649583037e-05,0.005436511246274771,0.42624999999560004,0.41455078125,0.43688964843,4.6433439162103466e-05,0.006780051974025157,1.0293820683219999,1.01277748149,1.05209072585,0.00018722638322055918,0.013614481972824144,972.3477227265263,972.16220888347,972.55748608633,0.01695131779525015,0.39527720285991563,0.1295446047402116,-0.0003041629019900462,-1.4025957383681331,0.52,0.48,0.2179182505956668,Lift up
