avg_accX,min_accX,max_accX,var_accX,std_accX,avg_accY,min_accY,max_accY,var_accY,std_accY,avg_accZ,min_accZ,max_accZ,var_accZ,std_accZ,avg_magnitude,min_magnitude,max_magnitude,var_magnitude,std_magnitude,avg_pressure,min_pressure,max_pressure,var_pressure,range_pressure,std_pressure,slope_pressure,kurtosis_pressure,Pressure_below_avg,Pressure_above_avg,skew_pressure,Label
-1.0947998046844,-1.65246582031,-0.53918457031,0.06107998857618779,0.2459048366552108,0.2907470703088,0.09509277343,0.63513183593,0.021341052320300303,0.1453535063116721,0.127868652341,-0.13525390625,0.53662109375,0.032063187522576586,0.17816440623017502,1.1613573226242,0.54960330507,1.73606018299,0.06470648363867855,0.2530996222879279,973.6480018035588,973.53211929579,973.76788366209,0.0038947250067623966,0.23576436629991804,0.062094909265532974,-0.0006855495999014542,-0.33176964758827987,0.61,0.39,0.4342279348692574,Stairs up
-1.0467993164024,-1.45654296875,-0.6201171875,0.06512691390051917,0.2539205481277834,0.22367431640260002,0.06469726562,0.33483886718,0.0046613171907715105,0.0679316128092348,0.0915917968722,-0.02795410156,0.21948242187,0.007837130228179424,0.08808381761650451,1.0816068447564,0.65327812708,1.49585649287,0.061801825226363995,0.2473536071580529,973.5335289565035,973.48484012379,973.57487383276,0.000706732718123815,0.09003370896994056,0.026451188837981875,-0.00041734909633548057,-1.0541228462413685,0.49,0.51,-0.10219873115415927,Stairs up
-0.9485595703091999,-1.36108398437,-0.56591796875,0.0591429730856114,0.241974261760947,0.3657983398405999,-0.03979492187,0.70556640625,0.03842662674571516,0.19504450896720474,0.1504028320288,-0.04516601562,0.35729980468,0.015382113631165218,0.1234029679337315,1.0599471141676,0.71674778117,1.46643611062,0.044978795184890716,0.21101897363280347,973.5446355465776,973.25212030405,973.82343643135,0.01558294421008199,0.5713161273000651,0.12420593692727079,-0.0012521511303011205,0.02091086985770385,0.51,0.49,-0.2506533727981797,Stairs up
-0.9566479492145998,-1.23620605468,-0.72265625,0.02728893540696299,0.16436558658336411,0.38403808593399996,0.16931152343,0.82092285156,0.01964836527610657,0.13947000259319386,0.0831542968756,-0.12414550781,0.39465332031,0.02546033232999346,0.15876312231338083,1.0588710769340002,0.79957266063,1.33591462277,0.02024331958387223,0.14156583764465744,973.3052777829033,973.11540380329,974.07964365484,0.019443008527529275,0.964239851550019,0.13873924622201889,0.0021364653295391773,16.8640524836742,0.4,0.6,3.162202441064019,Stairs up
-0.9592626953087999,-1.30187988281,-0.58874511718,0.038439266031521396,0.19507658334922257,0.336040039058,0.09143066406,0.58703613281,0.016221693886752455,0.1267259916034786,0.1340478515592,-0.07958984375,0.32751464843,0.01111488910613545,0.1048987140773141,1.0369791497024001,0.68508881701,1.39744024041,0.04128180463258099,0.20216079389004976,973.2977147641033,972.6184037828,974.17328861575,0.23542964865088428,1.5548848329500515,0.4827787818083718,-0.010042102504737482,-0.973573993952956,0.54,0.46,0.3778981586823075,Stairs up
-1.091252441403,-1.62072753906,-0.58630371093,0.06645953968910304,0.2565052519778338,0.285634765622,-0.17724609375,0.78247070312,0.059723472258170124,0.2431588730348708,0.0104370117174,-0.18371582031,0.21411132812,0.007267855182572698,0.0848243870048406,1.1491165907956,0.58775925039,1.78671271502,0.08502571780504828,0.2901300753575847,973.3274747075956,973.21912496535,973.48610890787,0.004845322359648037,0.2669839425199143,0.06925943355277718,0.001161444474810542,0.40254424796092003,0.62,0.38,0.6823668507292073,Stairs down
-1.0486523437460002,-1.44201660156,-0.65625,0.03928775146770003,0.19721783376009133,0.2272363281214,0.09033203125,0.41381835937,0.007114201627547773,0.08392293852858285,-0.0358105468742,-0.28662109375,0.21411132812,0.012615655262585988,0.11175642581059993,1.0826695802108,0.71608211002,1.49805222153,0.03923686312157293,0.19709006695000436,973.4260322559028,973.28573396786,973.56727026232,0.006389735054681177,0.28153629446001105,0.07953513502933383,0.001317894769168092,-0.8860337333393855,0.5,0.5,-0.17884785510330603,Stairs down
-0.9894995117150001,-1.36791992187,-0.75793457031,0.02352622692649295,0.15261377610565835,0.3292480468717999,0.19104003906,0.70251464843,0.009150687492236992,0.09517972797457777,-0.003713378907,-0.17260742187,0.12939453125,0.008587638590751508,0.09220500097523991,1.0508784987292001,0.79735107786,1.39993894414,0.024276401641478894,0.15502786080270897,973.5534226114831,973.49621790364,973.70392928798,0.0035432435792656764,0.20771138434008662,0.059226777250438165,0.0007044871752390771,1.223968251370275,0.7,0.3,1.4948930153355124,Stairs down
-0.6828173828083999,-1.11218261718,-0.38647460937,0.030426004173662025,0.17355616996213477,0.7376757812453999,0.48278808593,1.09326171875,0.02114642205875352,0.14468917664485476,0.0722534179664,-0.265625,0.30883789062,0.0211237315270298,0.14461152862672985,1.0326910732744,0.78258788946,1.32334824027,0.021357612396016117,0.14540989055788453,973.92531752242,972.84757012626,974.36500013593,0.16393844996535573,1.5174300096699653,0.4028635817068877,-0.0007898835159081049,0.26794436691842893,0.44,0.56,-0.9598451382287595,Stairs down
-0.566164550778,-0.8359375,-0.33288574218,0.017759111487776588,0.13259532560727327,0.8445117187468,0.34851074218,1.10717773437,0.029098132981291006,0.16972669693209166,-0.049587402343399985,-0.26940917968,0.15710449218,0.012179701188927,0.10980848863834586,1.0317265363299999,0.73657436958,1.29642346001,0.03049311370147249,0.17374746779293726,973.4343849346051,972.84757012626,974.09518710023,0.09253291676505644,1.2476169739699117,0.30266745381260585,0.006213471347993218,-0.28729304773322095,0.64,0.36,0.4004264382686336,Stairs down
-1.117375488277,-1.33923339843,-0.74035644531,0.02213370872860745,0.14802827987017,0.40564208984139993,0.09130859375,0.6923828125,0.031986438560066326,0.17795104431968264,0.0973632812468,-0.07189941406,0.34313964843,0.009025591792043486,0.0945269055566882,1.2085473135783997,0.82108302485,1.45409993311,0.024728048403321413,0.15646331173565323,973.6532860880934,973.41136409436,973.75729753976,0.0074577684052714345,0.3459334453999645,0.08592549517587152,0.002512079571947103,0.8468851062110248,0.34,0.66,-1.223801424232641,Stairs down
-1.110239257808,-1.28649902343,-0.91955566406,0.01201947279632432,0.10908381212792793,0.31167236327779996,0.07995605468,0.60693359375,0.027158864995853026,0.16397340133660243,0.06222412108879999,-0.005859375,0.12866210937,0.001662438451587155,0.040568634030138155,1.1655602600607997,0.92305934121,1.34470702623,0.01570137525771229,0.12467702877890204,973.7222195312811,973.68088261189,973.76195724938,0.0006534777983019793,0.08107463749001909,0.025435074608087145,0.0003778559335447147,-1.476331061304793,0.58,0.42,0.29292157124386164,Stairs down
-1.1111791992148,-1.4189453125,-0.77709960937,0.024936228262096422,0.15712054601316613,0.32552978515279996,0.04040527343,0.61499023437,0.03271220597971871,0.1799585616744075,0.0464111328114,-0.06066894531,0.2041015625,0.004538077898485531,0.06702758476553274,1.1720021995844,0.78051080065,1.47262435595,0.031129634572139575,0.175551525844745,973.7252966511701,973.69122192519,973.77516128482,0.0007037823478580229,0.08393935962999421,0.02639591870686532,0.0002902793198311201,-0.9770636298046163,0.64,0.36,0.5821760587198814,Stairs down
-1.1209326171831997,-1.37048339843,-0.7998046875,0.022091969359769592,0.14788863940875208,0.35221679687259994,-0.00537109375,0.75036621093,0.051633577009567694,0.22609122326944053,0.10183105468400001,-0.01782226562,0.24951171875,0.004950917730331303,0.07001006037012103,1.2013882403958,0.95576078984,1.45668233216,0.02572945783767011,0.15960001021081863,973.7188475863268,973.68399187291,973.79645291658,0.0011182896370783714,0.11246104367000953,0.03327321356147596,3.946485795541018e-05,0.008410090538837345,0.6,0.4,0.95460693348623,Stairs down
-1.0723803710902002,-1.52416992187,-0.68957519531,0.04642714780383946,0.21438954341525396,0.29115966796419995,0.12329101562,0.57348632812,0.009964043859179943,0.09931970308346749,0.0143676757806,-0.21899414062,0.21875,0.007715517974386471,0.08739772762859803,1.120342663611,0.7005638738,1.56412615079,0.043715152818048296,0.20803365422418513,973.7625595135971,973.68520372745,973.88235552008,0.002139819080465956,0.19715179262993843,0.04602630649597354,0.0007931492496033372,1.4201572920454923,0.46,0.54,0.9619716018636483,Stairs down
-1.0898608398398,-1.57775878906,-0.49865722656,0.08454751126121308,0.2893130417879584,0.31114013671540003,0.02160644531,0.72839355468,0.03643447101116832,0.18992136873205354,0.0816601562488,-0.22033691406,0.36181640625,0.028662808590777064,0.16845230928921484,1.1590158054260002,0.50374869907,1.6573424605,0.09707466842224208,0.31000632531937095,973.8521822698214,973.69913854507,974.18577517437,0.02083834293933125,0.48663662929993734,0.143631331922871,0.000373117772240118,0.7231526407269322,0.68,0.32,1.4270463843111172,Stairs down
-0.9562011718713999,-1.26171875,-0.58801269531,0.028465119275021492,0.16787039072531904,0.3569775390591999,0.09875488281,0.79064941406,0.029659750341201063,0.17135679980026777,-0.0042456054698000005,-0.18542480468,0.24255371093,0.012954907759757411,0.11324910013841098,1.0356420296374,0.61191327301,1.32842557535,0.03998609666496287,0.19896290030634667,973.9161458064904,973.78998286626,974.06917058547,0.004522188917358604,0.27918771921008556,0.06691014144496348,0.002117332833828118,-0.15302907805491683,0.5,0.5,0.12547037426299346,Stairs down
-0.9970703124957998,-1.41076660156,-0.79724121093,0.024927400579315542,0.1570927324019873,0.27864257812079996,0.20715332031,0.45300292968,0.0035294021981699154,0.05911098185775818,0.0043261718742,-0.18054199218,0.16137695312,0.012204529756673107,0.10992035507178084,1.0430265538942,0.85246189113,1.44540164775,0.024403977017499703,0.15543467196003827,974.0451920739235,973.98294810126,974.1893644218,0.002480355053793631,0.20641632053991543,0.04955352160296678,0.000666161042073519,0.5392820587048686,0.56,0.44,0.8394258005641634,Stairs down
-1.000961914059,-1.38024902343,-0.63439941406,0.0276920666836806,0.16557519746883526,0.27620605468320003,0.08227539062,0.51245117187,0.015415616974681034,0.123537285079988,0.0171801757796,-0.20300292968,0.2431640625,0.010232578509295315,0.10064915659955806,1.0519596251611998,0.66310497138,1.43004460903,0.024946972782194907,0.15715439241196205,974.1459623029733,974.07115338908,974.2596743081,0.003422438468938317,0.18852091901999302,0.05820836781983269,0.0006222758436785843,-0.9864268964174028,0.5,0.5,0.34167046917492233,Stairs down
-1.0430639648395998,-1.46691894531,-0.71643066406,0.04005429738152687,0.19913250464881818,0.313854980465,0.07763671875,0.66613769531,0.02952416211059738,0.17096467614537048,0.0180883789054,-0.17810058593,0.2587890625,0.01101673052091612,0.10443449246157592,1.1044796035282003,0.72245222768,1.49442101135,0.04720062269221984,0.21616802831431303,974.2121733043056,974.14160549731,974.33708049167,0.0030018783974940727,0.1954749943599836,0.05451476509643174,0.0009312709183652533,-0.9124904567050791,0.54,0.46,0.4240959312044396,Stairs down
-1.156411132809,-1.54919433593,-0.63220214843,0.0643789012266252,0.2524581395288315,0.26795166015219996,0.01782226562,0.70202636718,0.03552618135691844,0.1875391147023715,0.0539941406232,-0.14379882812,0.203125,0.007925080192968401,0.08857668649841625,1.2042237913276,0.63348462473,1.59368090853,0.0692899889214931,0.26191045995201906,974.2716452036985,974.16762764543,974.51726843914,0.005636230102055352,0.349640793710023,0.07469851270965706,-0.00046721279339298,2.6319189410800243,0.64,0.36,1.5699742939359906,Stairs down
-1.1401708984340002,-1.384765625,-0.88671875,0.01667554874613895,0.1284865489406481,0.3522656249968,0.04345703125,0.662109375,0.03454753519302227,0.18493798917770263,0.10257080077820001,-0.01904296875,0.2060546875,0.003374695663366269,0.057800940362009744,1.2120671003180001,0.89498117118,1.43222419637,0.019744104540760112,0.1398093827157266,974.2864179360436,974.25265220432,974.31671104242,0.0005398856586689829,0.06405883809998159,0.023118970610351428,-5.4714318929558136e-05,-1.5968266850490385,0.56,0.44,-0.07991792147080723,Stairs down
-1.1121874999966,-1.37036132812,-0.94799804687,0.009016052616895344,0.09447693946528112,0.33233886718339994,0.08215332031,0.61608886718,0.032784289927995536,0.18015672906865174,0.08290527343380001,0.01379394531,0.1357421875,0.0009773098820062174,0.031105253305288405,1.1766388328896,0.95613511617,1.4265317901,0.012277146457207098,0.11024688200867645,974.2943259698242,974.25057544569,974.3489162852,0.0008973383182058375,0.09834083951000139,0.029805451431303285,0.00013787133762982316,-1.2465500616499532,0.56,0.44,0.35784589060725835,Stairs down
-1.0689282226518,-1.35717773437,-0.79382324218,0.024947120451489023,0.1571548575354072,0.2847387695273999,0.05163574218,0.61059570312,0.022002960750555915,0.1475904168401538,0.052604980466400005,-0.0517578125,0.13525390625,0.0018542911127157615,0.042845632234670125,1.118068700429,0.84076361736,1.38286735404,0.02493909670178207,0.15712958262136462,974.2955800174603,974.24627367715,974.34426340272,0.0007799971766356157,0.09798972556995977,0.027788436531572976,0.00026560339009959287,-0.9766615816362472,0.54,0.46,0.0470231662987981,Stairs down
-1.0569335937456001,-1.30041503906,-0.84118652343,0.017157796657646794,0.13033118848176872,0.21781249999660005,0.04223632812,0.501953125,0.01705788267973792,0.12995115949055835,0.05144775390380001,-0.19921875,0.20861816406,0.011875197266715112,0.10842714279205166,1.0924807411743997,0.85596648416,1.35106608474,0.01950866275308152,0.1389732928499239,974.3529390571706,974.26130082605,974.4824753349,0.003748470248520062,0.22117450884991285,0.06091785900731297,0.0010626437049024477,-0.47881757790948365,0.5,0.5,0.5323572196026372,Stairs down
-1.0402319335904,-1.390625,-0.61437988281,0.03591637183310316,0.18856619027485316,0.3069067382774,-0.01123046875,0.56640625,0.021541741574555528,0.14603535242813628,-0.0059228515624,-0.16528320312,0.09375,0.00529469097468575,0.0723998899511518,1.0933931939667998,0.61572286195,1.42289799789,0.04335949652057712,0.20718566928089246,974.4364630943337,974.34436979446,974.56369352666,0.003893886375503597,0.2193237321999959,0.06208822361566291,0.001168004228877361,-0.4348066768442793,0.74,0.26,0.904659438111744,Stairs down
-1.0299121093704,-1.34631347656,-0.84899902343,0.016575439385678237,0.12810029270778991,0.233037109371,0.01916503906,0.40417480468,0.006720958912048033,0.08157051748596152,0.0182812499996,-0.12658691406,0.15490722656,0.0069611557561533805,0.08301532508273306,1.0621310583332,0.85052151879,1.37746908382,0.017365701931799062,0.13111843849162128,974.5292056435907,974.41062377167,974.64884829824,0.004375019857414527,0.2382245265699794,0.06581238226079027,0.0014649243402188197,-0.6183272968746407,0.44,0.56,-0.16392131848817973,Stairs down
-1.0083520507776,-1.32250976562,-0.77404785156,0.022559834303252577,0.14944643174134353,0.2825952148392,0.13500976562,0.36584472656,0.0034954310004662722,0.05882581653034329,-0.0001342773436,-0.16650390625,0.16748046875,0.00925479769050857,0.09571964121121374,1.0534884168061998,0.80849040564,1.35116289548,0.021972777581516972,0.1474891514847848,974.6338338384926,974.59474998846,974.70642608143,0.001487711026784395,0.1116760929700149,0.0383775183736071,0.0009390247119058081,-0.9416993509301319,0.58,0.42,0.7139268733589167,Stairs down
-1.056799316403,-1.46569824218,-0.61596679687,0.04266269715766356,0.20551416054882185,0.2838842773406,0.07885742187,0.49633789062,0.013436979169980006,0.11533693848147784,0.050732421873399984,-0.12902832031,0.21728515625,0.006543545409461388,0.08048670669972013,1.1040440359253998,0.63652332794,1.4937847686,0.04352768985613903,0.20758712136733734,974.7168692354479,974.63424534618,974.80579982748,0.002444186119105238,0.17155448129994966,0.0491908960877334,0.00019364148747700696,-1.036650864845218,0.6,0.4,0.10800623544917375,Stairs down
-1.1165551757768,-1.59509277343,-0.60144042968,0.07618781875463883,0.2746378352796505,0.25887451171599996,-0.17468261718,0.76708984375,0.050331335025063435,0.22322191127846924,-0.013796386719,-0.45153808593,0.20263671875,0.028958677937205725,0.16931949432310997,1.1733764235011999,0.61187731659,1.61182866038,0.09193195538376862,0.3016830055371547,974.799240718384,974.66266045301,975.09085827911,0.014008842640626714,0.42819782610001766,0.11776567502553725,0.000667897953365857,0.6407273968640919,0.66,0.34,1.3447829440181547,Stairs down
-1.0564355468706,-1.35363769531,-0.71520996093,0.023699072539425065,0.1531733717525041,0.2757690429659,-0.05883789062,0.56701660156,0.024408563068015393,0.1554492760913837,0.148858642576,-0.04968261718,0.50500488281,0.02447446921072774,0.15565900076327246,1.1237026340548,0.74805964366,1.36441432898,0.023648686068038376,0.15301045456882348,974.7630292076035,974.6869294558,974.86703935661,0.0014747991626280538,0.1801099008099527,0.03821061594638031,-0.0005670525340849304,2.215260067543568,0.64,0.36,1.1836197166062998,Stairs up
-1.0015637206988,-1.53491210937,-0.61120605468,0.07182640129083798,0.26666109067115434,0.20219848632350002,0.06762695312,0.36706542968,0.004455093511131221,0.06641191591890652,0.17844726562180002,-0.05383300781,0.45361328125,0.01649845992658268,0.1278024856069586,1.0496553390050996,0.64554226504,1.57911057431,0.06659935917258632,0.2567749317609888,974.6756061829021,974.61152889836,974.75692287693,0.0015947237197666733,0.14539397857004133,0.03973382038728476,-0.0009537526803175154,-1.046076910307366,0.62,0.38,0.47186393458974574,Stairs up
-1.0212915039038,-1.53491210937,-0.67687988281,0.05072703541553359,0.22409766857640054,0.2551000976526999,0.01818847656,0.4619140625,0.01208279698182033,0.10937078683086324,0.08795166015350002,-0.05383300781,0.20666503906,0.005066994314152541,0.07082601478984268,1.0621907423309,0.68935393573,1.57911057431,0.052499948939906026,0.22798015143978426,974.5771041037092,974.49911344282,974.73684864714,0.002213450436979881,0.23773520432007444,0.04681149359516402,-0.0010904547370405155,3.2035754761246222,0.51,0.49,1.2259117765527647,Stairs up
-0.9781469726526001,-1.521484375,-0.68884277343,0.0635152696904412,0.2507590815773913,0.21878173827700004,0.06225585937,0.35424804687,0.006661487233752953,0.08120881948049377,0.111738281248,-0.03234863281,0.30908203125,0.01059061153932804,0.10239485057333088,1.0189263660874002,0.70891182898,1.55391686475,0.059465805939637524,0.2426337731649103,974.4895632947331,974.42675729153,974.54867381835,0.0007908366162881293,0.1219165268200868,0.027980855064226467,-0.000850905311102733,-0.505933735009799,0.5,0.5,0.3934681385795924,Stairs up
-1.0041015624966,-1.46691894531,-0.68713378906,0.04629970259186323,0.214095085338138,0.29063964843379997,0.20751953125,0.37158203125,0.0024297567570099317,0.04904548082586032,0.0755346679668,-0.1171875,0.26257324218,0.011058055565307354,0.1046301821161288,1.0571640535531999,0.73751267284,1.48618490403,0.04039458864067914,0.19997660551742633,974.4108278495019,974.36366336807,974.47674219449,0.000897023928618571,0.11307882642006462,0.029800229685899824,-0.0007168463873942687,-0.5223023233677315,0.58,0.42,0.20813896739124532,Stairs up
-1.0012109374968,-1.42858886718,-0.65991210937,0.05419610837482123,0.23163364887484075,0.2449829101528,0.09484863281,0.36328125,0.0039616005890770545,0.06262575016066702,0.0599804687482,-0.08483886718,0.17553710937,0.004663283631881164,0.06794594024341964,1.0372505850904,0.69828772763,1.46200775783,0.05287033400033555,0.22878293349883463,974.3463275383853,974.28961420067,974.39853193959,0.0013074157538885587,0.10891773892001311,0.035976959242682995,-0.0006163909282940513,-1.226888713778156,0.46,0.54,-0.22240473972844194,Stairs up
-1.002526855464,-1.20007324218,-0.7919921875,0.015207833864623809,0.12270189699420939,0.304682617185,0.12866210937,0.53173828125,0.011216253921333637,0.1053759525798951,0.0414208984352,-0.08959960937,0.18115234375,0.004757632173230619,0.068629846652155,1.0540626678808003,0.83066128161,1.31230963734,0.019625332230049454,0.13938823087961538,974.2939529284006,974.26281470714,974.32495428985,0.00036232573808088405,0.06213958270996045,0.018939442460116803,-1.518369657782376e-05,-0.9322334666728489,0.5,0.5,0.032817581976305944,Stairs up
-1.1122583007774,-1.27758789062,-1.001953125,0.008216264205655775,0.09018925414703914,0.2843786621058,0.08642578125,0.482421875,0.015382485454423925,0.12340445940029755,0.0132250976563,-0.17053222656,0.21984863281,0.014534060767917195,0.11995299146014668,1.160315070109,1.02818253219,1.36248746349,0.01196810807282142,0.10885047998099598,974.2978543212729,974.2602322412,974.37297201833,0.0009242017733290298,0.11273977712994565,0.03024830169771089,2.629037160120688e-05,0.16878031691349893,0.56,0.44,0.8874888426904519,Stairs up
-1.0384790039023,-1.21179199218,-0.88098144531,0.007925965442765548,0.08858163347070257,0.29057495116829996,0.15771484375,0.48876953125,0.008479687871122675,0.09162363773836667,0.0259851074214,-0.14770507812,0.181640625,0.012999961066854892,0.11344585252968194,1.0874391093644,0.91184454591,1.28121609759,0.010237789155360406,0.10067477968094493,974.292328149601,974.24210292685,974.35443505925,0.0008741790104053847,0.1123321324000699,0.029418314368796366,0.00036718728768657307,-0.3628201525079895,0.58,0.42,0.425311258650625,Stairs up
-1.1070678710908999,-1.36096191406,-0.83850097656,0.022117357512863495,0.1479735920282226,0.27844482421440003,0.13659667968,0.45971679687,0.00906811578698942,0.09474932521722529,0.0529956054674,-0.16674804687,0.20959472656,0.012792002377250623,0.11253480507593247,1.1513922953712,0.8825385673,1.428348211,0.024012937990256743,0.1541843332195401,974.2877541733121,974.2432904241,974.35443505925,0.0007578040005762622,0.11114463515002626,0.0273902530212939,-0.0003839369873235386,-0.4514630400899078,0.46,0.54,0.5149826339542777,Stairs up
-1.057316894528,-1.53930664062,-0.6572265625,0.05670306701253986,0.23693044621241582,0.1866455078081,0.05065917968,0.33239746093,0.005983509800599984,0.07696541237850925,0.0554980468728,-0.03186035156,0.25512695312,0.007029758414466494,0.0834233829949483,1.0812098619069,0.70195936434,1.56442653619,0.056404041047630776,0.2363048891520327,974.2733702561824,974.20635243289,974.31716394574,0.0010888204847614635,0.11081151285009128,0.03283187901893294,-0.000538935651537733,-0.5881198340426153,0.5,0.5,-0.5736771291428377,Stairs up
-1.0933532714810998,-1.45104980468,-0.79760742187,0.030295773098806777,0.17318433926836083,0.2756408691371,0.06970214843,0.56677246093,0.02148821810721374,0.14585381697487937,0.09461303710820003,-0.11071777343,0.314453125,0.011550778166705074,0.10693582367494077,1.1476680851329,0.84532901691,1.45908362014,0.02617199983115062,0.16096670411249375,974.1785900143024,974.10209011422,974.27405526824,0.0022858566198236518,0.17196515401997203,0.04757097911148577,-0.0006488124831134153,-0.8256722755566726,0.52,0.48,0.38317086363621333,Stairs up
-0.9623071289026999,-1.63793945312,-0.58264160156,0.0867022085009099,0.2929764263825689,0.2436926269485,0.06689453125,0.41931152343,0.01020954987443167,0.1005358362758641,0.070367431638,-0.16284179687,0.24060058593,0.009682330330674673,0.09790560263523189,1.0071419180162002,0.6725959126,1.69104830454,0.0823898858547212,0.28559759627170184,974.1025344900405,974.01824641939,974.21040844092,0.0030213668206458674,0.19216202152995265,0.05469143582353099,-0.0013814922835433119,-0.5537946042547217,0.58,0.42,0.6294322339226629,Stairs up
-1.0779760742143998,-1.58984375,-0.64379882812,0.08343724186361356,0.2874071492586387,0.24304077148100006,-0.00085449218,0.48168945312,0.013402763790175834,0.1151900002269037,0.09127319335630002,-0.00231933593,0.21520996093,0.002976805662420809,0.05428662455703615,1.1164777257444998,0.65476182957,1.6343265477,0.0849620342074974,0.2900214024264803,974.0127195208001,973.95155317745,974.08291489991,0.0014419751611129007,0.1313617224599284,0.03778300424134867,-0.0007309263075877839,-0.7064898412625729,0.58,0.42,0.5526648386599792,Stairs up
-0.9618737792939,-1.396484375,-0.67004394531,0.04344625185715942,0.20739283820466856,0.19866943359049993,0.06237792968,0.34155273437,0.006301387241398704,0.07898337400355038,0.0899670410134,-0.01452636718,0.2529296875,0.0066712424894085865,0.08126825988363785,0.9955301870769999,0.71703891669,1.4111637838,0.03791830201179545,0.19375014578491934,973.9133973750614,973.87411590329,973.95155317745,0.0005207139452207857,0.07743727416004731,0.022704774955250664,-0.0006252480349471,-0.9194761799263014,0.42,0.58,-0.023696959607868353,Stairs up
-1.0085546874963998,-1.38049316406,-0.79748535156,0.030646452903748764,0.1741837775876711,0.2148852539022,0.08386230468,0.40649414062,0.009689281751378497,0.0979407419507567,0.08656372070050003,-0.10571289062,0.28698730468,0.011876126025997445,0.10843138275304558,1.0448019915159,0.82237220309,1.44470689302,0.03124247308783481,0.17586940710924245,973.8459563143464,973.78503155507,973.89052989441,0.0007671584308674147,0.10549833933998798,0.02755878891676375,-0.000778452380925583,-0.26895678539836476,0.42,0.58,-0.5968239415296756,Stairs up
-0.9991418456995999,-1.35339355468,-0.73095703125,0.02772128746183815,0.16566253223713492,0.26536010741829996,0.12145996093,0.44018554687,0.005596691627357845,0.07443604443469755,0.089482421871,-0.04748535156,0.23120117187,0.004977234060008918,0.07019588107153317,1.0418207182664998,0.76403083072,1.35909576946,0.029524616432648202,0.1709659915548169,973.7792255724448,973.74175338975,973.83267769593,0.000622321451635886,0.0909243061799998,0.024821326256256476,-0.0007544747710597062,-0.5404132182656602,0.54,0.46,0.49846525168037553,Stairs up
-0.9756286621047999,-1.0322265625,-0.93237304687,0.0003017970934980785,0.017285228449838253,0.2736279296839,0.20446777343,0.37292480468,0.0025008526475493375,0.04975785486808936,0.036760253904600006,-0.04858398437,0.1279296875,0.0038641808667303707,0.06185094225687324,1.0169502290791002,0.95855579782,1.06202376435,0.0004921619896137046,0.022073521914673416,973.7767476658009,973.74004737555,973.83535884304,0.0007779250633408916,0.09531146748997799,0.02775150108926511,-0.0005299011924671761,-0.5240556131554657,0.65,0.35,0.8517916632819292,Lift up
-1.0072192382765999,-1.04028320312,-0.97973632812,0.0004346837359385946,0.02074456310890178,0.2532910156214,0.24035644531,0.27014160156,4.6628268065803524e-05,0.0067942612096640416,-0.0361853027298,-0.05017089843,-0.02404785156,4.245213034366222e-05,0.0064828704321639495,1.0392657797342002,1.01303251679,1.07069624683,0.00040552954684774917,0.020036822387276675,973.770537228233,973.76046115476,973.81016096178,0.00012097293113233301,0.04969980701991972,0.01094363750409386,-0.00020395119640765667,5.842792126394292,0.67,0.33,2.3450079842319957,Lift up
-1.0093029785105,-1.04028320312,-0.97839355468,0.0005237626592977992,0.02277114473856818,0.24083496093340007,0.22546386718,0.25476074218,6.999020625290305e-05,0.008324079780394589,-0.0385754394498,-0.04663085937,-0.03076171875,2.0636300544083442e-05,0.004519948842480698,1.0383731641529002,1.00480429117,1.07134901103,0.0005772349587982724,0.023905284127370034,973.6949029213497,973.59860475689,973.76351560955,0.002902840303511477,0.16491085266000027,0.05360794624378332,-0.0018257347523211766,-1.3281789588945723,0.47,0.53,-0.2998224697343258,Lift up
-0.9889123535122999,-0.99645996093,-0.982421875,1.4050456906562484e-05,0.0037296048500473694,0.2279724121047,0.21276855468,0.24060058593,7.088177582912081e-05,0.008376930110179362,-0.03451171874649999,-0.04797363281,-0.02624511718,3.0486294725075456e-05,0.005493762988865164,1.0154819960938999,1.00652221024,1.02548341603,2.0911402704886473e-05,0.004549976777725092,973.490692684113,973.38370973926,973.59860475689,0.003910606787810266,0.21489501763005592,0.062221384747787184,-0.0021474864566813127,-1.1098805849879716,0.55,0.45,-0.0018065288977073704,Lift up
-0.9858886718708,-1.00378417968,-0.97253417968,5.82235027938516e-05,0.007592184650409464,0.23115356444940002,0.20092773437,0.25500488281,0.00019004937826453474,0.01371673738473874,-0.0482336425748,-0.07434082031,-0.03283691406,0.00011128748757763897,0.010496409514775163,1.0139301734016999,1.00223604189,1.02688717577,3.686483476432308e-05,0.006041207364151627,973.2703365669789,973.16066633511,973.38370973926,0.004077329671516046,0.22304340414996204,0.06353389941441408,-0.0021778322068618282,-1.0933063902697044,0.47,0.53,-0.10294550871311776,Lift up
-0.9826562499954999,-1.0,-0.97253417968,6.532237986934528e-05,0.008041713503392908,0.2442932128858,0.18298339843,0.26867675781,0.000583140348855721,0.024027254220304987,-0.0661657714808,-0.08190917968,-0.04040527343,0.00011555397601866543,0.010695720464675523,1.0150886658555,1.00684794021,1.02410975064,2.1985680643604375e-05,0.004665385711510714,973.0549175362403,972.94766804609,973.17510184651,0.0044696024554944265,0.22743380041993078,0.06651997016640554,-0.002294887530618177,-1.1532673733007452,0.47,0.53,0.050867309464122185,Lift up
-0.9750854492154,-0.98303222656,-0.9677734375,1.6776449755823008e-05,0.004075375474513333,0.25933227538790005,0.24853515625,0.27404785156,4.601008212631025e-05,0.006749072625557318,-0.0678369140585,-0.07580566406,-0.05969238281,1.945762923274e-05,0.00438896946223286,1.0112922901947998,1.00388924699,1.01916316757,1.6196715728490156e-05,0.004004341215631512,972.838256478105,972.73455459992,972.94766804609,0.0037783809198026104,0.21311344617004124,0.06116042111206057,-0.002110497962131943,-1.1870447187932702,0.51,0.49,-0.08365951835374978,Lift up
-0.964107666011,-0.99609375,-0.91955566406,0.0005886420622773961,0.024140332260650894,0.2422863769492,0.19946289062,0.30541992187,0.0004176150352668596,0.02033319662311342,-0.1035217285107,-0.19604492187,-0.05737304687,0.002076267706899868,0.04533767781692033,1.0008201968474,0.9614744547,1.02567487137,0.0003370318505291934,0.018266404463492578,972.7354765951715,972.49653948323,973.2233814378,0.033929559144225206,0.7268419545699771,0.18327646753684163,0.0004458135121510596,2.032324816380278,0.76,0.24,1.6519005022208173,Lift up
-0.9502868652304,-0.98022460937,-0.92053222656,0.0003704682669939824,0.019151072667713487,0.24391479491919996,0.2236328125,0.27648925781,0.00019763617051605492,0.013987845038135587,-0.08039184569960002,-0.1591796875,-0.05297851562,0.0009099947247717671,0.030014909253969924,0.9850094587241999,0.96499089806,1.01133612537,0.000224329959881987,0.01490257227069096,972.3713190068364,972.17540261128,972.49653948323,0.005225184832589257,0.32113687194998874,0.07192310466229447,0.0013763178433568019,1.7641062916029089,0.36,0.64,-1.5203421568154019,Lift up
-0.9808410644500001,-0.9892578125,-0.96850585937,1.8841803384671453e-05,0.004318956511800592,0.24000366210569996,0.22424316406,0.25231933593,4.325698571773057e-05,0.006544036664059368,-0.047147216793200004,-0.06079101562,-0.0126953125,0.0001366451096460003,0.011630935411631358,1.0109632874675998,0.99988458384,1.02028988058,2.4039835372495365e-05,0.004878466666768403,972.4148093334493,972.3953942998,972.43022175501,0.00013933635734095852,0.03482745521000652,0.011744913527461534,-0.0003799348086840222,-1.335341373772711,0.43,0.57,-0.28618426709061356,Lift up
-0.9738000488252,-1.02648925781,-0.93872070312,0.000501470329496757,0.022281284213478122,0.2610449218717,0.16809082031,0.37414550781,0.0034645767163240648,0.058565612343429184,0.053363037106999994,-0.01989746093,0.13293457031,0.0031276800939420216,0.05564533487187045,1.0128416379718999,0.96760030173,1.04970115683,0.0004577841546833366,0.02128864282044544,972.4350530793998,972.33723960432,972.66925461822,0.009326417227618148,0.33201501389999066,0.09608929729861682,-0.0012474996920913257,0.3196056420030904,0.6,0.4,1.0177045571147825,Lift up
-0.9598034667927,-1.34997558593,-0.68823242187,0.02604781235566246,0.16058435238872384,0.21494873046510002,-0.04064941406,0.57299804687,0.02698824291862237,0.16345751891374147,0.2853625488238,0.0751953125,0.51745605468,0.010307751729896281,0.10101818753371751,1.0403205199338,0.7071677229,1.48009710755,0.02959699051444681,0.1711754088918801,972.7646606590395,972.41240751752,973.1798787335,0.06329095955649348,0.767471215979981,0.25031590033581275,-0.004276944136481236,-1.241830200760284,0.6,0.4,0.33960168717379263,Stairs down
-0.9665734863238999,-1.19567871093,-0.74365234375,0.017872036723957624,0.13301622591517942,0.19286621093349995,0.04516601562,0.34936523437,0.006866084180704922,0.08244648772930156,0.27659790038660004,0.14416503906,0.51745605468,0.006223712272884894,0.07849506449552128,1.0299905490915,0.79075339409,1.27906141371,0.01791895142955251,0.13319069755526092,972.4962131848597,972.34550735707,972.67226207401,0.008808476618897143,0.32675471693994496,0.093383038356589,-0.0012243124271636631,-0.6654943479103852,0.52,0.48,0.23238672143055475,Stairs down
-0.9674865722619999,-1.23645019531,-0.646484375,0.027804474148744516,0.1659109080418074,0.27380981444990005,0.05480957031,0.47399902343,0.01021362114861831,0.10055587967459749,0.1723498535127,-0.06689453125,0.36584472656,0.01509924816775175,0.12226305936820914,1.0312627611106,0.69115388434,1.32585418334,0.03009074907169951,0.17259733943772862,972.5178193792283,972.03755059185,973.1252633125,0.09992701183712133,1.0877127206499608,0.31452780754450016,0.007986300879234328,-0.5895961082190824,0.64,0.36,0.5197728262747069,Stairs down
-1.0177941894509999,-1.4482421875,-0.697265625,0.0462516554844438,0.2139839688612195,0.31947021484070004,0.15625,0.57775878906,0.010960414403659356,0.10416722257803922,0.08844604491959998,-0.11120605468,0.31213378906,0.013241246906558559,0.11449381833746734,1.0791231688579002,0.72321313587,1.48940627561,0.05154636683581749,0.22590020621384857,972.6278699641163,972.41127410012,972.84382390614,0.015502136486618573,0.43254980602000614,0.12388347396546638,0.003684457997355156,-0.8471140905433145,0.45,0.55,-0.15859121248544977,Stairs down
-1.0389221191356,-1.37805175781,-0.77307128906,0.028814299653088557,0.16889688172538198,0.27884643554309996,0.10998535156,0.43957519531,0.00862536487423037,0.09240731153695614,0.05677246093439999,-0.06945800781,0.14050292968,0.002367766120063883,0.04841578728951172,1.0826013948085005,0.79096284855,1.42436847454,0.028001204916451063,0.16649682539702237,972.7620770867593,972.70338526253,972.815577873,0.0009272653911090761,0.11219261047006057,0.030298394960756345,0.000564776655845123,-0.8485397581428966,0.41,0.59,-0.19148862857404236,Stairs down
-1.0833972167927999,-1.42431640625,-0.70275878906,0.04894536573906402,0.2201270362351553,0.27997070312079997,0.08642578125,0.55725097656,0.013300298584695808,0.11474883702612786,0.05449584960740001,-0.21032714843,0.21948242187,0.015676853106570632,0.12457963146319274,1.1320138408041998,0.7325139204,1.46150851692,0.05130391724251673,0.22536831647348207,972.8215706141098,972.76051977668,972.95396587547,0.002987477242399883,0.19344609878999108,0.05438384383229898,0.0009262275526224371,0.24180126620900166,0.56,0.44,1.1007918167944755,Stairs down
-1.0535632324183999,-1.25451660156,-0.82092285156,0.017036919429685913,0.12987128333619044,0.2971728515583,0.10131835937,0.49865722656,0.015133527288491431,0.12240176475691238,0.0434362792944,-0.03466796875,0.17419433593,0.0027418494989697264,0.052100201573314756,1.1024524554161999,0.83155462555,1.29493956747,0.01955116723847492,0.13912460445977978,972.8416925075767,972.77610634669,972.88871901972,0.0008424688845103386,0.11261267303007116,0.02887982333161398,0.0007047732083915451,-0.9655770884694399,0.49,0.51,-0.20711298512221696,Stairs down
-1.0765063476521,-1.30090332031,-0.80847167968,0.02119154298553963,0.1448434587949495,0.33379150390179985,0.08984375,0.70764160156,0.03126901604299868,0.17594409874323347,0.1000927734341,-0.03466796875,0.19055175781,0.004251796765583302,0.06487895496944653,1.1453657572618001,0.81456967075,1.39225389684,0.024832083067926773,0.15679209877174138,972.8494681875663,972.82505157048,972.88999859318,0.0003685039537629621,0.06494702270003927,0.01910023335525858,-0.0001557286162770377,-1.008745386877567,0.52,0.48,0.37224941630097896,Stairs down
-1.0766064453102002,-1.27587890625,-0.82666015625,0.015520136861994277,0.12395537702485655,0.30166137694840006,0.09826660156,0.51379394531,0.013040947581402625,0.1136245488685812,0.0157836914053,-0.09973144531,0.10791015625,0.003854786957909397,0.06177571600823663,1.1239756524847997,0.8328417381,1.33361606903,0.01929352994795042,0.13820490095677113,972.8575016515966,972.81850972753,972.89241279332,0.0005688611707576283,0.07390306578997752,0.02373125700526738,-0.00023218076412819552,-1.3409655507772098,0.47,0.53,-0.031982559649813835,Stairs down
-1.0881469726537,-1.302734375,-0.86950683593,0.016222267891641252,0.12672823368423014,0.34737060546499987,0.12915039062,0.57214355468,0.01724470932664873,0.1306608672609448,0.05502441405990001,-0.05151367187,0.16223144531,0.0029427000126274086,0.053974744209686946,1.1523685250317997,0.88435551315,1.3678289489,0.017172843950091478,0.13038832582171828,972.8524995771003,972.81850972753,972.88680690794,0.000486340195092704,0.06829718041001342,0.02194257945506355,9.161814193029764e-05,-1.3652108671908691,0.44,0.56,0.011664620034480946,Stairs down
-1.0123535156216001,-1.25354003906,-0.70178222656,0.02152202586908777,0.14596850896819114,0.31032836913690004,0.14660644531,0.44763183593,0.009243677449652734,0.09566211724165531,0.0321044921859,-0.10070800781,0.19299316406,0.0057635951520853684,0.07553779981283884,1.0655509049637002,0.74424445561,1.29504993432,0.023191222339938793,0.15152329892310093,972.851648404087,972.82146890979,972.89161683588,0.0005181159507593721,0.07014792608993048,0.02264806374178107,0.00016083372589757147,-1.0638644901389074,0.57,0.43,0.564881515503876,Stairs down
-1.022166748044,-1.40869140625,-0.6513671875,0.05152966370939317,0.22586360280554113,0.23642456054299996,0.0458984375,0.49182128906,0.011742385437783219,0.10781911511140028,0.06503540039030002,-0.14245605468,0.212890625,0.010195739899434647,0.10046781823270724,1.0609716816434,0.67409644934,1.44794101889,0.05254872610501795,0.2280860338643464,972.8867861927627,972.85492046195,973.0852396644,0.0019226816881157576,0.23031920245000492,0.043628601527376513,0.00021893089675949383,14.185536695399012,0.72,0.28,3.69297974946842,Stairs down
-1.0110681152303997,-1.24377441406,-0.85437011718,0.015394689475554772,0.1234534024674866,0.3024523925742001,0.103515625,0.49401855468,0.01017079922119337,0.10034486149764439,0.019377441406,-0.11975097656,0.13098144531,0.00617935098134823,0.07821481618935601,1.0632038880644998,0.86302838138,1.29391566404,0.015289446798631303,0.12303069670064049,972.9369651135593,972.90565095506,972.96527923701,0.0003045730532264714,0.05962828195004022,0.017364542110122186,4.326253504762454e-05,-1.0287986302147025,0.49,0.51,0.0018516923181058755,Stairs down
-0.9854064941373,-1.29699707031,-0.70556640625,0.02904863230369821,0.16958226906331106,0.2903088378865,0.18310546875,0.40637207031,0.003423205317492365,0.058214888682513524,0.04058105468659999,-0.17980957031,0.19384765625,0.012208553371203515,0.10993847296325103,1.0357060502265,0.73175043482,1.32372762073,0.028786430958002405,0.16881518488697153,972.9876119493555,972.93131384329,973.09185645673,0.0016910353139381184,0.16054261344004317,0.040916072157512105,0.0008281273835410734,0.9643732584763454,0.6,0.4,1.0636085929594747,Stairs down
-1.0263476562467,-1.32885742187,-0.71130371093,0.036336789444172936,0.1896666063115255,0.3156652832008,0.09704589843,0.60498046875,0.01832699121103464,0.13469863139217225,0.0648840332014,-0.23156738281,0.21850585937,0.01579850835402471,0.1250620776673907,1.0902558349537999,0.73027602116,1.3591360178,0.03873121286070579,0.19581598691654042,973.0648857442652,972.97989236811,973.18479181463,0.002020874519168692,0.20489944652001668,0.04472880250998237,0.0007301378014968584,1.6110677363501686,0.57,0.43,1.2429567300314694,Stairs down
-1.0209887695264,-1.50268554687,-0.66381835937,0.06075226352081386,0.24524424740573575,0.2990747070268,0.0927734375,0.52575683593,0.01467613799985077,0.1205378638430774,0.045637207029799995,-0.14990234375,0.17602539062,0.011629888210060455,0.10730139480901378,1.075576881082,0.68237780738,1.53020440136,0.06390765885405077,0.2515324676170261,973.1419278712134,973.08319410286,973.2781815865,0.002619782778505281,0.19498748363992036,0.05092725155278093,0.0008037290836175476,1.4866877841576036,0.69,0.31,1.4266978363261438,Stairs down
-1.1282507324175,-1.72192382812,-0.69616699218,0.05395896105298306,0.23112631058028255,0.2737963867143,0.03332519531,0.54968261718,0.01657043918808042,0.1280809696879268,0.0138928222637,-0.18920898437,0.13745117187,0.011301637205397232,0.10577627727115026,1.1701837673926996,0.70590564004,1.75096900968,0.05544313349417885,0.23428338003203952,973.2041019296694,973.11822444122,973.38841228675,0.0026972513736599458,0.2701878455300175,0.05167474102425039,0.0004362223696012473,4.231459819466095,0.53,0.47,1.3973817593960962,Stairs down
-0.9894140624952001,-1.38928222656,-0.63391113281,0.043602071049361216,0.2077644106647421,0.27422851561960004,0.09533691406,0.53356933593,0.010765533398997074,0.10323699949633902,0.029677734374,-0.23669433593,0.26123046875,0.01649195295325381,0.1277772805459612,1.0375305288796002,0.65561761359,1.50091899098,0.04919555276116005,0.2206889150672241,973.2643627442244,973.19248081797,973.39978031195,0.0037376821135557785,0.207299493980031,0.060830134739454755,0.0006208118422485865,-0.10917067196682195,0.73,0.27,1.131974456750769,Stairs down
-1.1193896484332,-1.55627441406,-0.80200195312,0.03764214115939907,0.19304331054922644,0.34552246093399985,0.00805664062,0.74365234375,0.04410058334617878,0.20894874374524722,0.0846826171852,-0.03393554687,0.3681640625,0.00978039312819922,0.09840014835820741,1.1950575550291997,0.80276002866,1.60160497748,0.042460028593060854,0.20502543331774778,973.2962945727617,973.24964498338,973.36883877373,0.0013165256664603685,0.11919379034998201,0.0361020831780628,0.0008680699737811934,-0.7763339193982954,0.52,0.48,0.5310968489592154,Stairs down
-1.1070996093712,-1.41613769531,-0.71984863281,0.04465397425365409,0.21025564085445494,0.34402343749639996,0.02197265625,0.7490234375,0.04131896240535236,0.20225175594120026,0.05487792968679999,-0.22045898437,0.25793457031,0.014315533011137251,0.11904779578398703,1.180496145046,0.72042082346,1.55044082056,0.053280499281041414,0.22966866196377556,973.3058076060983,973.24906632269,973.40817378361,0.002118578674339408,0.15910746091992678,0.04579730218687575,-0.00031490665676634275,-0.03575037484825083,0.63,0.37,0.9699164828842027,Stairs down
-1.0811962890588,-1.37377929687,-0.669921875,0.03379367298545257,0.18290909287292978,0.3425781249967999,0.05102539062,0.62048339843,0.030028657479956,0.17241917209277058,0.12480957030800001,-0.04357910156,0.31298828125,0.009582897725672666,0.09740158493790509,1.1583703086240003,0.80140142848,1.43951623434,0.03310305055296154,0.1810304395604008,973.3733463708069,973.28612621838,973.85509605627,0.01912767743419912,0.5689698378899948,0.13760959508645149,0.0025144776003420623,7.56196451673377,0.89,0.11,2.969326331086834,Stairs down
-0.6016638183557999,-0.83898925781,-0.45471191406,0.009805347899847855,0.09852560286975857,0.7553430175745001,0.54296875,0.95166015625,0.013196059506114471,0.11429828918690484,0.017845458984399997,-0.41845703125,0.66345214843,0.11631022278867749,0.3393333472572224,1.0318072790518,0.93770453288,1.21610617589,0.006215290622673122,0.07844193850515419,973.667904962638,972.4844508705,976.9989847842,1.6078183078602497,4.5145339137000065,1.2616418369654865,-0.028701926837607115,0.3615439065977215,0.75,0.25,1.2908172027112648,Stairs down
-0.5936877441367,-1.13586425781,-0.41625976562,0.04279441740016785,0.20583117651649901,0.7221874999957001,0.31457519531,0.95166015625,0.023333575002907822,0.15198762861785411,0.06857055664030001,-0.45593261718,0.60217285156,0.1114050700348436,0.3321009173948412,1.0237879280909,0.84962930765,1.2518218473,0.009809322650216072,0.09854557028965792,973.0592780953408,972.73065585803,973.86639547021,0.09207012031961832,1.135739612180032,0.30190962077486394,-0.005233948514033104,-0.17027943401623302,0.55,0.45,0.7759642137989617,Stairs down
-0.9720263671835998,-1.25134277343,-0.75732421875,0.018153635756879234,0.13406005892625306,0.26594726562160004,0.13684082031,0.4375,0.006668094288294317,0.08124908212042382,0.026909179687599993,-0.14440917968,0.19897460937,0.007632268895407532,0.0869249458237016,1.0159083590443998,0.7735713785,1.27739266351,0.01651209648540232,0.12785529132792392,973.2387151184572,972.92907057793,973.35240254584,0.01328346531179121,0.42333196791003047,0.11467619918131791,0.0035945479537042462,0.5311376038053259,0.41,0.59,-1.1311096147141475,Stairs down
-1.0434082031212,-1.35803222656,-0.70056152343,0.030892942890975356,0.1748828563984063,0.29119628905920003,0.15307617187,0.49645996093,0.00921609560652289,0.09551928941558172,0.04245605468679999,-0.09790039062,0.20642089843,0.007208243764429047,0.08447580320295721,1.090449198394,0.73192883999,1.44848516564,0.0333970998407675,0.18183269464636942,973.3878099128377,973.34345406136,973.48882247953,0.00180449680972129,0.14536841816993729,0.042266438714706936,0.0004082749000415135,0.22280361310186025,0.65,0.35,1.1524144727519516,Stairs down
-0.991577148434,-1.29113769531,-0.72644042968,0.028605064960687772,0.16828254309666493,0.27367187499599993,0.14892578125,0.44555664062,0.005838848027258072,0.07602933346403538,0.0242333984368,-0.19396972656,0.14916992187,0.009838244071648164,0.09869073731071058,1.0369636471527999,0.76095669113,1.32597614242,0.027529822253809663,0.16508944251911314,973.4050930878682,973.3677795835,973.46803083691,0.0006130201098281345,0.1002512534099651,0.024635135654788937,0.0005752883742409406,0.04161802997365305,0.6,0.4,0.9074236647885506,Stairs down
-0.9999511718715999,-1.33850097656,-0.71008300781,0.036694045018926036,0.19059670660516875,0.2844140624956,0.18981933593,0.45617675781,0.005234499073998691,0.07198717999240353,0.0239013671856,-0.1494140625,0.16394042968,0.00940107215486955,0.09647311248902907,1.0460629947788,0.7439119984,1.41633916907,0.038316678245411157,0.1947652727335062,973.4847115877259,973.42673938961,973.5835155959,0.0016403484423814002,0.15677620629003286,0.04029820043075852,0.0009311479354461374,0.5510013751846108,0.61,0.39,0.9266731183657235,Stairs down
-0.9813232421843999,-1.33020019531,-0.65222167968,0.04324784302962882,0.20691873912077788,0.26015136718320003,0.13977050781,0.46520996093,0.00744125298782268,0.08583030034867904,0.0217626953124,-0.19665527343,0.15698242187,0.01503402117433397,0.12199869246262696,1.026212872604,0.6778158639,1.34867689211,0.043536040936601905,0.20760703390597315,973.5514739477344,973.48387799736,973.64497224495,0.0016515853769120978,0.16109424759008562,0.04043599291649677,0.0011031245958260058,-0.00863345895107459,0.53,0.47,0.6595233331637343,Stairs down
-1.0303124999948,-1.40026855468,-0.66638183593,0.0465985677700364,0.21478496710043754,0.2289404296836,0.10510253906,0.43078613281,0.008106123461722932,0.08958271165300648,0.0560009765608,-0.16149902343,0.22888183593,0.016075936566842967,0.12615536929189552,1.0660826388812,0.68719288078,1.46584758695,0.051145763602203895,0.22502067897458192,973.6572380838828,973.57326118674,973.99096550566,0.012007924523656734,0.4177043189200731,0.10903139583817208,0.00015033962222907953,4.141373997876772,0.76,0.24,2.253009362949522,Stairs down
-1.0405419921832,-1.51623535156,-0.62292480468,0.05067462429850335,0.22398186992593466,0.27816894530999997,0.11474609375,0.48791503906,0.00873644698738856,0.09300044364149385,0.07114746093520001,-0.07678222656,0.17321777343,0.00646453515396542,0.07999931126219628,1.085785924838,0.66574301412,1.59388778595,0.051973067300042065,0.22683327936403344,973.6942389139158,973.60289613628,973.82140789636,0.0016130106181391688,0.2185117600799913,0.039960987374660514,0.000871762412309468,1.8429971984383187,0.53,0.47,0.3352023789996226,Stairs down
-1.0997363281199999,-1.50048828125,-0.61633300781,0.04694393244656798,0.21557943575884575,0.27979003905919997,0.10034179687,0.46154785156,0.01177837689718904,0.10798422629355248,0.0210693359372,-0.25024414062,0.25573730468,0.019261121749103896,0.13808877771786113,1.1473231210035997,0.64603580228,1.55064346316,0.04949457278254786,0.22135859381266945,973.752376196813,973.6890564085,973.96615305847,0.0035025330239261076,0.2770966499699625,0.05888554740924845,0.00019057690761784183,4.364640443798278,0.6,0.4,1.8843592663399042,Stairs down
-1.1160839843728,-1.365234375,-0.77734375,0.02987082857059692,0.17196546247689082,0.3055371093708,0.0546875,0.59387207031,0.029963170013050357,0.17223106082504355,0.05554687499639999,-0.06018066406,0.11022949218,0.002662863971805738,0.05134428236997456,1.1719833769756003,0.78629074879,1.40298188123,0.030715857291840135,0.1743809012447227,973.7936155270545,973.73664501733,973.8523596011,0.000862574761875045,0.11571458376999999,0.029222406031268106,-0.0002537195430625763,-0.5929342871713872,0.47,0.53,-0.23567148826538187,Stairs down
-1.1049707031208,-1.27075195312,-0.90588378906,0.01180377863875041,0.10810060523587693,0.3358056640604001,0.10327148437,0.57043457031,0.019679968910906807,0.1395821235753266,0.04894042968319999,0.00610351562,0.10485839843,0.0008891663406319188,0.029669423270862538,1.16364461905,0.91305327331,1.33174063009,0.0142436866024041,0.11874868309324554,973.8037015564552,973.76866717754,973.83731048475,0.000566763043659221,0.06864330720998169,0.023687452653728486,5.223050544473642e-05,-1.614418129065703,0.49,0.51,-0.12044652897159216,Stairs down
-1.0745361328084,-1.28698730468,-0.84704589843,0.014317136822211316,0.11905446423376657,0.3210791015596,0.09228515625,0.63122558593,0.02659592907818411,0.16226512190671866,0.05784667968279999,0.00134277343,0.12487792968,0.0010476320921837111,0.032204902907195264,1.1328026699335998,0.85685722684,1.35862382325,0.019560737902388083,0.13915865234818928,973.7974708113293,973.76258588371,973.82406462961,0.0004202165501464531,0.06147874589998992,0.02039643068394538,1.5316833226014332e-05,-1.4168019729594759,0.44,0.56,-0.18724548817101042,Stairs down
-1.0662792968712,-1.265625,-0.88537597656,0.015592207186166409,0.12424284733659617,0.28803710937160004,0.08435058593,0.5458984375,0.015753370343089153,0.12488329207567465,0.0539453124968,0.00512695312,0.11767578125,0.0006536713995518523,0.025438842063984238,1.1123102653692,0.89182443329,1.3283990465,0.017446608127138455,0.13142352166133378,973.7942668054684,973.76483127652,973.83839059085,0.0003971637144081384,0.0735593143300548,0.019829071517952046,0.00020536461188346743,-0.7306448077614034,0.64,0.36,0.36688354846916554,Stairs down
-1.0269091796836,-1.37707519531,-0.56896972656,0.045416220366222046,0.2120425857288102,0.33886230468399986,0.05969238281,0.52856445312,0.014534874973882393,0.1199563513289045,0.0210107421856,-0.17944335937,0.12817382812,0.008181510934238091,0.08999831012244458,1.0896338378012,0.58627490183,1.41140110408,0.050465611990891966,0.22351947537291475,973.8159182483874,973.73689060816,973.90094637132,0.0017165626446853865,0.1640557631599222,0.041223743379738484,0.0007494851635062208,-0.3574039287178108,0.6,0.4,0.5111052532267306,Stairs down
-1.0006298828088,-1.40905761718,-0.6923828125,0.03262305221122858,0.17971316504117416,0.31121582030920003,0.15222167968,0.46923828125,0.006112762316361808,0.07779225342666318,0.030302734374,-0.14367675781,0.19641113281,0.0060368538862498105,0.07730773148519696,1.0538923803604003,0.7728537659,1.48412985032,0.03299949216173068,0.18074705319897574,973.9064437166805,973.85015588724,973.94010338482,0.0007479748089319361,0.08994749757994214,0.027212038895360575,0.0006987946949363072,-0.5464515512691626,0.52,0.48,-0.5477660352640524,Stairs down
-0.9920800781216,-1.32641601562,-0.71008300781,0.02958115702915508,0.17112961596072004,0.26561035155960006,0.12268066406,0.38562011718,0.003959009526881623,0.06260526680410208,0.0162158203112,-0.23193359375,0.18347167968,0.015365865109404341,0.12333777385014819,1.0362604691552002,0.7384835627,1.38504089073,0.02991505505505334,0.1720927206609937,973.9849227274872,973.92455359848,974.04772489951,0.0015080065913376974,0.12317130102996998,0.03863840738726585,0.0007670191751436734,-1.08881439157015,0.56,0.44,0.11651184091913025,Stairs down
-1.0166894531212,-1.3017578125,-0.80346679687,0.014609148430309922,0.12026245027441784,0.2999658203076001,0.18786621093,0.46362304687,0.004477826898684099,0.06658114319908646,-0.0288574218744,-0.30102539062,0.15673828125,0.014804913539311902,0.12106553763940746,1.0689263324044003,0.85593336369,1.34334328506,0.015574903141270958,0.12417388658594145,974.0845207316507,973.99118413823,974.17657939927,0.0021731515552334876,0.1853952610400711,0.046383402631557255,0.0011229504531095951,-0.188322069601774,0.56,0.44,0.38614059232712455,Stairs down
-1.0249121093719997,-1.44396972656,-0.71618652343,0.03530277738710823,0.18694852129192452,0.2974853515584,0.0966796875,0.48291015625,0.008030459134387012,0.08916363913077541,-0.0007177734367999999,-0.18090820312,0.23706054687,0.010040898900251663,0.09970200555279289,1.0742031106444,0.74843499694,1.50035466034,0.03825348755049332,0.19460460599633397,974.1809589631282,974.12084415573,974.23861422292,0.0014967825488131341,0.11777006719000838,0.03849434664109787,0.001158113910156123,-1.1318124924039215,0.52,0.48,0.008563382057709314,Stairs down
-1.0315832519492998,-1.34033203125,-0.61193847656,0.028706228147539745,0.16857985011876225,0.2707080078091,0.03576660156,0.49475097656,0.0127237642412687,0.11223424877841884,0.0261474609359,-0.10485839843,0.11206054687,0.003945789553462376,0.06250065326000803,1.0727141277432,0.62265827652,1.38348605567,0.03266358098020358,0.17982476239495368,974.259938143534,974.21708086505,974.32872138159,0.0010087061543904451,0.11164051653997831,0.03160093499956197,0.0004899644362930874,-0.22815052124470103,0.68,0.32,0.7461098137146809,Stairs down
-1.0520117187459999,-1.38073730468,-0.7158203125,0.019673335335121212,0.13955859694683806,0.32164550780920004,0.10791015625,0.63171386718,0.015646475637660154,0.12445887224815896,0.0240722656252,-0.21350097656,0.16333007812,0.00968378842442325,0.09791297431994914,1.1103124453923998,0.76995919038,1.46591862216,0.02275131318694731,0.1500793125486582,974.3097926125646,974.23791454083,974.3890274956,0.0013691896331650287,0.15111295476992836,0.03681708484974575,0.0005460720983665874,-0.3744934673125222,0.44,0.56,-0.01308557243624123,Stairs down
-0.9649511718707998,-0.97973632812,-0.94616699218,5.759894246031998e-05,0.007551354384196041,0.29562011718360004,0.27648925781,0.30822753906,6.565604547417733e-05,0.008062225810496476,0.1030322265584,0.08459472656,0.11950683593,7.635352587455711e-05,0.008694250434385447,1.0145361824724,0.99314259943,1.02291115482,5.2125628686445344e-05,0.007183618336157684,974.3914717346144,974.38001083016,974.39898619902,2.4603927740953472e-05,0.01897536885996942,0.004935371157627756,8.480110779479957e-05,-0.5744888036726996,0.56,0.44,-0.15745501581541396,Lift up
-0.9658398437456001,-0.97216796875,-0.95483398437,3.4074205346754655e-05,0.005808051591823812,0.29639648437120003,0.28381347656,0.31433105468,9.291210557410138e-05,0.0095907760123131,0.10501953124640004,0.09375,0.12145996093,6.632819320407494e-05,0.008103388875775011,1.0158239722664,1.00862089899,1.02514165126,1.9818571673659642e-05,0.004429490485024553,974.4026752462576,974.39792277063,974.40803631855,7.187444594642106e-06,0.010113547920013843,0.0026675026051900465,5.860340193323817e-05,-0.12661440494969467,0.48,0.52,0.39994226640670394,Lift up
-0.9999658203092,-1.03051757812,-0.96142578125,0.0005545863238158135,0.023431612419499762,0.2964892578088001,0.28601074218,0.31286621093,4.9925428440559906e-05,0.007030375107784385,0.10128417968439997,0.091796875,0.11181640625,2.6320592314978883e-05,0.00510464361065776,1.047923567476,1.00964995262,1.07825265349,0.0005825531166950492,0.02401515324806608,974.4047146492107,974.38516524895,974.41541049473,7.027235590826951e-05,0.03024524578006549,0.008340841225511179,-0.0001301902527175252,0.18804456964818783,0.4,0.6,-0.8844846322036026,Lift up
-0.9814355468712,-1.01928710937,-0.95764160156,0.0005027668885598408,0.022310069916390726,0.2996826171844,0.29174804687,0.30993652343,2.062320708937519e-05,0.004518514691630585,0.09937011718359998,0.08959960937,0.11267089843,4.4840128728213796e-05,0.006662711718281953,1.0310051912243998,1.00657443212,1.06716590764,0.000495623719173666,0.02215101537135328,974.2903927668082,974.19089494626,974.38312196751,0.0034573766886485282,0.19222702125000524,0.058504725636157315,-0.0020186619590947517,-1.1425452141989958,0.52,0.48,-0.08061401712020039,Lift up
-0.9653662109331997,-0.9765625,-0.95788574218,2.3511347154184416e-05,0.004824544919745547,0.30074707030840003,0.29138183593,0.30908203125,1.764480514464765e-05,0.004179516370730132,0.0977343749956,0.08813476562,0.10546875,1.851582767889244e-05,0.004281433101439694,1.0158588036739995,1.00850224364,1.02703484362,2.2925078852764204e-05,0.004764013860625992,974.0770443543145,973.97621948057,974.18401020243,0.004104416581496715,0.20779072186007852,0.06374458734419533,-0.002199315307825041,-1.215802035404201,0.44,0.56,-0.05646509454860352,Lift up
-0.9641259765595999,-0.97045898437,-0.95532226562,1.6923287903805634e-05,0.004093171756079578,0.29867675780840003,0.29370117187,0.30346679687,8.98558683769235e-06,0.0029825712010470807,0.09672851562160002,0.08813476562,0.10656738281,3.2173262715302446e-05,0.005643715982236298,1.0139745241284002,1.0043886636,1.01983046251,1.6440201452090424e-05,0.0040343276314114005,973.8649146015108,973.75595474556,973.96754744251,0.0039133407483335925,0.2115926969499924,0.062243130872814044,-0.0021491151450102417,-1.145110831885499,0.52,0.48,-0.08070744403507772,Lift up
-0.9659716796839999,-0.97338867187,-0.9599609375,1.8180355875586922e-05,0.004242470072591091,0.2982568359344,0.29309082031,0.306640625,9.135429307970327e-06,0.0030073368642190095,0.09806152343360001,0.08642578125,0.107421875,3.387436722526733e-05,0.005790995039974966,1.0157362865847999,1.00956628185,1.0219532053,1.5013006917813585e-05,0.003855240180408407,973.6484462506103,973.53936997873,973.75595474556,0.004092598818338043,0.21658476683001027,0.06365275194486616,-0.002198317418458351,-1.2263343216141576,0.52,0.48,0.0036414622956526823,Lift up
-0.965551757808,-0.97106933593,-0.96044921875,6.937017340864703e-06,0.00262061961517807,0.30410644530840003,0.294921875,0.31176757812,1.9359203300974588e-05,0.004377854642169477,0.09439941405959999,0.08410644531,0.103515625,3.610683209789003e-05,0.0059787761102847075,1.0167281779616,1.0120090451,1.02313109899,7.846083082123339e-06,0.0027870454340218616,973.4323212119291,973.32317350794,973.53936997873,0.004029513786832293,0.216196470789896,0.06316026162836859,-0.0021793995277164797,-1.1571824644005395,0.48,0.52,-0.05355389130629357,Lift up
-0.9639697265583999,-0.97204589843,-0.95654296875,1.0764574754711176e-05,0.0032644952147558837,0.29893066405799995,0.29370117187,0.30407714843,8.546559501430316e-06,0.0029087959547579156,0.100605468746,0.08666992187,0.10949707031,2.8743503066884664e-05,0.0053344229337591725,1.0142757045004,1.00683121629,1.02279069714,1.1116496007499698e-05,0.0033174283786428153,973.2097000029056,973.1041746079,973.3119189275,0.004263296399632236,0.20774431960001039,0.06496663324842925,-0.0022430308653175112,-1.284096875623612,0.48,0.52,0.03812227087544739,Lift up
-0.9300927734343998,-0.953125,-0.90783691406,0.00012325725169534506,0.011046478134608859,0.2829296874963999,0.265625,0.32189941406,0.00012605151745093417,0.01117098931502599,0.08300292968400003,0.02941894531,0.09716796875,0.0002244271172454427,0.014905799075292417,0.9758812559180001,0.95536154849,1.0023420817,0.00013740855870389434,0.011663381718732152,973.0052121459366,972.94531115251,973.08974012975,0.0021057712659013016,0.1444289772399543,0.04565866350696534,-0.001559792053935566,-1.0833402498883244,0.56,0.44,0.382558216861428,Lift up
-0.7363427734336,-0.93188476562,-0.54565429687,0.01888768639253979,0.13674359044801476,0.6176464843707999,0.34924316406,0.76184082031,0.014597118840098592,0.12021292630868614,0.25081542968320003,0.04711914062,0.4580078125,0.014767073284513528,0.12091072140909752,1.0166861606632003,0.97090486084,1.07348787586,0.0007220705679351394,0.026736676350208304,973.0262142953716,972.84379985668,973.29128179943,0.01767680801279883,0.44748194274995967,0.13228771648445234,-0.00027594683605412936,-0.6155975705339967,0.6,0.4,0.5674642379237149,Lift up
-0.8182128906207999,-1.03771972656,-0.56884765625,0.03468553225188169,0.18530698024997028,0.5381640624968,0.3291015625,0.77526855468,0.0247932430226392,0.15666943094430644,0.18288085937120008,0.09509277343,0.35119628906,0.008728470079830485,0.09295797641424958,1.0273959768004002,0.89672770968,1.14698779151,0.004566647499076294,0.06723824078666493,972.8117849546143,972.51485756176,973.12235397757,0.025593465955470525,0.6074964158100329,0.15917767210232664,-0.00133574692595058,-0.464550973513183,0.44,0.56,0.06638737384072858,Lift up
-1.0348046874963999,-1.32897949218,-0.65454101562,0.038554314796218396,0.19536829744934622,0.3781591796835999,0.16040039062,0.82189941406,0.035404701811083995,0.1872182010194873,0.04446777343479999,-0.25183105468,0.27221679687,0.01739026021394469,0.13121111847631375,1.1192270859976,0.67506062668,1.43788302543,0.05411010438526695,0.23144978578822292,972.9427863554785,972.80270911168,973.0840300437,0.005748686716609827,0.2813209320199803,0.07544004141994971,0.0021207751910703376,-0.7959066666372867,0.52,0.48,-0.16842224415430487,Stairs down
-1.0986474609332,-1.37219238281,-0.87280273437,0.019045497817331423,0.13731366588638624,0.23505371093360006,0.0830078125,0.50354003906,0.011742330657017012,0.10781886361136832,0.05311523437399999,-0.2216796875,0.20678710937,0.01869334875870328,0.1360382860488776,1.1376686689840003,0.89884876292,1.38750625063,0.019994023875268538,0.1406914483418088,973.0505261544548,972.97613863452,973.26448606833,0.005115377386251062,0.28834743381003136,0.07116335863622902,0.00036101751590183274,3.7867581193224256,0.72,0.28,2.1009187591574623,Stairs down
-1.1005163574185,-1.48168945312,-0.71166992187,0.04449667179640127,0.2098849805927934,0.3398803710901999,0.11022949218,0.61779785156,0.019695708697367295,0.13963793041431694,-0.0151428222656,-0.28881835937,0.20715332031,0.0221298741488014,0.1480154566500181,1.168483378494,0.74641870741,1.51709171978,0.048908997007037436,0.22004523861462455,973.1400916249711,973.02333588003,973.27681468613,0.004589890081942587,0.25347880610001994,0.06740913277237115,0.001139262554776656,-0.4612574967368821,0.44,0.56,0.11068805171995581,Stairs down
-1.0563208007776002,-1.56262207031,-0.66235351562,0.06700014308870704,0.25754638739034946,0.3011328124952,0.11315917968,0.51599121093,0.011262137865723105,0.10559127088479366,0.045352783201599994,-0.18493652343,0.21557617187,0.009493911041207689,0.09694829514125357,1.1073975409736,0.69423740294,1.65967097651,0.06979878402385133,0.26287030297013925,973.2191880424335,973.12300804903,973.3459056546,0.0036282986440202905,0.22289760556998317,0.059933426879998176,0.0011835181886483434,-0.14800237197210953,0.52,0.48,0.8043954606501016,Stairs down
-0.18441040039120002,-1.39343261718,0.62634277343,0.5465630972240934,0.7355932750180988,-0.1411450195315,-1.14587402343,0.72827148437,0.45517493396252956,0.6712847269399955,-0.0653466796864,-0.35864257812,0.19360351562,0.022558519598492664,0.14944207708175009,0.9987228846966001,0.47052066479,1.53227196863,0.07556109668512051,0.27350591532592,973.3979797371559,973.21691233061,973.72412185874,0.022929428004258522,0.5072095281300335,0.15066563551193726,0.004408577598170728,-1.1828145286132583,0.52,0.48,0.2818013575489044,Stairs down
0.41006469726209993,0.162109375,0.57360839843,0.013571398539535104,0.11591240034672629,-0.8603784179633999,-1.26245117187,-0.60070800781,0.02539998039445811,0.15857484223707596,-0.16785034179640002,-0.67370605468,0.41918945312,0.09455700096716617,0.3059598518719319,1.0223145915975997,0.76010525327,1.42990940748,0.023882613324641918,0.15376536408240804,973.1161081123034,972.59560903119,973.76178074992,0.06918370565558185,1.1661717187300837,0.26170951186196123,-0.004848448411676613,-0.0343929047422038,0.48,0.52,0.3101236254418332,Stairs down
-0.5282345006948514,-1.81958007812,0.6220703125,0.7672282524471075,0.871568662307192,-0.013025264929306911,-0.76867675781,0.82495117187,0.33137046293341593,0.5727910328041177,-0.152589099240198,-0.58410644531,0.10339355468,0.04441980257361143,0.20971409716118306,1.1360395705599011,0.23899094626,1.94107468842,0.14503637926211918,0.3789464018922052,973.2390448035898,973.11907422798,973.34073269535,0.004271757386786421,0.22165846736993444,0.06503431985647637,0.001485488616088534,-0.9351458254569112,0.55,0.45,-0.19625989867011928,Stairs down
-1.1492956912845453,-1.35510253906,-0.90612792968,0.010798049050628325,0.1033875130182399,0.3681689946303031,0.08825683593,0.67932128906,0.03340097286276897,0.18183396079527767,0.056212762386262626,0.01330566406,0.115234375,0.0008623008136760918,0.029216274650390325,1.2195368110663636,0.91333772992,1.42691004761,0.017097697584320178,0.1300960935936085,973.339129053666,973.30152992919,973.39403393175,0.0008355208242623391,0.09250400255996283,0.0287590198020875,2.0963651777938047e-05,-1.3957164144495946,0.56,0.44,0.26082227236109523,Stairs down
-1.0621618652304998,-1.20031738281,-0.91455078125,0.007851537386289551,0.08816474359077248,0.3243029785123999,0.11437988281,0.59216308593,0.021036497479412625,0.14431262073920803,0.04986328124610001,-0.00073242187,0.1181640625,0.0008944117902232956,0.029756808839676723,1.1193773844834,0.92223881961,1.30360442451,0.01347411367781992,0.11549620141390678,973.3498783144969,973.31990119215,973.40292677138,0.0006480093926268584,0.08302557922991127,0.025328428666235688,0.0002824946059791662,-0.7596725932518273,0.6,0.4,0.5364655465264708,Stairs down
-1.0223254394492,-1.33361816406,-0.66809082031,0.024415616102542344,0.15547173357725488,0.27134277343400004,0.06665039062,0.44201660156,0.014554596525322223,0.12003770474342218,0.033033447265199994,-0.20263671875,0.15234375,0.008696519935182527,0.09278768633730824,1.0676820118358998,0.68590688354,1.35960387901,0.02738646496748959,0.16465904262388598,973.3595409914286,973.30603061911,973.48687263296,0.0021926507043788794,0.18084201384999687,0.04659103129718305,0.0009175231695384762,1.9588754588074888,0.68,0.32,1.6795391516746716,Stairs down
-1.0857531738241,-1.45520019531,-0.7783203125,0.03528911281573458,0.1869123369057731,0.3244934081993999,0.0830078125,0.61987304687,0.02049197884944554,0.14243264745468676,0.0573876953107,-0.07531738281,0.15771484375,0.003788711229681906,0.061243972090199106,1.1437771995006,0.79276615053,1.5186203234,0.03858292603639673,0.19544077562277723,973.3982768800261,973.3313645253,973.49638109823,0.0022742460927850216,0.16501657292997152,0.047450011926839085,0.0006768729218190401,-0.6805834884814805,0.56,0.44,0.6217742542442507,Stairs down
-0.33740600585839997,-1.23083496093,0.31909179687,0.21441434442609958,0.46072790341137204,0.7569677734335998,0.15454101562,1.38525390625,0.1263287704646092,0.35364598507541845,-0.0564501953127,-0.32653808593,0.15380859375,0.023172910260852907,0.15146346476376532,0.9997129722265999,0.50512016811,1.50804214013,0.05139442971529506,0.2255670308758399,973.5268451554136,973.10994929326,974.16887293339,0.07118648389052859,1.0589236401300468,0.26547056155367454,-0.0006269135300151041,-0.2790400241535256,0.64,0.36,0.8159628591546205,Stairs down
-0.7578332519484999,-1.11010742187,-0.37634277343,0.0417175774786514,0.20322500265436064,0.6088342285121999,0.2529296875,0.88305664062,0.01728932341375622,0.13082977558498926,0.1623242187478,-0.32653808593,0.50854492187,0.04332488507803991,0.2071029604502541,1.0267950530350998,0.76424697529,1.30570859982,0.01852514619919407,0.1354248674992969,973.4812021392095,973.21938648941,973.86938693905,0.03438925547469114,0.650000449639947,0.18451385563134337,0.002297049499172388,-0.19454312062700785,0.6,0.4,0.7512460294781589,Stairs down
-0.759093017575,-1.41369628906,-0.4228515625,0.05788098034708425,0.23937871781679634,0.6264660644493999,0.30200195312,0.90466308593,0.02617425253161796,0.1609736314006172,0.09590698242280002,-0.162109375,0.4970703125,0.044368837833854105,0.20958327570566207,1.0322606993766998,0.58253571071,1.5178860336,0.03985633034759559,0.19863979219713163,973.6000195225348,973.37121609209,973.87291155474,0.01529272128458313,0.501695462649991,0.12304387051672788,-0.0006938758626273887,-0.12712063521581163,0.64,0.36,0.3170900268624184,Stairs down
-1.0072485351519,-1.35131835937,-0.70068359375,0.038573970933499416,0.19541809338995306,0.3536315917930999,0.20275878906,0.54296875,0.005218655585981902,0.07187815405338456,0.0038586425779,-0.32641601562,0.24011230468,0.017876920342462903,0.13303439833004949,1.0782343569858,0.74567519425,1.41711875302,0.03846800627318257,0.19514949707967671,973.6638888637573,973.57374696866,973.73434689811,0.0019787650166697823,0.16059992944997248,0.044260336267397296,0.0012558213771055626,-0.5608714841967175,0.48,0.52,-0.5130398576722459,Stairs down
-1.0391357421840002,-1.44738769531,-0.71118164062,0.039703718339648295,0.19825912628742168,0.3008459472624,0.00402832031,0.59387207031,0.02003022500200386,0.1408187585230882,0.0385803222642,-0.15270996093,0.23620605468,0.011148301450995749,0.10505626319494613,1.0940346738834998,0.74860221029,1.56497013821,0.0455165359784447,0.2122766370061959,973.7552672771909,973.69449637905,973.86608946702,0.0024495541591383306,0.1715930879699954,0.04924488417639895,0.0008423831606990528,0.058407645259410224,0.64,0.36,1.06542455277905,Stairs down
-1.137979337482277,-1.39770507812,-0.89282226562,0.015497795971811118,0.12387232316921218,0.3271967821747525,0.07373046875,0.63317871093,0.02728958787877823,0.16437577053624536,0.04674688660059406,-0.07702636718,0.16467285156,0.004083950631338571,0.06358864266968468,1.1961267790774257,0.9020529109,1.45492067957,0.02012724812623157,0.14116645650370854,973.7843812235762,973.72973020375,973.84092679568,0.0010896003227796709,0.11119659193002462,0.03284527668892365,0.0004888382859269446,-0.9287811427829671,0.52,0.48,0.04713938119227778,Stairs down
-1.0460644531213998,-1.27856445312,-0.82312011718,0.02195477290598942,0.14742871218636322,0.29927734374599996,0.08935546875,0.58264160156,0.02132065635738458,0.1452840314480939,0.049238281247,-0.04907226562,0.10729980468,0.0019613123660199233,0.044064716524218374,1.0978869775438003,0.83807746209,1.32515022128,0.025930036017847997,0.16022089644509394,973.7932822881764,973.74928391798,973.83960357873,0.0007752288657750039,0.09031966074996944,0.02770336761329304,0.000278318419889385,-1.2694505090987396,0.63,0.37,0.08057501365032517,Stairs down
-1.0695628156538384,-1.26440429687,-0.76574707031,0.023778439483434215,0.1534218147006018,0.30664309106343435,0.12719726562,0.525390625,0.012939331476595532,0.1131752232542535,0.022280914615050506,-0.07385253906,0.12902832031,0.0031980684650955256,0.05626512901634434,1.1181882761652524,0.77768309772,1.31988577746,0.027940900571694464,0.16630895722356165,973.7963473259227,973.7671902985,973.83517915636,0.00037043263971408126,0.067988857859973,0.019149174809338015,-1.177295012108603e-06,-0.8585638660956962,0.57,0.43,0.23864259239367228,Stairs down
-1.0307080078086,-1.24157714843,-0.84558105468,0.016856948630905852,0.12918350956912725,0.3069226074187,0.15698242187,0.5185546875,0.011404950117775694,0.10625864960838688,0.028664550778800004,-0.01672363281,0.09582519531,0.0009217943747404088,0.030208880002294106,1.080073827977,0.86171662614,1.31858954221,0.0199136596831348,0.1404084152973156,973.799541688438,973.77249079812,973.83396689001,0.0003958534461770224,0.06147609188997194,0.01979633581537887,-0.0001044704422580613,-1.35520002356695,0.6,0.4,0.3860299146559226,Stairs down
-0.9801281738246002,-1.35217285156,-0.74951171875,0.03136371521501042,0.17621032337198725,0.3286352539033999,0.18469238281,0.5224609375,0.006274864643573516,0.07881697784828966,-0.0159423828121,-0.10803222656,0.04541015625,0.0027394999154084017,0.05207787357654225,1.0398816642312,0.79016914758,1.38633139129,0.027805000172310343,0.1659124774409304,973.8227113009343,973.78790868603,973.86590743278,0.0004969216457269179,0.0779987467499268,0.022180000659820745,0.0005325463634988856,-0.9482974208653419,0.44,0.56,0.09110780924748099,Stairs down
-0.8241638183556,-1.15026855468,-0.45361328125,0.04395434753260689,0.20860202313803386,0.5315039062461999,0.20458984375,0.93310546875,0.059758236817894016,0.2432296331652767,0.0039062499991999997,-0.16882324218,0.31018066406,0.013758493191688613,0.1167086468937573,1.0312957026570002,0.79590476565,1.25144222029,0.014629496040663052,0.12034617185542887,973.9460030090419,973.84748847529,974.3393051814,0.01137814757753926,0.49181670611005757,0.10613371802478168,0.002790524683217572,5.058518389449448,0.8,0.2,2.1680269400814343,Stairs down
-0.8539648437463999,-1.22766113281,-0.45971679687,0.055536917627995806,0.23448144585812297,0.46847900390109987,0.22509765625,0.85583496093,0.03582405489464624,0.18832369565644091,0.03159545898329999,-0.11303710937,0.2822265625,0.0070526082268104855,0.08355885437547825,1.0130827960971,0.79517446717,1.25589209316,0.021029795630281043,0.1442896312074372,973.8965505708189,973.7564654157,973.98729874905,0.004689550448923745,0.2308333333500059,0.06813703063998686,0.001151369430236042,-0.6097709872862902,0.28,0.72,-0.6223810378206789,Stairs down
-0.9616601562468,-1.22900390625,-0.72424316406,0.02351235009215925,0.15256876020744764,0.2820581054643,0.19653320312,0.39013671875,0.0030594994263562127,0.05503548339110551,-0.0142407226578,-0.16650390625,0.12414550781,0.00665904362338875,0.08119392333884884,1.0072801321308,0.75993424728,1.27103222661,0.023065806844954753,0.15111303311265117,974.0345375770806,973.97277790116,974.09723109896,0.0014829046353662704,0.12445319779999409,0.03831547453722331,0.0011360570251824843,-1.1890605451505598,0.43,0.57,-0.15474268282864198,Stairs down
-0.9814538574182001,-1.31982421875,-0.71716308593,0.025576509687678085,0.15912493390666752,0.25959228515229993,0.18493652343,0.34765625,0.0018421818451779585,0.04270550347117077,0.011887207030199999,-0.15771484375,0.12414550781,0.006376517173861735,0.07945282878616165,1.0201551484277,0.74870485496,1.33719964108,0.023759458786392018,0.15336839374045783,974.1214520125868,974.06897684872,974.18277547914,0.001066658299682071,0.11379863041997851,0.03249602616759856,0.0007441797599507978,-0.9560262777649844,0.51,0.49,0.17262491898292942,Stairs down
-1.0020921159458416,-1.43981933593,-0.71716308593,0.03375119061174964,0.18280322865768237,0.28346539487623756,0.19458007812,0.47290039062,0.004820600565148822,0.06908597431231613,0.020015905398316828,-0.11389160156,0.12072753906,0.005586322383228823,0.07437077558169336,1.0470222562271287,0.74870485496,1.47380807085,0.032731246629874124,0.18001992912192663,974.2112352968857,974.16027463954,974.27605961247,0.0006577595149668293,0.1157849729299869,0.025519542404236272,0.0005695567901167531,0.049737285865967706,0.54,0.46,0.4182893107507115,Stairs down
-0.9569921874963998,-1.22863769531,-0.74645996093,0.019589739881509898,0.13926177681867627,0.249506835933,0.18591308593,0.306640625,0.0007313417425306456,0.0269077744361242,-0.04076660156119999,-0.16198730468,0.0634765625,0.004701314525952394,0.06822244044808769,0.993589140325,0.80208691476,1.2549897857,0.017477188208574728,0.13153864955399602,974.2696550702781,974.21913643412,974.34183076674,0.0011534469584792582,0.12269433262008533,0.033792195680281946,0.0007556575556732323,-0.5251456844183364,0.6,0.4,0.48997904702556355,Stairs down
-0.9885913085903999,-1.30383300781,-0.74731445312,0.027995560632915396,0.16648004392895335,0.26221191405919997,0.17749023437,0.37744140625,0.00271661893290898,0.051859933894866185,-0.0167260742188,-0.15759277343,0.10961914062,0.005845912471481762,0.07607531364882397,1.0272460844808,0.80332152155,1.33570898343,0.027581432210394587,0.16524411604741224,974.3233526695311,974.26352156048,974.39686518973,0.0010419373914213434,0.13334362925002097,0.032117254202486394,0.0008522368008777273,0.24969058766325114,0.58,0.42,0.5058832513901353,Stairs down
-0.6221985479761615,-1.22534179687,-0.31762695312,0.06398234178052381,0.2516665561808173,0.6717258029475758,0.23913574218,0.89904785156,0.0418779818241336,0.2036049407718735,0.2710429490181819,0.03747558593,0.53247070312,0.0199404820213274,0.14049577577639463,1.0116241561952526,0.82191062748,1.26490705636,0.013089744322951926,0.11383112352659157,974.4400071919034,974.27740802115,974.71073354965,0.012425467145306866,0.43332552849994954,0.1109051729008271,-8.062689268250685e-05,0.7702482402350261,0.64,0.36,1.2065550644367544,Stairs down
-0.8771862792931,-1.20397949218,-0.3544921875,0.06537661049508178,0.2544068481588712,0.4950354003857998,0.17663574218,1.03796386718,0.06578988109396686,0.25520968297270225,0.0753015136687,-0.01281738281,0.24731445312,0.005057608435440165,0.07076038687772815,1.0656054395166998,0.78790736863,1.32192421341,0.019730343913863357,0.1397606542440494,974.288279511417,974.1085148949,974.38169779837,0.004275071411051527,0.2731829034700013,0.06505628868096468,0.0018305934200990432,0.5636360817970552,0.43,0.57,-1.1615429148190801,Stairs down
-1.0052575683555,-1.21252441406,-0.84106445312,0.011105574819325068,0.10485475225821583,0.3169665527307,0.17175292968,0.47192382812,0.007591642242191105,0.08669328589786636,0.0108081054665,-0.03698730468,0.09582519531,0.0009242294471399299,0.030248754563924292,1.0569550961597998,0.9008014015,1.28988848723,0.013533885026608149,0.1157520892957966,974.3778487300359,974.34980088963,974.42917702907,0.000399965132512685,0.07937613944000077,0.019898881405434783,-0.0002127238853810454,-0.2517927596023637,0.49,0.51,0.5626368027286246,Stairs down
-1.014393310543,-1.20141601562,-0.86376953125,0.008968613995058406,0.09422806299138183,0.3079406738235,0.16479492187,0.45434570312,0.005797922724158063,0.07576241480388862,0.00015625000030000002,-0.0595703125,0.08312988281,0.0009971845268861136,0.031419940827717235,1.0623395892353,0.90694317123,1.28471061261,0.010971669354599756,0.10422069209640548,974.3695177271175,974.33915445324,974.39947530568,0.00034716737991424997,0.060320852439986083,0.01853903196272954,-1.9493009598015638e-05,-1.0674923233547018,0.43,0.57,-0.114544741927471,Stairs down
-0.9744628906209999,-1.22546386718,-0.76708984375,0.015804896450854124,0.12508735941871016,0.28955200195010006,0.17724609375,0.41015625,0.003469426973626057,0.05860659266575558,-0.0182861328117,-0.10864257812,0.08312988281,0.004064882042032703,0.06343684435414783,1.0204534906134999,0.79148803544,1.26399795711,0.015690057162950424,0.12463208491925713,974.390720953072,974.35484720968,974.43931415013,0.0007472862632703099,0.08446694045005643,0.02719951103673753,0.0008597095416227105,-1.3785306365077827,0.47,0.53,0.2037853478973141,Stairs down
-1.0369458007767,-1.43469238281,-0.71813964843,0.03868057397305736,0.19568793584001742,0.2829956054649,0.13781738281,0.41381835937,0.004149608389268452,0.06409455753319283,-0.0202246093747,-0.17175292968,0.14697265625,0.00771457103711066,0.08739236423589622,1.0802803124888998,0.73921534064,1.47753927933,0.03917767030436941,0.1969413455862575,974.4557212158303,974.39917259197,974.52045096881,0.0015312461208928623,0.12127837683999587,0.03893499274025788,0.0006540039878002632,-1.1251329353133603,0.51,0.49,0.30136700188549137,Stairs down
-0.9788879394488,-1.43981933593,-0.65014648437,0.04164014391662176,0.20303630827380492,0.2638916015587,0.08081054687,0.44409179687,0.009415951040014178,0.09654942531995743,0.0473071289042,-0.15063476562,0.19458007812,0.009916697914384157,0.0990834543969896,1.0230705596565999,0.66441399864,1.50702590387,0.04423033810501097,0.20925590726180435,974.5302329933551,974.45511157686,974.59227069084,0.001844204980482081,0.137159113980033,0.04272894722172851,0.0011488486418476484,-1.2983148023389977,0.47,0.53,-0.12027763905384051,Stairs down
-1.029608698170792,-1.40576171875,-0.67114257812,0.05100771590355351,0.2247280334391313,0.2637238455259406,0.11975097656,0.38977050781,0.004644420250181375,0.06781176808835387,0.05584656365930693,-0.18176269531,0.17907714843,0.013834105021286312,0.11703475417345863,1.073556300210792,0.70138168383,1.43004020655,0.04952868864399927,0.22144594281250243,974.6124958255613,974.54357416382,974.75718454171,0.0026668581565712753,0.21361037788994963,0.05138534441226991,-0.0002926039841363203,-0.4303217268661266,0.5,0.5,0.6079311871111038,Stairs down
-1.0138061523392,-1.40905761718,-0.65563964843,0.048271855471091925,0.21860726638513417,0.24564208984019997,0.07629394531,0.63928222656,0.014598989275861876,0.12022062794339106,0.0272851562488,-0.19482421875,0.1962890625,0.01834752236867366,0.1347740596145524,1.0585526124303997,0.69740326108,1.43982359985,0.0492525057943865,0.22081662241879038,974.7178654566867,974.64851303239,974.90638404428,0.004681566031457573,0.25787101188996076,0.06807900095582335,0.00039281038454612785,1.9766264204377615,0.6,0.4,1.5893319278477231,Stairs down
-1.0251367187464,-1.52905273437,-0.72473144531,0.04003345595466775,0.199080690663663,0.2842797851534001,0.09460449218,0.47009277343,0.010337481408438006,0.10116376127029691,0.0302490234352,-0.09851074218,0.12268066406,0.005298820408538696,0.0724281174990301,1.0724533989078002,0.74433464864,1.57321864559,0.037971776919894513,0.1938867173137334,974.7758183953233,974.71516875105,974.9873095841,0.0028761058458816567,0.2721408330500026,0.05336051712102161,0.0006801870409604541,7.148140440746435,0.56,0.44,2.4581999463290556,Stairs down
-0.9911181640583999,-1.44897460937,-0.63171386718,0.05512910332377933,0.23361894677132147,0.3038598632780001,-0.00146484375,0.59594726562,0.027239234332708476,0.16421583964216543,0.06841064452859999,-0.15234375,0.40441894531,0.0183470460437041,0.13477231015036828,1.0592571380005997,0.63737887699,1.4805239111,0.05758443776008852,0.23876472390721296,974.951294738087,974.80422989531,975.52330897093,0.047768152174161256,0.7190790756200158,0.21746372261234664,0.005458811715529495,1.5753253747389344,0.7,0.3,1.7341246748867067,Stairs down
-0.9902734374959999,-1.025390625,-0.97106933593,0.0003047479764570214,0.017369527820077644,0.24391357421499996,0.19165039062,0.26733398437,0.0004380857162082341,0.020825581841719374,-0.05807617187139998,-0.07739257812,-0.04284667968,7.860381195268997e-05,0.008821438308641232,1.0218167435069998,1.00330056944,1.05392103955,0.00021406086343786504,0.0145574810596987,974.9532345481991,974.94314752172,974.9626428832,2.296428991767332e-05,0.01949536148003972,0.004768086305688749,-0.00011661897934757083,-0.24377031822100736,0.5,0.5,0.16625749629484898,Lift up
-1.0131201171836,-1.021484375,-1.00500488281,1.7115106490397627e-05,0.004116303611918544,0.24911621093320005,0.23364257812,0.26672363281,5.575115030370057e-05,0.007429242141743906,-0.06433349609039998,-0.08361816406,-0.05249023437,0.0001007104702836543,0.009985157263699843,1.0453564888893998,1.03909807216,1.05152977726,1.1827481600327957e-05,0.0034218718246487078,974.9205270324522,974.87031089384,974.95238314844,0.0006711878876767664,0.082072254600007,0.025777432160709855,-0.0008659965587045295,-1.0310560504706607,0.42,0.58,-0.5238832148150001,Lift up
-0.9942084418374747,-1.01782226562,-0.98071289062,0.00012848000813927543,0.011277509932573003,0.25419477982555555,0.24475097656,0.26989746093,5.79711291645516e-05,0.007575325880996375,-0.07126070272787878,-0.08361816406,-0.0537109375,4.882192984973524e-05,0.006951890321572418,1.0286986346429292,1.01291644515,1.05354844502,0.00015710221041808105,0.012470578150340784,974.7671767884108,974.6561726311,974.87031089384,0.004119112995864495,0.21413826273999348,0.06385535055017759,-0.0022211147252498816,-1.2515257876798245,0.49,0.51,-0.18370768358949338,Lift up
-0.9806262206995998,-0.98876953125,-0.97387695312,1.5680324853958074e-05,0.003939990051436487,0.24914306640230002,0.2412109375,0.25659179687,1.5087795978636093e-05,0.0038648309172394247,-0.06423217772989999,-0.07788085937,-0.05297851562,5.051695186668249e-05,0.007071900900607676,1.0138485070651,1.00568222411,1.02206039963,1.767864595568384e-05,0.004183522379063723,974.530993701997,974.40258121998,974.6561726311,0.005003490239357911,0.25359141112005545,0.0703807881240636,-0.002430053815169023,-1.1085648453882644,0.49,0.51,0.0029155563772365963,Lift up
-0.9807495117146,-0.99401855468,-0.96875,2.5916430687707775e-05,0.005065300226129809,0.2436840820282,0.22802734375,0.25439453125,3.694663745808438e-05,0.006047906338850126,-0.0753344726538,-0.08740234375,-0.0625,6.07675434400969e-05,0.007756279263003359,1.0134242280771004,1.00379125329,1.02734080557,2.0755137303884117e-05,0.004532944510011707,974.3050487641744,974.16755517394,974.40258121998,0.003286508690089888,0.23502604604004773,0.0570407188172536,-0.0018720224623635087,-0.6506347627279223,0.53,0.47,0.24819234420857533,Lift up
-0.982459342121683,-0.98974609375,-0.97534179687,1.4082116656515289e-05,0.0037339911300009842,0.23836343594900983,0.23022460937,0.24487304687,1.0241898565492718e-05,0.0031844141736276565,-0.07391659575792078,-0.08801269531,-0.05871582031,6.810980857670378e-05,0.008211909280815295,1.0137400996161385,1.00714276852,1.02116300002,1.2750574830403388e-05,0.003553073530797087,974.0249731074254,973.91750543175,974.16755517394,0.004960922673483533,0.2500497421899581,0.0700842680436303,-0.002313467038383972,-0.4745769631898864,0.5,0.5,0.6006750815995355,Lift up
-0.982937011715,-0.98803710937,-0.97863769531,9.701884153889356e-06,0.003099171713918166,0.2366406249958,0.2294921875,0.24365234375,1.5577980965675308e-05,0.003927111044523513,-0.06696289062139998,-0.07958984375,-0.05493164062,4.350727254775934e-05,0.006562941400186486,1.013263108068,1.00833607166,1.02025994023,1.4097185622648912e-05,0.0037358016230017383,973.7994252615979,973.67296601522,973.91750543175,0.005112218833725061,0.24453941652996036,0.07114138489928215,-0.002456574484526038,-1.2147271400944197,0.46,0.54,0.0003868020598418164,Lift up
-0.9653100585895998,-0.98315429687,-0.93103027343,0.00030387934412511725,0.01734475571127671,0.23416748046480007,0.22436523437,0.24584960937,3.2437118611998276e-05,0.005666811045542131,-0.06976318358900001,-0.08288574218,-0.05883789062,4.2311621430981565e-05,0.006472132972727905,0.99579293791,0.96261380687,1.01490450758,0.00029907729206320085,0.017207164761882443,973.5552504445258,973.44601215716,973.67296601522,0.004994755366809934,0.22695385806002832,0.070319327450864,-0.0024248991224233886,-1.3177142368182406,0.54,0.46,0.0488487943149163,Lift up
-0.9545776367159999,-0.99621582031,-0.93017578125,0.00043750125348233004,0.02081168520200867,0.23249755858940005,0.21899414062,0.25854492187,0.00013806114895020997,0.011691045182562074,-0.07168212890219999,-0.09704589843,-0.04614257812,0.00015734559960074463,0.012480871107608522,0.9852195123592001,0.95832550349,1.02841641809,0.000484846726641497,0.021908862576023477,973.384756201776,973.35686574818,973.44601215716,0.0006362809724465792,0.0891464089800138,0.025098170505479345,-0.0008099647847990717,-0.44880380267715125,0.62,0.38,0.8967698734676309,Lift up
-0.9789257812468,-0.99548339843,-0.95959472656,5.532681338869701e-05,0.007400915163330144,0.24287841796479995,0.21142578125,0.25952148437,0.00012856999430064056,0.011282034140953225,-0.07871582030839999,-0.09655761718,-0.06665039062,5.5654097069817814e-05,0.007422772803954035,1.011761013077,0.99144365557,1.02710954005,5.919119529140453e-05,0.007655016873821408,973.3530234736545,973.3450986332,973.36181963573,1.8867520260695603e-05,0.016721002529948237,0.0043219029440847755,-9.258203420744825e-05,-0.20204178084194258,0.5,0.5,0.16577851735010166,Lift up
-1.0113793945268,-1.41723632812,-0.7529296875,0.03142695763476877,0.17638789090643692,0.28535156249589994,0.08935546875,0.48889160156,0.010208668732805525,0.10053149777794754,0.0496447753908,-0.076171875,0.29089355468,0.012145732597021352,0.10965525646794658,1.0625379046529002,0.79144158844,1.43344081094,0.031348630474041295,0.17616794308074576,973.2573874937437,973.20103342682,973.31992932788,0.000940276385459473,0.11889590106000014,0.030510221592195595,-0.00041896355644664154,-0.21947990891801306,0.44,0.56,-0.1937572844940334,Stairs up
-0.9971472167930999,-1.38195800781,-0.73889160156,0.03705774703874355,0.19153895052535952,0.24155517577799995,0.08605957031,0.34240722656,0.0037500444024964733,0.06093064876128851,0.0727685546844,-0.05285644531,0.18701171875,0.004173725927517255,0.06428054657703279,1.0328039583809001,0.76592500803,1.4196350721,0.03615598303211585,0.1891941415630904,973.1990364361511,973.11270449428,973.26503424436,0.0020124164419086767,0.1523297500799572,0.04463510140561563,-0.0011287283883630586,-0.7389255415933391,0.46,0.54,-0.5611124596849727,Stairs up
-0.946933593746,-1.39331054687,-0.68786621093,0.04961424105108593,0.22162603330966124,0.29716186523120003,0.20361328125,0.54736328125,0.00815897107585993,0.08987425307117346,0.09137573241990003,-0.078125,0.24084472656,0.00843780822661569,0.09139710140015127,1.0048647734401002,0.74849117022,1.48785745288,0.04962992609735983,0.22166106296863738,973.0963881620858,973.04491449503,973.13836289459,0.0008136342871614826,0.09344839956008855,0.028381295676728147,-0.0008422515349973435,-1.062810282719252,0.5,0.5,-0.21283270520787131,Stairs up
-0.9468155677838384,-1.50390625,-0.58752441406,0.05146175612199198,0.22570321309983168,0.2963620580772727,0.11694335937,0.56237792968,0.015028668599113088,0.12197075004192076,0.2213899246341414,-0.02526855468,0.43737792968,0.01926790013143906,0.1381060276656531,1.0334587732143437,0.73520096532,1.56101103409,0.05067055459133568,0.22396144937820173,973.2427522458581,972.22006507032,974.12803153362,0.2522761249263384,1.9079664632999993,0.49972780715126686,-0.006692488937425305,-0.33556025727627947,0.64,0.36,-0.05474703586605818,Stairs up
-1.0014184570264002,-1.33337402343,-0.77075195312,0.020815035243255734,0.1435509835940638,0.3077026367156,0.21008300781,0.43530273437,0.003686575124932804,0.060412824579583066,0.19567626952740003,0.00061035156,0.46411132812,0.016773215140967742,0.12886226363663672,1.0763483312674,0.84846284171,1.40954188122,0.01832867495340438,0.13470481878489104,972.7727318130143,972.22006507032,973.54007715574,0.08810654173621886,1.3200120854201032,0.2953395949053507,0.00370485193057841,0.3907257323131348,0.59,0.41,0.6986107005530162,Stairs up
-0.9730309212525742,-1.20568847656,-0.66564941406,0.027727355139468116,0.16568894613329072,0.2856529915654455,0.1201171875,0.45202636718,0.006911945717622995,0.08272551366723518,0.0421928179139604,-0.09558105468,0.21276855468,0.005702408129670597,0.07513952783481019,1.0206589448142571,0.71620241924,1.25382631112,0.02864829012154302,0.1684180622281828,972.8471375030764,972.77412368777,972.97290249148,0.0022596371458739432,0.19877880370995626,0.04729973045235343,-0.000250003102159895,0.11094649824771396,0.5,0.5,0.3836084005956905,Stairs up
-1.0002856445275998,-1.16638183593,-0.88635253906,0.005776127847743395,0.07561988210296258,0.3095715331988,0.24047851562,0.45190429687,0.0038344325728001485,0.061612403354131116,0.014899902342800002,-0.14245605468,0.16027832031,0.007367190633797123,0.08540210025203801,1.0520149369242,0.94787953726,1.25096911175,0.006768139329655619,0.08185632496245518,972.8742425105828,972.83910490514,972.89978777291,0.0003501750316836933,0.06068286777008325,0.01861916435737266,1.779695997800438e-05,-1.1852894148497872,0.48,0.52,-0.4376274579875933,Stairs up
-1.0660412597622,-1.2685546875,-0.88659667968,0.011782383225183055,0.10800258975103895,0.3102221679658,0.18530273437,0.45983886718,0.006236850679539202,0.07857787330250043,0.0388830566392,-0.15307617187,0.15234375,0.007821485085036873,0.08799585350564254,1.1161032395162003,0.91041876318,1.34067422914,0.014231842066963075,0.11869929926622753,972.8627190881339,972.81288516548,972.91008204793,0.0006996024577834177,0.0971968824500209,0.026317416917425302,-0.00043306915051954665,-0.6499693169815153,0.5,0.5,0.07092611774436261,Stairs up
-1.0692492675742002,-1.22399902343,-0.93420410156,0.007012596423868033,0.08332148858265408,0.31045654296380004,0.20678710937,0.47106933593,0.007073810792890619,0.08368436344360704,0.0197448730469,-0.15319824218,0.20886230468,0.012943383832366841,0.11319871904771349,1.1216976568568997,0.98173248492,1.2972428478,0.008708061646608119,0.09284923817749954,972.8716084610361,972.83212883955,972.89909940414,0.000375786528532979,0.06697056458995121,0.019288044567753602,2.7766309393372848e-05,-0.4666618797517388,0.52,0.48,-0.5221295886873373,Stairs up
-1.0227600097619,-1.21667480468,-0.84777832031,0.008584074111482824,0.09218586318068511,0.2924450683566,0.21752929687,0.42504882812,0.0035781280244911564,0.05951761709146498,0.0136914062502,-0.13598632812,0.1806640625,0.01071787865403816,0.1030082514534529,1.0700057207483,0.88346168819,1.28652159217,0.00958449265493837,0.09740969011545507,972.8689008105928,972.82878888102,972.9023145518,0.000460476013640394,0.07352567077998629,0.021351141737714872,0.0001727535640120131,-1.1319013925836912,0.42,0.58,-0.18045995266710863,Stairs up
-1.0467712402301,-1.2568359375,-0.86682128906,0.01384311504279073,0.1170670059938445,0.26215698241790003,0.1953125,0.39562988281,0.0030757146938278517,0.05518113397611156,0.06627441406120001,-0.06274414062,0.1728515625,0.006280909788394145,0.0788549344715358,1.0856661923535997,0.92257144451,1.28107917042,0.01327805219522194,0.11465283107394131,972.8533141791934,972.80800586837,972.89669155315,0.0007782173243607007,0.08868568478010275,0.02775671362242104,-0.00046184793698050673,-1.1882137186559296,0.42,0.58,-0.28028020992523783,Stairs up
-1.0111193847613997,-1.16137695312,-0.77844238281,0.012587432938254338,0.1116313513708035,0.30297851562140005,0.24353027343,0.41223144531,0.002090828587296624,0.04549637679446197,0.027521972656400006,-0.16943359375,0.27685546875,0.014708649455255886,0.12067130131354069,1.0640354127206,0.84637383169,1.22599898593,0.011957103533481261,0.1088004250825632,972.805108442083,972.75299501604,972.8508857837,0.0008897018394323831,0.0978907676600329,0.02967835610403749,-0.0005619659394732554,-1.1884182973536142,0.5,0.5,-0.2620436650947408,Stairs up
-1.0059167480429,-1.42834472656,-0.75390625,0.042502674025181514,0.2051283678210542,0.2258605957001999,0.08129882812,0.310546875,0.0047128171557952875,0.06830584882890582,0.0910778808557,-0.04284667968,0.20178222656,0.004931960110280967,0.0698758936198898,1.0395695640965,0.79571749262,1.46183810804,0.04252302146255891,0.2051774628167853,972.7539236071923,972.69924699965,972.821203987,0.0006622547158555799,0.1219569873500177,0.025605315243070612,-0.0006327537633172348,0.031887232732604964,0.58,0.42,0.6839074555160841,Stairs up
-0.98354886757899,-1.49230957031,-0.74658203125,0.04946769069252188,0.22128718229749114,0.20521005957515148,0.05407714843,0.33374023437,0.00652056131958871,0.08034112934129871,0.09909026791060609,-0.00939941406,0.22277832031,0.004954907463279997,0.07003469063930987,1.0157341366354546,0.78697492146,1.52000237052,0.048399039525263636,0.21888389693657173,972.679906761147,972.59983187249,972.72836609923,0.0007409741857563371,0.12853422674004378,0.027083013089784242,-0.0005396947275408397,0.35886792018612157,0.45,0.55,-0.3037628535504713,Stairs up
-1.0084692382769997,-1.23962402343,-0.82873535156,0.01703917491897045,0.1298798797727375,0.22217773437080002,0.12072753906,0.33422851562,0.0029084916307576224,0.053660103563541936,0.060241699215800006,-0.0146484375,0.16442871093,0.003533750019666203,0.05914737965007022,1.0375067948546002,0.85306400947,1.26342970401,0.01699845006290462,0.12972457578375646,972.5914038527105,972.56049302006,972.61486816764,0.0002568402411716559,0.05437514758000361,0.015945903510304435,-0.00043522944106082136,-1.199297677995162,0.38,0.62,-0.37136722766321023,Stairs up
-1.0156419206338612,-1.21520996093,-0.79931640625,0.013973779389106999,0.11762408400378599,0.27088490098693074,0.13549804687,0.39807128906,0.00538217994542925,0.07299925366110578,0.0721592667069307,-0.06201171875,0.38671875,0.013205371398405668,0.11434432713054157,1.0624165977762379,0.83533856513,1.23192637256,0.013760254534392977,0.11672195333564332,972.5341386838893,972.46735164221,972.57135089154,0.0004685257324652166,0.10399924932994509,0.0215380329609495,-0.0006247473622168363,0.9254647192782808,0.66,0.34,-0.28440396436796994,Stairs up
-1.0324218749968,-1.37780761718,-0.82263183593,0.02355772678339672,0.15271591114079355,0.20973632812210005,0.072265625,0.37768554687,0.0069406684961708445,0.08289307456723473,0.0761425781238,-0.09008789062,0.38671875,0.013088406070998591,0.11383111178534892,1.0670720184115001,0.83308968359,1.38348160197,0.020394129664027014,0.14209218263995646,972.4775943748475,972.44073529061,972.51236554345,0.0004440391074423273,0.07163025284000923,0.020966609558245322,-0.0003758869524617803,-0.7260482102721921,0.52,0.48,-0.21663854284968273,Stairs up
-0.9723925781214998,-1.16748046875,-0.74951171875,0.016591997074554922,0.12816425829305678,0.2878283691364,0.16918945312,0.44738769531,0.004050126850963161,0.06332160438944617,0.0276782226564,-0.03759765625,0.14294433593,0.0023840908507599986,0.04858240362777863,1.0179127706019004,0.81351834449,1.21551510453,0.0159678021686661,0.12573036286824055,972.4182530562584,972.36858144028,972.45005442229,0.0005841127274390605,0.08147298201004105,0.024047278435712218,-0.0005326150594517324,-1.1924295029080754,0.36,0.64,-0.36797769559333476,Stairs up
-1.0394726562461,-1.19909667968,-0.86633300781,0.008729249997488519,0.09296212937273776,0.2857360839803,0.17114257812,0.47338867187,0.006095785196047634,0.07768415117697533,0.020440673826399997,-0.1572265625,0.13940429687,0.00653357890328946,0.08042538849304096,1.0830059345181997,0.89707087361,1.25667054007,0.010918694617498809,0.1039687821960218,972.4068714332429,972.36199683521,972.49387871964,0.0010536526970936386,0.13188188442995852,0.03229730902293103,-0.00048080972164716787,1.7028040197778234,0.51,0.49,1.2151633612392878,Stairs up
-1.0499841308559998,-1.24291992187,-0.90759277343,0.007318408036360486,0.08511888131311925,0.30720214843390004,0.15649414062,0.51721191406,0.011903892261901961,0.10855806436779786,0.027961425781200006,-0.13977050781,0.17724609375,0.011110881307402414,0.10487980022067353,1.1035991302855002,0.94702241272,1.30245035784,0.009818672528092475,0.0985925240716128,972.407512131326,972.36217135318,972.43892088484,0.0004401257852644373,0.07674953165997067,0.020874015603419314,-0.0003170587936471522,-0.7827728642713647,0.44,0.56,-0.4679674771928987,Stairs up
-1.070163574215,-1.24072265625,-0.95471191406,0.006605050654133303,0.08086408441076898,0.2985974121057,0.13159179687,0.4853515625,0.011418539133806712,0.10632193443720184,-0.0089416503902,-0.20166015625,0.15393066406,0.011992520868556483,0.10896144116094886,1.1207029629507002,0.98011364528,1.30140531307,0.00831440564702059,0.09072630043460597,972.4039329494627,972.36217135318,972.46029456349,0.0006601308876901707,0.09812321031006377,0.025564224588539138,3.9064737351018226e-05,-0.08241038071772566,0.56,0.44,0.5439315013732473,Stairs up
-1.0759155273396999,-1.30749511718,-0.83850097656,0.017419708346970455,0.13132216592601856,0.2799316406222,0.14367675781,0.42663574218,0.006124593994820536,0.07786750320173577,0.029766845701099998,-0.19604492187,0.20825195312,0.01452257006238013,0.11990556434860031,1.1205473819709002,0.8623660488,1.34089039218,0.019092705992504753,0.13748374061167998,972.3871857919141,972.33636914646,972.45570414477,0.0011925981425720672,0.11933499831002337,0.03436091036550613,0.00034779798859383934,-0.7742319858393509,0.52,0.48,0.3417066195082616,Stairs up
-1.0947106933559,-1.2939453125,-0.90405273437,0.012054163896594841,0.10924111981130957,0.25783935546509995,0.14697265625,0.42663574218,0.005018765751659599,0.07048814151432142,0.04928588867130001,-0.16223144531,0.20788574218,0.01184896428560069,0.10830731573972592,1.1330388359111998,0.94693390848,1.34172036231,0.012280207579340313,0.11026062535441612,972.376109804915,972.34199159845,972.43199431195,0.0007018837560485136,0.09000271349998457,0.026360290561525085,-0.0004088936343296448,-1.0185490788895664,0.59,0.41,0.35288760206112774,Stairs up
-1.0019128417935002,-1.30578613281,-0.79614257812,0.021868178957335675,0.14713768099219968,0.27715332030889994,0.13537597656,0.35534667968,0.0036358262312328193,0.05999556624385248,0.046520996093300016,-0.17663574218,0.341796875,0.018650871785358143,0.1358836379683167,1.0518727520036,0.84970749913,1.34726797398,0.02028742462971222,0.1417199717168159,972.3317997823455,972.29229715126,972.37573598786,0.0007942120620752761,0.08343883660006668,0.02804050537088309,-0.0007836296151864874,-1.4936425635176622,0.47,0.53,0.041103072518387726,Stairs up
-1.0417346191368,-1.29663085937,-0.77099609375,0.025768313111495866,0.15972047451839388,0.2297607421838,0.10437011718,0.34790039062,0.0043910886301656545,0.06593313085137091,0.06098144531109998,-0.14001464843,0.21789550781,0.012268101421677119,0.11020626301377044,1.0773659794141002,0.81626869941,1.34111033148,0.023237905618109227,0.15167572832173293,972.2718169951602,972.20883205154,972.32392256647,0.0006992126729708019,0.11509051492998879,0.026310084497034474,-0.0006413878154442653,-0.12061200381450199,0.51,0.49,-0.0454645318153164,Stairs up
-1.0275805664025,-1.25146484375,-0.8251953125,0.01425825520573929,0.11880939631898604,0.2733532714812001,0.1630859375,0.43432617187,0.005744467689189626,0.07541235318101225,0.051048583984700004,-0.07189941406,0.18310546875,0.006208968792696313,0.07840203508053442,1.0699580280591998,0.86250706303,1.26778226246,0.014534527645312942,0.11995491806866365,972.2119909244493,972.18145308079,972.2823745804,0.0008517216887635619,0.10092149960996721,0.02903798326116892,-0.0007799900504907672,0.2968635278837293,0.63,0.37,1.1008717643733692,Stairs up
-1.0449096679649,-1.23852539062,-0.84838867187,0.013767175451435203,0.11674546542337673,0.2616601562466,0.138671875,0.47436523437,0.00829162034133041,0.09060189919597218,0.04372192382499998,-0.07580566406,0.16052246093,0.0032767999817079367,0.05695640422192098,1.0829418282705,0.87587559691,1.32690616667,0.014679893530517915,0.12055328529415006,972.1513489526203,972.12486151654,972.18806320171,0.00035392296458581926,0.06320168516992908,0.018718539872008208,-0.0003067244444173125,-1.3492076229906043,0.51,0.49,0.029013879526062967,Stairs up
-1.0025158691370002,-1.28698730468,-0.80725097656,0.021505649311189652,0.14591296315981578,0.2378356933547,0.09887695312,0.37561035156,0.005284067770183638,0.07232722234734168,0.0778491210912,-0.07653808593,0.19287109375,0.004979233735467191,0.07020998075852548,1.0385405781076,0.85863583594,1.31851054137,0.020756666157128734,0.14334957096398107,972.082323863684,972.04473811993,972.14596543099,0.0006188876927812624,0.10122731106002902,0.02475275370243581,-0.0005984105011791343,0.26970471248618155,0.59,0.41,0.8156478486472759,Stairs up
-0.9999084472625,-1.21643066406,-0.7802734375,0.014410046729049922,0.11944013672865342,0.2709338378870001,0.111328125,0.41003417968,0.007868471017429098,0.08825976607296672,0.052664794920500003,-0.04821777343,0.22387695312,0.007291997097097098,0.08496515242219087,1.0436998097485999,0.80654592627,1.23252503678,0.016122368550429523,0.1263374246410193,972.0369222780287,972.00796277168,972.06678714301,0.00024290790209568797,0.058824371329933456,0.015507379632766171,-0.0003507302170636229,-0.5372418360461491,0.51,0.49,-0.10034243160858408,Stairs up
-0.9758569335909999,-0.99084472656,-0.94152832031,0.0001479325812182105,0.01210178728147328,0.255704345699,0.24682617187,0.267578125,2.5839472962235417e-05,0.005057774039299607,-0.11724365234,-0.13000488281,-0.10119628906,4.855714061322763e-05,0.006933366369022724,1.0156400749153,0.98244934346,1.02936762181,0.00012412665442727093,0.011085368188878448,971.9667279563358,971.95596798236,971.97533776238,1.991639989835413e-05,0.019369780020042526,0.004440409429249806,-7.067677525421889e-05,-0.42910696404784643,0.48,0.52,-0.27212031525316616,Lift down
-0.9306372070271999,-0.95556640625,-0.91833496093,0.00011348832137996089,0.01059969047501677,0.25461669921549995,0.24658203125,0.26245117187,1.1062495636911721e-05,0.00330936106832461,-0.1258081054647,-0.140625,-0.11267089843,3.910088179015459e-05,0.006221725883728167,0.9730454862042,0.96342213722,0.99648487415,8.833432670073508e-05,0.009351523054226393,971.990096358555,971.95596798236,972.08427536342,0.000935751721270048,0.12830738106003992,0.0304367245947613,0.0009615309599775572,0.7115611691146162,0.65,0.35,1.1333677572523588,Lift down
-0.9733007812454,-0.98754882812,-0.95056152343,4.022352623298117e-05,0.006310411315488981,0.2567578124965,0.23596191406,0.28942871093,0.0001967370269098172,0.01395598999142372,-0.10435424804250001,-0.11999511718,-0.0673828125,0.00015000823018772395,0.012186391914174052,1.0121561507791998,0.98866205832,1.02620772004,5.234310448725384e-05,0.007198588295102124,972.1859636602312,971.92052856046,972.4479414796,0.025594180567801827,0.5274129191400334,0.159179894340095,-0.0019660378873012844,-1.2338438637303069,0.48,0.52,-0.009942060309484451,Lift down
-0.9731835937454,-0.97937011718,-0.96557617187,1.540174388143446e-05,0.0039048337279095654,0.26127441405869994,0.24731445312,0.27355957031,5.357991565584876e-05,0.007283139192634607,-0.1127722167936,-0.12683105468,-0.09289550781,6.493235325730205e-05,0.008017669843834244,1.0140250091094003,1.00786534252,1.02202668391,1.6543283242098884e-05,0.004046955696530158,972.3304895171118,972.08883546089,972.45579132142,0.008855839304400788,0.36695586052996987,0.09363375946397101,0.0031621714349398824,-0.6368723845947342,0.45,0.55,-0.5858024287792226,Lift down
-0.9810388183556998,-0.99096679687,-0.97326660156,1.8786316860686733e-05,0.004312592456061651,0.24750244140199995,0.23913574218,0.25854492187,3.137233883738077e-05,0.00557302569965427,-0.0975878906216,-0.1103515625,-0.08715820312,2.694862056805753e-05,0.005165184833321742,1.0165661139952002,1.00734850086,1.02671921171,2.0960963914996262e-05,0.004555365438232843,972.5709190532492,972.45579132142,972.66825577537,0.0038152698850843552,0.21246445395001956,0.06145825563936477,0.002121318037691189,-1.1968892792227528,0.49,0.51,-0.035026004754434924,Lift down
-0.9767138671844,-0.98828125,-0.96801757812,2.67574040608586e-05,0.0051468271799478575,0.2498828124964,0.24279785156,0.26086425781,1.733770274590238e-05,0.004142985121677769,-0.095649414058,-0.10656738281,-0.08264160156,3.53703354373619e-05,0.005917485283715396,1.0127244501140003,1.00472803286,1.02306793907,2.8351180202601762e-05,0.005297892826452395,972.7851260425334,972.66825577537,972.88133598007,0.0036200683342925716,0.21308020470007705,0.05986541281031683,0.0020638428278804363,-1.1183035592500794,0.49,0.51,-0.042761395678040104,Lift down
-0.9735595703095999,-0.97961425781,-0.96545410156,1.5719972482900295e-05,0.003944968030044261,0.2567431640588,0.24780273437,0.26330566406,1.3207281485358467e-05,0.003615965800516493,-0.09904785156,-0.111328125,-0.083984375,4.884811362780637e-05,0.006954109036499809,1.0117375752316002,1.00527893651,1.01653678753,9.9420296146303e-06,0.003137293310878662,972.9973064526861,972.88133598007,973.10533536565,0.003617206492860897,0.22399938557998667,0.05984174486035888,0.0020621735160769746,-1.1789458664134076,0.53,0.47,-0.039414223384680806,Lift down
-0.9770922851524,-0.9853515625,-0.96520996093,2.4176673457005725e-05,0.004892331419930141,0.25784301757420003,0.24951171875,0.26586914062,1.673276224808587e-05,0.004070065678291324,-0.09921508788670001,-0.11145019531,-0.08898925781,3.0949216599822474e-05,0.005535316109656634,1.0154216512858003,1.00368063057,1.02357780426,2.626186436668238e-05,0.005098945550112842,973.2037576625195,973.10533536565,973.31029270185,0.0039054606084350228,0.2049573361999819,0.06218043102416284,0.00214329070868776,-1.3303819345320236,0.49,0.51,-0.036407757436433326,Lift down
-0.9763244628871999,-0.99816894531,-0.96496582031,4.974169411181348e-05,0.00701742667725822,0.26023193358999996,0.24792480468,0.2724609375,4.3801701445611505e-05,0.006585110813885776,-0.09428588866870001,-0.1103515625,-0.07421875,0.000107160389725221,0.010299941059441495,1.0148749211809003,1.00364018042,1.03466348975,4.8016157840443165e-05,0.0068946353248042595,973.4169050427957,973.31029270185,973.53064451989,0.0038518008357202923,0.2203518180399442,0.06175178400146095,0.002128062829097801,-1.070699752889143,0.53,0.47,0.11313173946262509,Lift down
-1.0067614746044997,-1.03649902343,-0.97204589843,0.0005778883728666666,0.02391881036209786,0.2567517089813,0.2490234375,0.26452636718,1.7756372688684974e-05,0.00419270902422266,-0.09896728515239998,-0.11791992187,-0.08154296875,4.247000120780227e-05,0.006484234819600864,1.0437157833396997,1.00789628678,1.07377084584,0.00057952278002713,0.023952610551396244,973.6263032322554,973.53064451989,973.71421661991,0.0034257329505514317,0.18357210002000102,0.05823637712844024,0.001999489092461086,-1.3462342628226782,0.45,0.55,-0.18929324771170924,Lift down
-0.9961914062458999,-1.03308105468,-0.97351074218,0.0003283114144266468,0.018028541268843144,0.2504089355425,0.22985839843,0.2607421875,6.906564037677879e-05,0.008268916735160114,-0.09481689452760002,-0.12060546875,-0.07849121093,0.00013283064270215304,0.01146744680716381,1.0315313755259004,1.00740120501,1.07063127907,0.0003633193259590524,0.018965393027814158,973.735772550655,973.71421661991,973.75334389945,0.00016983251618130177,0.039127279540025484,0.012966656894492456,0.00040856793366389563,-1.249003029871249,0.37,0.63,-0.46954676777878446,Lift down
-0.9797021484344001,-0.98596191406,-0.97216796875,1.1112376895303623e-05,0.0033168137008807996,0.24613281249600008,0.23852539062,0.25415039062,2.146455976606397e-05,0.004609762918893263,-0.090332031246,-0.10607910156,-0.08068847656,4.89059120755652e-05,0.006958221967917491,1.0142133475900001,1.00788220452,1.02121559676,9.586356301113589e-06,0.003080664333890087,973.7542418066474,973.74086064184,973.76709098073,4.1092900383460646e-05,0.0262303388900591,0.00637824202893133,0.0001427828668207263,0.37952605292489405,0.41,0.59,-0.33837654462683514,Lift down
-0.9785253906212,-0.98950195312,-0.96850585937,2.4230696940351754e-05,0.004897794398599051,0.24485351562160002,0.22985839843,0.25842285156,6.434975249066742e-05,0.007981619820923616,-0.08328613281,-0.09289550781,-0.07421875,2.1186163931625822e-05,0.004579770986884558,1.0121696564232001,1.00276817202,1.02347580641,2.325220359204702e-05,0.004797883028599859,973.7592502854635,973.7527549357,973.76751796597,1.8959530301441603e-05,0.014763030270046329,0.004332428302745146,2.8588616952431513e-05,-1.0863277922722316,0.57,0.43,0.4296376726095595,Lift down
-0.9831152343720001,-1.00048828125,-0.97387695312,4.1147338024517615e-05,0.006382465404862954,0.24558105468360003,0.23400878906,0.25549316406,3.506198073975102e-05,0.0058916348267992235,-0.086699218746,-0.0966796875,-0.06823730468,5.110981490475064e-05,0.007113277497448215,1.0170675180332,1.00942412602,1.03530655975,4.250778579047493e-05,0.0064871186155773496,973.7606361322339,973.74807021643,973.77085250286,3.036058626257115e-05,0.022782286429901433,0.005482424682560212,3.6623073991865435e-05,-0.31790386099541745,0.48,0.52,-0.5528286703561691,Lift down
-0.9774462890595998,-0.98828125,-0.97119140625,1.8570495371191404e-05,0.0042877488752817005,0.2520068359332,0.24645996093,0.25866699218,1.0238849755980707e-05,0.0031837809689771214,-0.09447753905920003,-0.10290527343,-0.08154296875,3.725769543606672e-05,0.006073311986198803,1.0138458294944002,1.00770741291,1.02389345131,1.6908208061031926e-05,0.004091347697326836,973.7671451632891,973.74895224633,973.77512672173,3.9881245484033356e-05,0.026174475400011943,0.00628350483641041,0.00015431859530749007,1.313894155225415,0.44,0.56,-1.1031919943391197,Lift down
-0.7684423828084,-0.78076171875,-0.75805664062,6.582871832342667e-05,0.008072820519508184,0.6589160156211998,0.64196777343,0.67077636718,6.953475450350476e-05,0.008296951666634543,-0.1482373046836,-0.16186523437,-0.13171386718,4.61567291217359e-05,0.00675981965961508,1.0231397346931999,1.01625818908,1.03059084373,1.3230436670374077e-05,0.0036191341925480374,973.7380396403616,973.7230408542,973.74539552442,5.003497320091026e-05,0.02235467022001103,0.007038083792404092,-0.00010205288321435574,-0.6838869951486051,0.4,0.6,-0.7203763772269924,Lift up
-0.8008740234324,-0.81640625,-0.77490234375,0.0001753824889123846,0.013176822986716517,0.6857324218712,0.65173339843,0.71105957031,0.0002826381452466995,0.016727574952581516,-0.1511181640588,-0.1640625,-0.13500976562,6.451809047071102e-05,0.00799205290060094,1.0651568699403997,1.02473040442,1.08954975305,0.00042728392008744377,0.020567233185009824,973.7463478955136,973.71154737911,973.7698353546,0.0003648566335748583,0.058287975489975,0.019005474664925096,-0.0005312125737453106,-1.0516303157418663,0.44,0.56,-0.48142167455953166,Lift up
-0.7814990234336,-0.90344238281,-0.75817871093,0.0008750473369545197,0.029432921424571067,0.6695556640596,0.65380859375,0.69580078125,0.00012381871543304138,0.011071609109732468,-0.1433691406212,-0.19897460937,-0.12170410156,0.00017715839422975454,0.013243368540045127,1.0392447465127999,1.01785456147,1.14283312698,0.000742265082821147,0.027107977275941032,973.6126282522824,973.49900854909,973.94675146578,0.007531348595634037,0.44774291669000377,0.08634833588250382,-0.0008771704143739376,6.270647407853398,0.6,0.4,2.167998162543896,Lift up
-0.22903808593720001,-0.92260742187,0.45678710937,0.22416764259036556,0.47109018899194016,0.6768554687451999,0.22253417968,1.13073730468,0.06947583983626907,0.2622614753216842,-0.48536621093360005,-0.7490234375,-0.2470703125,0.017239303685072444,0.13064038674246842,0.9993558452867998,0.6432744691,1.3504766722,0.05579190085144974,0.23501910952715152,973.4414086868965,972.80847212737,974.38816534223,0.21122786697060583,1.579693214859958,0.4572915790837393,0.004838154476397856,-1.0589069448060857,0.56,0.44,0.28233326233756356,Lift up
-0.6718652343719999,-0.76147460937,-0.56665039062,0.004040832375156167,0.06324890553523124,0.7465869140583998,0.61926269531,0.89636230468,0.0055484368101709125,0.07411445501431689,-0.1669677734344,-0.45544433593,0.107421875,0.019192522221717287,0.13784265304868487,1.0313575865807996,0.93454437857,1.11372715235,0.0014834877404238638,0.038323006967350894,973.1600464466127,972.42826450874,974.71141584591,0.5078082589442439,2.283151337170011,0.7090346792328295,-0.018749984806633382,-0.30093874226810424,0.72,0.28,1.0984529105663559,Lift up
-0.7263574218711999,-0.74877929687,-0.70825195312,0.00012024691612781032,0.01091074914781438,0.7096289062464,0.69470214843,0.7294921875,0.00012324737779563407,0.011046035669763055,-0.12612792968440004,-0.14965820312,-0.10534667968,0.00011934689802222519,0.010869840341145905,1.0234294217368003,1.01408925954,1.03339945869,2.8257614318030738e-05,0.00528914342543766,972.9636887285238,972.88273589923,973.00381572252,0.0013332997998991743,0.12107982328996059,0.03633134737248514,-0.0009926516484057423,-0.30253527308665484,0.4,0.6,-0.9298151350818351,Lift up
-0.7215820312468,-0.73022460937,-0.7138671875,1.5818711482831238e-05,0.003957338040653455,0.7150830078088001,0.69384765625,0.72875976562,8.143256410522511e-05,0.008978765976690386,-0.13333984374560004,-0.14501953125,-0.11889648437,6.612830692479186e-05,0.00809116949862898,1.0246636476972,1.01347024194,1.03388404402,3.0307758307769015e-05,0.005477652848135899,972.7721994090374,972.67097768343,972.86765570434,0.003707913572590716,0.1966780209099852,0.060587411537916094,-0.002086782539064718,-1.0909055507366043,0.48,0.52,-0.08967344753126444,Lift up
-0.6956396484327999,-0.79858398437,-0.3251953125,0.00874236944927293,0.0930319609316078,0.7413525390583999,0.70654296875,0.93627929687,0.003352061281273097,0.057606776237352206,-0.17024902343440002,-0.33666992187,-0.13537597656,0.003034569663276,0.0548108015508188,1.0364144207312,0.88353736623,1.19377451791,0.003359289409570934,0.057668852212223065,972.5912234190059,971.92591108977,973.17462718156,0.07651583006635035,1.2487160917900155,0.2752283992717446,-0.0011768937645539627,1.792378917830514,0.56,0.44,-0.1401833389715881,Lift up
-0.046479492188399994,-0.64916992187,0.27282714843,0.08681084083591255,0.29315990931154523,0.9199560546832,0.66723632812,1.07470703125,0.011170516736756704,0.10516088421741773,-0.2397656249972,-0.59313964843,-0.12841796875,0.02013157435121517,0.14117456785024354,1.0077371487104,0.7895541595,1.17286661155,0.007439073119881611,0.0858177277063591,972.3172576468511,971.78841622521,973.03679527544,0.13107874650043042,1.248379050230028,0.36023320090661565,0.007661222385012147,-0.2582670795804538,0.56,0.44,0.7336627013049384,Lift up
-0.7111669921824,-0.84020996093,-0.54467773437,0.006451950314145307,0.0799214039604151,0.615556640622,0.41064453125,0.85925292968,0.013358945653706432,0.1150015486729173,-0.35976562499639997,-0.57336425781,-0.22082519531,0.007127388559191455,0.08400068257817635,1.0180302459244002,0.84735286574,1.13852877232,0.0044273672533867705,0.0662049362272399,972.3807938203937,971.11287864255,974.23430032093,0.9458741566473415,3.1214216783799884,0.9676855972271511,-0.026440647627998665,-0.83903801776902,0.6,0.4,0.5177568831780515,Lift up
-0.7517724609339999,-0.78283691406,-0.72265625,0.0004376258753889531,0.02081464908748316,0.5764501953096,0.55346679687,0.5986328125,0.0002048166352068074,0.014239679380335053,-0.2837841796832,-0.32604980468,-0.26965332031,0.00020581096109544366,0.014274202306415908,0.989128955884,0.96431249595,1.02082433583,0.0004583847475434014,0.021302603128912845,971.7970794794284,971.2243102001,971.97765424176,0.03802743870317418,0.7533440416599433,0.19402877187711734,0.006102810954076016,0.9614042641654783,0.4,0.6,-1.2107901892489916,Lift up
-0.7892578124959999,-0.79858398437,-0.77856445312,3.2123893208501016e-05,0.0056393842107464185,0.5929736328084,0.58618164062,0.60510253906,2.300243185226878e-05,0.004772044376757836,-0.2602929687456,-0.27685546875,-0.24426269531,5.921898465507319e-05,0.00765681361981095,1.0209808534684002,1.0138497316,1.02723897102,9.446546763429778e-06,0.003058117279601206,971.946692033032,971.9301661275,971.96461837602,9.289289176333244e-05,0.034452248519983186,0.009589784296098589,7.292770929377908e-05,-1.0921375765727555,0.44,0.56,-0.12917929851868995,Lift up
-0.7847656249959999,-0.80651855468,-0.77380371093,4.6282103568398834e-05,0.0067689942039209075,0.5993749999963999,0.59191894531,0.60949707031,2.0794097823939597e-05,0.004537197025223855,-0.25417968749799996,-0.26672363281,-0.23828125,4.1998131099269055e-05,0.006448112110399164,1.0196993318415997,1.00840135123,1.03612111307,3.641067154029649e-05,0.006003879148091967,971.9185511013691,971.84213719644,971.94275913528,0.00039405941936017727,0.10062193883993586,0.01975142590211085,-0.0005470986965304955,6.402756698939962,0.48,0.52,-2.23755340571791,Lift up
-0.451538085934,-0.86181640625,-0.095703125,0.0554745113002924,0.23434966649707328,0.8253027343716,0.60009765625,1.08703613281,0.0265396632568792,0.16209338858914143,-0.0347363281236,-0.37817382812,0.373046875,0.07831975315367662,0.278453866236653,1.0113847899703998,0.7483565882,1.33239993253,0.02227197368893354,0.14848991195378966,971.7585220066388,970.95448436676,972.45765799407,0.17829912451829347,1.5031736273100478,0.420138231149119,6.491797833493927e-05,-0.6728366165591915,0.56,0.44,0.04126181672205387,Lift up
-0.5308496093715999,-0.62219238281,-0.41955566406,0.00332230211503434,0.057350493405758915,0.7896728515583998,0.72827148437,0.91760253906,0.0036967920534248977,0.060496480334732275,0.35794921874719987,0.18469238281,0.49047851562,0.009784551244864118,0.09842106345907606,1.0245038720543997,0.9637370152,1.071809418,0.0005450389551171441,0.02322904573085112,971.8104191438777,971.65269254961,971.92558053324,0.005651048850639334,0.27288798362997113,0.07479664673053826,0.002377558014818168,-0.5275014774203823,0.36,0.64,-0.5709678826404653,Lift up
