avg_accX,min_accX,max_accX,var_accX,std_accX,avg_accY,min_accY,max_accY,var_accY,std_accY,avg_accZ,min_accZ,max_accZ,var_accZ,std_accZ,avg_magnitude,min_magnitude,max_magnitude,var_magnitude,std_magnitude,avg_pressure,min_pressure,max_pressure,var_pressure,range_pressure,std_pressure,slope_pressure,kurtosis_pressure,Pressure_below_avg,Pressure_above_avg,skew_pressure,Label
-0.7579003906208,-0.76342773437,-0.75244140625,9.168904230173808e-06,0.0030128417130463507,0.6859912109340001,0.67822265625,0.69738769531,1.9683837887231695e-05,0.004414408171925131,-0.06918457031,-0.07873535156,-0.05810546875,2.5260665200713182e-05,0.005000805789940862,1.0246090676176003,1.0189440633,1.03575455271,1.3413315118468339e-05,0.0036440611914845306,984.0307094221762,984.02729217672,984.0356625619,6.919937848432904e-06,0.008370385180000994,0.002617391539290325,3.648760669525562e-05,-1.109481184108879,0.47,0.53,0.3057817644027575,Lift down
-0.7603955078079998,-0.76501464843,-0.75366210937,8.562213242488358e-06,0.002911458588072905,0.6800976562459999,0.67175292968,0.68688964843,1.143792663249685e-05,0.003365047899536035,-0.06899414062159999,-0.08056640625,-0.05676269531,4.163896195699179e-05,0.0064204806936413936,1.0225183439804,1.01518810118,1.02924642131,1.1717879778534192e-05,0.003405980179147972,984.0315998506479,984.02547378893,984.03668694314,5.622322737648013e-06,0.0112131542100542,0.002359258254255251,1.6972920928368574e-05,0.7097100535036924,0.57,0.43,0.06559014122880591,Lift down
-0.7607861328091999,-0.77233886718,-0.74694824218,2.9844322588306898e-05,0.005435612142383214,0.6837011718712,0.67248535156,0.69360351562,2.988218057926531e-05,0.005439058629346871,-0.0664794921844,-0.07592773437,-0.05603027343,2.0662943521089813e-05,0.004522865693990803,1.0250414117008004,1.00796563071,1.03593230037,3.2368712949576274e-05,0.005660832608378427,984.0334797943549,984.02444883509,984.04155549989,1.688624265226696e-05,0.017106664800053295,0.004088689304134552,9.792443480210916e-05,0.3335892411814161,0.56,0.44,-0.2732942317759344,Lift down
-0.7338671874964001,-0.81005859375,-0.71130371093,0.0005126344796804283,0.022527941203838935,0.642485351558,0.6123046875,0.66247558593,0.00013054655053037204,0.01136842491399175,-0.06530273437119999,-0.08569335937,-0.03540039062,0.00016146173380937007,0.012643065944274608,0.9778665168120003,0.95894855036,1.02048424506,0.00018847939710640613,0.013659963511493803,984.0602544574929,984.03496900173,984.12763209101,0.000659526861260063,0.09266308927999489,0.025552526150020124,0.0008195266175063713,-0.1485858081089555,0.69,0.31,0.9855525348213539,Lift down
-0.8114599609344001,-0.98815917968,0.22436523437,0.09490349812837627,0.3065199229203422,0.4450976562472001,-0.06323242187,1.05773925781,0.0700242715407951,0.26329456664615614,-0.2512499999976,-0.65771484375,0.01159667968,0.03574715151919932,0.18812145014327133,1.0410772485612003,0.60928363604,1.49198036353,0.034880897777332664,0.1858281162783483,984.2273144421342,984.12763209101,984.39273297283,0.004539496145344906,0.2651008818199898,0.0670380577276181,0.0018404790428664197,-0.08250824297883241,0.61,0.39,0.6694855639924574,Lift down
0.1340234374964,-0.17126464843,0.25695800781,0.008949785424573253,0.09412910054986992,0.9280957031216,0.13049316406,1.11975097656,0.05330753263811872,0.22972691899674608,-0.32234863280880005,-0.67565917968,-0.20129394531,0.01264435199762439,0.11188345935681532,1.0168425970244002,0.58751336853,1.19088912121,0.023652871981782782,0.15302399570644126,984.3850488116359,984.22656770749,984.48977378002,0.004678562872759998,0.2632060725300107,0.06805716159253483,0.0022723034859286973,-0.23527769343091576,0.49,0.51,-0.6482063795838512,Lift down
0.1014404296856,-0.03833007812,0.220703125,0.007761024465030999,0.08765508667716146,1.0231152343712,0.96765136718,1.05981445312,0.0006973994861880447,0.02627594891390536,-0.20384765624719997,-0.24645996093,-0.11401367187,0.0014620633077787831,0.03804527138424689,1.0524306685748,0.99625334115,1.09491695412,0.0008280613757139729,0.02863181380836417,984.5433126163662,984.48977378002,984.57590405305,0.0006292395680209954,0.08613027302999399,0.02495890967852533,0.0008291183807323573,-0.5413380176093474,0.37,0.63,-0.6612812376242251,Lift down
0.145346679684,0.04064941406,0.26794433593,0.006488346957179404,0.08014651263534558,0.9790478515588,0.93395996093,1.03759765625,0.000673257798900364,0.025817149744140237,-0.21714843749799997,-0.25830078125,-0.14990234375,0.0005949679287965003,0.024269698175060504,1.0168756512240003,0.96721685515,1.06272819817,0.0004613270187672363,0.021370862139360777,984.5786275263723,984.57257948816,984.58424235249,1.3625004833816043e-05,0.011662864329991862,0.003672704015501097,6.093771142792336e-05,-1.1141744832270892,0.41,0.59,-0.47715918401236945,Lift down
0.40662597656079996,-0.18859863281,1.08325195312,0.19843187466854065,0.44322404709340313,0.5088427734360002,-0.31323242187,1.63195800781,0.39377298388504645,0.624367883580022,0.05718749999839999,-0.50073242187,0.62048339843,0.08854835577465817,0.2960791654556456,1.0065934754476002,0.46701458119,1.73837522617,0.08914274789804541,0.2970712379532306,984.5856698888562,984.51646414,984.6482680877,0.0015819386355674723,0.13180394769995019,0.03957422455603897,0.00030861969563285654,-1.2721835269338146,0.48,0.52,-0.25497156417826505,Lift down
0.7532519531211997,0.66284179687,0.83618164062,0.0035279156944947347,0.05909853244835939,0.31479003905919994,-0.11743164062,0.9267578125,0.06630925611957558,0.25621507285555983,-0.5488574218719998,-0.62963867187,-0.09265136718,0.014484449203663102,0.11974808855103479,1.0239985522575998,0.91031695244,1.16192464562,0.0026576897963479945,0.05129437491952226,984.5854929586083,984.56339070493,984.64853317547,0.00027590036810646885,0.0851424705399495,0.01652698897032984,-0.00011020684771078732,5.99892240301034,0.64,0.36,2.055591174229443,Lift up
0.34803710937239996,0.06066894531,0.73107910156,0.08863808689679967,0.2962291444605538,0.8847949218723999,0.54553222656,1.21337890625,0.03526665018057123,0.18685283963259836,-0.13315429687359998,-0.88671875,0.42370605468,0.10454651683082958,0.3217157933060192,1.0644327976596,0.77003726684,1.50669313793,0.015021727961238506,0.12194880352683302,984.5835203293996,984.53642638217,984.62768705873,0.0005257989297034461,0.09126067655995485,0.022815366321985973,9.629663035208656e-05,-0.11113465478985951,0.48,0.52,-0.06548897897325574,Lift up
0.10193359374760004,0.05078125,0.19653320312,0.0014101465301725737,0.037363686446479666,0.9808593749956,0.8408203125,1.0771484375,0.0036390056513223978,0.06002179266574078,-0.0044970703116,-0.27661132812,0.65979003906,0.11210719223992999,0.3331457943866779,1.0426010778176,0.9697403998,1.12733860794,0.0014783517223486997,0.03825660995338208,984.517159474933,984.42556868113,984.61608504965,0.0027499071763790995,0.19051636851997955,0.05217670078315904,-0.001519255500430014,-0.7022316389747836,0.64,0.36,0.13968924453600684,Lift up
0.016132812496,0.00256347656,0.03979492187,0.00010534570673639222,0.010212357693942584,0.9813134765584001,0.96472167968,1.00219726562,0.00010412018708332644,0.010152782141486794,-0.2901025390588,-0.31079101562,-0.2802734375,5.995398819605331e-05,0.007704183818815123,1.0235051677943998,1.00663219503,1.04232243003,0.00010079521826614505,0.009989357641184122,984.3039261796315,984.2027275834,984.40772012777,0.003898196813313146,0.20499254436992942,0.062122579189695715,-0.002144097620182276,-1.161474086886802,0.48,0.52,0.09856560882263098,Lift up
0.010639648433999999,0.00341796875,0.02392578125,3.577564702046342e-05,0.005951293183019871,0.987397460934,0.97875976562,0.99877929687,2.5593006244194872e-05,0.005033594757402797,-0.27854003905880004,-0.29345703125,-0.26049804687,5.199451638735007e-05,0.0071745781216372975,1.0260327516204004,1.01760706796,1.03274349957,2.073078324186441e-05,0.004530284252609958,984.0893954908737,983.98618541388,984.18422997136,0.003793456549750316,0.19804455747998873,0.061282313796500974,-0.002116474703619768,-1.25936965128013,0.48,0.52,-0.013475254637255685,Lift up
0.024423828122,-0.00073242187,0.04907226562,0.0002034781195543669,0.01419307360506607,0.9819726562459999,0.97302246093,0.99768066406,3.5326553117448904e-05,0.00591382174116488,-0.27720214843480007,-0.28662109375,-0.26867675781,1.8144713511844024e-05,0.0042383093771839716,1.0207484532247997,1.0114234508,1.036054646,3.517901209191164e-05,0.005901459308594149,983.8763907286166,983.77356137266,983.9775957237,0.003892817297833037,0.2040343510400362,0.06207969978064252,-0.0021423400794522082,-1.1897423612211226,0.56,0.44,0.03798232928118726,Lift up
0.06200683593320001,0.01794433593,0.13244628906,0.0016024527887113632,0.03982999197620117,0.9861523437468,0.95483398437,1.03686523437,0.0003286697407400401,0.018038376959489445,-0.2758056640584,-0.30395507812,-0.22595214843,0.00044770433444938637,0.021052963950591197,1.0268504510167997,0.99544499531,1.0783677657,0.00034671408816624576,0.018526924927914596,983.6604098775986,983.56909916466,983.76047633342,0.003921721412323287,0.19137716876002742,0.06230974400685702,-0.0021420329914940924,-1.2963765116793509,0.48,0.52,0.06710698174511363,Lift up
0.16161132812120002,0.04504394531,0.20080566406,0.0013112840266810183,0.03603014274762464,0.9765576171840001,0.9306640625,1.03430175781,0.0004593031334435072,0.0213239326135934,-0.2689404296836,-0.29602050781,-0.21960449218,0.0004273023027517172,0.020567675603339334,1.0265432192427997,0.96708983789,1.08700069003,0.0005019044136551626,0.02229092572143676,983.4364617960721,983.33184182368,983.56376985625,0.004610075044365961,0.23192803257006744,0.06755719276229809,-0.0023211256434599865,-0.908004793581918,0.52,0.48,0.1915410396483726,Lift up
0.11700195312240001,-0.08642578125,0.31066894531,0.010221202108152066,0.100593191057201,0.8761865234332,0.49255371093,1.04528808593,0.027829955948929928,0.16598691632005405,-0.3711230468715999,-0.86401367187,0.00708007812,0.0529827593309909,0.22902605034729343,1.0028231266992,0.86786382952,1.08869384617,0.003630254112323458,0.05994957523786323,983.2066242646986,983.05718423287,983.31977021529,0.005534252896152874,0.2625859824199779,0.07401966203105324,-0.0024477183611594506,-0.6653251292295876,0.56,0.44,-0.3402409599838687,Lift up
-0.5336962890607999,-1.15051269531,0.27478027343,0.2511680854420309,0.4986545944715747,0.6555224609344,0.32971191406,1.08996582031,0.05672901986838013,0.23698466125404893,-0.168994140622,-0.71325683593,0.08544921875,0.04410019065335114,0.20894781345306687,1.0352487250748001,0.79584340098,1.30426208618,0.020038227823244718,0.14084688688434782,983.1411452686717,983.09089918982,983.210826812,0.001021241178351947,0.11992762218005737,0.03179667854616937,2.6753470325044704e-05,-0.6920149343545154,0.64,0.36,0.6297651114725809,Lift up
-0.9642724609339999,-1.08813476562,-0.8701171875,0.0038926164548273787,0.06207809831397145,0.3019433593716,0.12805175781,0.48120117187,0.009067557219090973,0.09474640703952876,-0.11710449218439997,-0.26843261718,-0.00268554687,0.0074834133877865056,0.08607310412613595,1.0245216390692,0.92071642244,1.19118665954,0.005352722769812227,0.07279557364369145,983.1356152139929,983.10280938681,983.1737771283,0.00022015939498504103,0.0709677414899943,0.014763393953803123,-0.00011211289063045128,0.4341620009560292,0.6,0.4,0.3821241127496771,Lift up
-0.47889648437160004,-0.63098144531,0.07019042968,0.04786222188096793,0.21767774268895348,0.44611816405899984,0.05432128906,0.87329101562,0.05197387090816361,0.22683503300654856,-0.5377075195285999,-0.95190429687,0.56665039062,0.13770149648008806,0.3692214532164771,0.9741409391656001,0.81619925361,1.11786828939,0.0037416965919170545,0.060862793445568074,983.1333741559632,983.0893574671,983.21145346147,0.0015358950374281437,0.12209599437005636,0.038994051944544854,-0.0003726885353801044,-0.35707586160655014,0.72,0.28,1.034076544044688,Lift down
-0.6117797851518,-0.63134765625,-0.59802246093,6.626245348777756e-05,0.008099372133252045,0.4354711914025999,0.419921875,0.44934082031,6.23361570795478e-05,0.007855749200983463,-0.6390234374971998,-0.65063476562,-0.62609863281,5.229774147192482e-05,0.007195468300062587,0.9860535078695998,0.9672981735,1.00532021007,0.00013958054759761828,0.011755200641488094,983.1905099706881,983.1276402314,983.27182003137,0.0018863973054106425,0.14417979996994745,0.04321496653193817,0.0014844043010116235,-1.2177492099694853,0.54,0.46,0.23991211480154384,Lift down
-0.6450927734337999,-0.69274902343,-0.61462402343,0.0006170471509435837,0.024715919554694862,0.45931396484059994,0.43896484375,0.49548339843,0.0002851409442301599,0.016801474184959437,-0.6659667968711999,-0.70825195312,-0.642578125,0.000317212909137032,0.01772119578486908,1.0347423388834,0.99365241873,1.10771198274,0.0011528063521125936,0.033782810549027265,983.3952403929678,983.27182003137,983.51492152996,0.0051237449815656755,0.24310149859002195,0.07122153839780505,0.002459355084587058,-1.2324098477812235,0.46,0.54,-0.005656040009218442,Lift down
-0.7364038085889999,-0.84130859375,-0.65368652343,0.0019673824853196163,0.04413285239440592,0.34452148437139996,0.24829101562,0.42224121093,0.0017045594465529565,0.0410793604147804,-0.6462426757772,-0.72521972656,-0.57336425781,0.0018302662745979556,0.04256716588935627,1.040819905957,0.98933009705,1.09837547848,0.0007639676627406993,0.027501417892779496,983.5708248029637,983.53238543775,983.59383000666,0.0003153799710237854,0.06144456891001937,0.01766992278742461,-3.460601485841581e-05,-0.12264866225252424,0.48,0.52,-0.8421728939572953,Lift up
-0.7582666015592,-0.8046875,-0.70422363281,0.0006038251790314093,0.024449681536598697,0.21962158202739995,0.05004882812,0.39489746093,0.0061427095983301655,0.07798257819761324,-0.7000634765594,-0.76135253906,-0.6298828125,0.0010247602848150084,0.0318514156980009,1.0585079379252,1.02824876179,1.11556386005,0.0005507848538628325,0.023351167108395333,983.5125386286021,983.41499447024,983.65225940833,0.005347727116793375,0.23726493808999294,0.072761595952985,-0.0023371046993232855,-1.1814506512449852,0.54,0.46,0.33001014651218913,Lift up
-0.719790039058,-0.7353515625,-0.71228027343,3.837530059629251e-05,0.0061637283838866215,0.24302734374640003,0.22912597656,0.25268554687,3.6072634669613125e-05,0.005975944136529139,-0.6817944335892,-0.69055175781,-0.66748046875,3.860141893353592e-05,0.006181860945071521,1.0208141012982,1.00654617861,1.03611728034,5.4676024942762356e-05,0.00735725931942967,983.3019667756066,983.18671075545,983.41499447024,0.0050472927030655815,0.22828371478999543,0.07068818696242622,-0.002439530961111901,-1.2638181192482092,0.5,0.5,-0.03606614251406589,Lift up
-0.7159045410114999,-0.720703125,-0.70983886718,8.926757359081076e-06,0.002972791581239806,0.26023315429259997,0.23889160156,0.26843261718,5.2036677633974054e-05,0.007177486388537028,-0.679816894528,-0.69592285156,-0.66174316406,6.795345532264354e-05,0.008202068078808973,1.0210185965749,1.00974376219,1.03162946366,3.7231729120254274e-05,0.006071195255388491,983.0611911905158,982.94273068226,983.18671075545,0.005393971436861542,0.2439800731899595,0.073075520678904,-0.002522540051372503,-1.264152268668766,0.5,0.5,-0.005308922970982036,Lift up
-0.7182165527309,-0.72521972656,-0.70861816406,2.2723715421022007e-05,0.004743045252452457,0.25388549804300004,0.24560546875,0.2607421875,1.2338479058939771e-05,0.0034950099096211977,-0.6789978027306001,-0.68957519531,-0.67016601562,3.0419855100009655e-05,0.005487773368954804,1.0204817448038002,1.01458935386,1.03160543529,1.2843028825159049e-05,0.003565753572094889,982.8105089968204,982.69517513281,982.94273068226,0.0051292801108079,0.24755554944999858,0.07125999796309161,-0.002460020428165724,-1.2004450206583763,0.5,0.5,0.014492716976519899,Lift up
-0.721701660153,-0.7265625,-0.71435546875,1.2312085943738535e-05,0.0034912698383684337,0.25130249023039997,0.24560546875,0.25891113281,1.2471535890752036e-05,0.0035138042819491976,-0.6756042480422999,-0.68957519531,-0.66943359375,2.3399150440251667e-05,0.004813019731504241,1.0200319077179,1.01187955837,1.03340265982,3.023840426130397e-05,0.005471381929521182,982.5661563263301,982.44722990958,982.69517513281,0.0051482167046007655,0.24794522323009005,0.07139141781443172,-0.0024661270643205322,-1.1836760376412057,0.5,0.5,-0.011131283770522011,Lift up
-0.6817578124957998,-0.72570800781,-0.65283203125,0.0006836080551234343,0.02601484142892668,0.24620849609060003,0.22399902343,0.26062011718,9.621538899470129e-05,0.009759776386001591,-0.6521728515587999,-0.68505859375,-0.62219238281,0.0005482844632208856,0.02329810332599366,0.9750803318068,0.93295875405,1.02763210354,0.001287818292381019,0.035706303497522796,982.322973858123,982.23178386487,982.44722990958,0.004229148289983686,0.2154460447100064,0.06470592559483133,-0.00222642791280109,-1.2388095708306668,0.5,0.5,0.17485625225906926,Lift up
-0.7250610351518,-0.73205566406,-0.72045898437,7.4504300820589945e-06,0.002715865567593213,0.7285302734339,0.71496582031,0.73974609375,4.736199523557894e-05,0.006847508691723082,-0.0087341308558,-0.02136230468,0.00170898437,3.850230512863946e-05,0.006173919506873495,1.0278968633451,1.01821696313,1.03477347872,2.1685963350479954e-05,0.0046334764180877355,982.228770308932,982.22420587965,982.23390409612,6.932023343538877e-06,0.009698216470042098,0.002619676146034751,6.0487127440732e-05,-0.274210382702996,0.29,0.71,-0.20817476356393844,Lift down
-0.7242675781208,-0.73413085937,-0.71423339843,3.151700953895399e-05,0.0055858606716928105,0.7290954589808,0.71899414062,0.74426269531,3.806249510400715e-05,0.0061385560315897645,-0.013958740230099999,-0.021484375,-0.00463867187,1.657953617222472e-05,0.004051387516703688,1.0278187796173002,1.02167264177,1.03417875093,1.2538555418267718e-05,0.0035232328711121324,982.2304172244072,982.22684611214,982.23351804598,3.343422186923247e-06,0.006671933839925259,0.0018193372323607338,-1.1184336403173001e-05,-0.8638708538369135,0.6,0.4,0.18230472951001625,Lift down
-0.6987792968711,-0.7275390625,-0.67810058593,0.00032164532733238387,0.01784457547993395,0.7030578613246,0.67358398437,0.74572753906,0.0004457221413482194,0.021006306670491536,-0.0070446777308999994,-0.01586914062,0.00366210937,1.9846027238248975e-05,0.004432557609988446,0.9913081814057,0.95625799431,1.03893923924,0.0007271923528085336,0.026831332976213616,982.2320571795467,982.22591867588,982.25933357646,5.240062865308943e-05,0.033414900579941786,0.007202542770894078,0.000158810038689381,4.923476582107723,0.65,0.35,2.1911054233769462,Lift down
-0.7127624511688998,-0.73107910156,-0.67712402343,0.0003524571280873674,0.018679736529365016,0.7141064453091,0.68725585937,0.73229980468,0.00020404172665061597,0.014212716467449487,-0.0062475585925,-0.01708984375,0.00341796875,3.660398899616588e-05,0.006019796433950589,1.0089982917905003,0.96540564418,1.03485262754,0.0005323010060941702,0.022956001307571586,982.345550476812,982.25913463921,982.44757348516,0.0032505535007247895,0.18843884595003146,0.05672784118682414,0.0019559997933271287,-1.148143446437645,0.53,0.47,0.13882998943419184,Lift down
-0.7261425781227999,-0.73327636718,-0.7177734375,1.5833257421907547e-05,0.003959157088028773,0.7277026367153,0.7119140625,0.73474121093,2.164498122180311e-05,0.0046290961763161805,-0.0075341796850999995,-0.02014160156,0.00512695312,4.852422557296058e-05,0.006931016037871429,1.0280853173678999,1.0142618862,1.03609468639,1.6826019829443986e-05,0.004081391874244562,982.5575760047957,982.44757348516,982.6609867512,0.004138517678969145,0.21341326603999278,0.06400884706178868,0.0022099927995183483,-1.2316044010435847,0.45,0.55,-0.034602492420679684,Lift down
-0.7263769531212998,-0.73168945312,-0.71997070312,6.326063717133741e-06,0.002502559305983058,0.7319421386682998,0.72570800781,0.74047851562,1.628388509077521e-05,0.004015102270162923,-0.0055261230448,-0.01916503906,0.00256347656,3.639942917060796e-05,0.006002952180294449,1.0312343320423003,1.02648154945,1.03783095665,7.557699114743629e-06,0.002735346801339127,982.7757650704146,982.6609867512,982.88578318605,0.004134434150576909,0.22479643485007728,0.06397726009349838,0.002207612481483652,-1.2619763253789056,0.53,0.47,0.03433024244121428,Lift down
-0.7200439453079,-0.73156738281,-0.70288085937,8.445857752313416e-05,0.009144068664872482,0.7326013183558999,0.72619628906,0.7490234375,2.8286454353990378e-05,0.005291841816461493,-0.0087060546848,-0.01818847656,0.00659179687,4.3661570283884746e-05,0.0065745687752921025,1.0272401757017002,1.01346438274,1.03356146412,2.2547200299970077e-05,0.004724587632478667,982.9958364820294,982.88578318605,983.10153206242,0.003953757602855224,0.21574887636995754,0.06256372772483007,0.002161029416967076,-1.2212038304105448,0.53,0.47,0.002699144476748782,Lift down
-0.7177050781219999,-0.72900390625,-0.68322753906,8.295531224789892e-05,0.009062326363876988,0.7328808593707998,0.70764160156,0.75720214843,9.569770156636974e-05,0.009733484707477895,-0.0161376953096,-0.02807617187,0.00256347656,5.88219575077632e-05,0.007631103323418283,1.0260022298416005,1.01510059316,1.03920397835,3.01848371226888e-05,0.005466533522394417,983.2139244521672,983.10153206242,983.32254025109,0.004030500241372666,0.22100818866999816,0.06316799220300531,0.002180883963692448,-1.234153035336394,0.53,0.47,-0.01550208308880036,Lift down
-0.7023291015587999,-0.73278808593,-0.66235351562,0.0002489428568332436,0.015698835251855826,0.7454394531207998,0.68981933593,0.79296875,0.0005746620833543659,0.023851948820187048,-0.018623046872,-0.056640625,0.02307128906,0.00036837004648510984,0.01909676271047684,1.0248139306976,0.99798689062,1.05132574559,0.0002317431567761089,0.015146805775751792,983.429516222377,983.32254025109,983.53474534319,0.0037955885369525444,0.21220509210002092,0.06129953222972439,0.002116772491963828,-1.2025253164254632,0.53,0.47,0.0617893035015743,Lift down
-0.7371386718711999,-0.79357910156,-0.6806640625,0.0009915779094870905,0.03133148784198126,0.7072753906215999,0.66284179687,0.736328125,0.0005605678366333255,0.02355763481903462,-0.035883789058400006,-0.07482910156,0.00817871093,0.00048523657246656905,0.02191766882544545,1.0228128662079998,0.96027179081,1.07244519257,0.0007781770497340227,0.02775599537463361,983.6498219815453,983.53474534319,983.74971662607,0.003545945130623025,0.21497128288001477,0.05924935172064581,0.00202465298648508,-0.8770069257366879,0.45,0.55,-0.12549021482611514,Lift down
-0.7474698153370707,-0.77697753906,-0.71862792968,0.00012470928327655743,0.011110787260428093,0.7017329052198988,0.68176269531,0.73596191406,0.00016739232175407224,0.01287250908802176,-0.03249659682434343,-0.05554199218,-0.02014160156,8.415180586736655e-05,0.009126981298670555,1.025922796112626,1.01185073138,1.04204193825,5.161456039491303e-05,0.007147950839156969,983.8666396003157,983.74971662607,983.97408920347,0.00427296804999381,0.22437257740000405,0.06503696453986402,0.002268081655712822,-1.1842936536774655,0.45,0.55,-0.005934327072485398,Lift down
-0.7392819848345544,-0.74963378906,-0.70092773437,0.00011510909193967283,0.010675645084025232,0.6772448851300988,0.54138183593,0.77014160156,0.0023614953444816276,0.04835405052792431,0.03314994585188119,-0.01843261718,0.07507324218,0.0006341667221368545,0.025057690310558472,1.0041340374332675,0.91785938341,1.07217399191,0.001103134886973499,0.03304864232278994,984.090752622367,983.97408920347,984.19274666137,0.003916602476747854,0.218657457900008,0.062272178654707556,0.00212388333839198,-1.0979703786755506,0.5,0.5,-0.02718468641546904,Lift down
-0.7442395019495999,-0.75769042968,-0.72802734375,5.204469717672381e-05,0.007178039440192327,0.6996350097621999,0.68188476562,0.72265625,0.0001143009659669513,0.010637572857907097,0.0363256835901,0.01086425781,0.05822753906,0.00031930484558046385,0.017779533096362776,1.0223173070892,1.00597642384,1.04041552826,4.975360222945072e-05,0.00701826660986573,984.3152115014207,984.19274666137,984.41668608656,0.004381638617457404,0.22393942518999665,0.06586214566260978,0.0022726132864053596,-1.2787289896723708,0.49,0.51,-0.01779867267044148,Lift down
-0.6335095214810998,-0.74584960937,-0.46435546875,0.0046342136567042135,0.06773382847689308,0.7999658203093,0.72265625,0.85900878906,0.0011475702970059171,0.0337060023443282,0.039342041014099986,-0.05493164062,0.21020507812,0.005277170464767072,0.07228000249114137,1.0244210052170997,0.89935753196,1.07943226161,0.0021882800807916194,0.046544573045455076,984.5414149876211,984.41668608656,984.6284241554,0.003667630501760172,0.2117380688399635,0.06025739951858668,0.0018132105602599328,-1.1592501519343579,0.45,0.55,-0.3342299016265026,Lift down
-0.6534863281212,-0.68103027343,-0.63439941406,0.00014699213430648478,0.01206325880363262,0.7883154296836,0.64685058593,0.92333984375,0.003008175763271344,0.05457191590588176,0.0064746093764,-0.07592773437,0.13928222656,0.0023104078598549078,0.04782576482667432,1.0259363179191998,0.94003726619,1.12890151131,0.0014071816768439292,0.037324386935025336,984.7526359076165,984.6284241554,984.86575818285,0.004532544645939917,0.23733402744994692,0.06698670912562073,0.0023053833848502106,-1.2464308707398108,0.49,0.51,-0.09771486605014472,Lift down
-0.6514892578091999,-0.67419433593,-0.63891601562,9.176586611897789e-05,0.009531432602593804,0.8024511718712,0.77575683593,0.84240722656,0.00020142723818425558,0.014121365578527207,0.05267578124599998,0.03002929687,0.09020996093,0.00011423515549678424,0.01063451004709744,1.0350556817011998,1.01014230958,1.06452257122,0.00020602420563083315,0.014281595274146542,984.965965871637,984.86575818285,985.08191407937,0.004346174787911907,0.21615589652003564,0.06559506871734176,0.002264586514318788,-1.2057822633794368,0.49,0.51,0.09082649318272715,Lift down
-0.6706787109332,-0.68835449218,-0.64587402343,0.00011689494354205134,0.010757601689346507,0.8227783203083999,0.78955078125,0.84448242187,0.00020514835010557728,0.01425120579475721,0.05773925780959999,0.04296875,0.07373046875,5.1866878172693724e-05,0.007165766490122797,1.0631029268988,1.02183720638,1.09124369246,0.0002931893454972146,0.017036943741241928,985.1605349395248,985.08191407937,985.21018204129,0.0015174337231878862,0.12826796191995982,0.03875899103377186,0.0012998854374073497,-0.9188039477087973,0.41,0.59,-0.6043556562713632,Lift down
-0.6471777343703998,-0.65563964843,-0.63098144531,3.6506604666939904e-05,0.006011783314480863,0.7934667968715999,0.78002929687,0.80212402343,3.449955371502426e-05,0.005844190121639953,0.06389648437159998,0.05456542968,0.07006835937,1.554908174858842e-05,0.003923466698100359,1.0259388058675998,1.0066416911,1.03377571897,4.706527376249647e-05,0.0068260252727975965,985.2159654778181,985.20766086417,985.22665914006,3.118152509025371e-05,0.018998275889998695,0.005556051641170299,0.00016226754996950782,-1.2023773688150639,0.57,0.43,-0.0381078462782545,Lift down
-0.6486669921839998,-0.66955566406,-0.63391113281,6.523797006527187e-05,0.008036516058878944,0.7940087890583999,0.78356933593,0.80456542968,3.059237894677536e-05,0.005503313107329767,0.06256835937199999,0.05517578125,0.06970214843,1.6755624241827457e-05,0.004072845197083874,1.0272239036360002,1.01814370719,1.04558524349,5.670238103223193e-05,0.007492353249941543,985.2289082853898,985.22302216621,985.23786075905,1.0131354107244595e-05,0.01483859284007849,0.0031670239288916257,6.920227886934157e-05,0.455071237166516,0.53,0.47,0.3842148719837547,Lift down
-0.6470019531215999,-0.65930175781,-0.63342285156,5.9230496182335074e-05,0.007657557784340365,0.7901855468715999,0.77966308593,0.80529785156,4.03481300420415e-05,0.0063201779042698705,0.05808593749640001,0.04345703125,0.06896972656,4.930409517953559e-05,0.0069864908378770695,1.0229876867524,1.01487989236,1.03212414163,2.2513746493409157e-05,0.004721081341014478,985.2343933901554,985.22891903642,985.23995437258,8.126581288579218e-06,0.011035336159920917,0.0028364265327509236,-6.039022842990744e-06,-0.4109059962545669,0.59,0.41,0.251142216628864,Lift down
-0.6246582031212001,-0.85668945312,-0.41955566406,0.014675685853588444,0.12053600704790482,0.7890869140595999,0.62365722656,1.0703125,0.017331011367773385,0.1309874087616655,0.22173828124640005,0.080078125,0.33923339843,0.006982201421964231,0.08314072051494736,1.0381026708216003,0.78747462087,1.31338792239,0.023197725784658944,0.15154454304531179,985.1607344412428,985.10302631739,985.19912651595,0.0007016070606132708,0.09610019855995233,0.026355094194617065,-0.0007824119311328353,-0.1319781825851516,0.56,0.44,-0.60607598724743,Stairs up
-0.6290820312459999,-0.87219238281,-0.40185546875,0.015050174106190231,0.12206421410523369,0.7732275390583999,0.60095214843,1.02819824218,0.016132859894696885,0.12637852387075074,0.22916015624640007,0.04943847656,0.40002441406,0.010914651456624125,0.10394953074477,1.0310770497952,0.7965067031,1.28252195397,0.02494568928844371,0.15715034965140637,985.0899475441096,985.0501522513,985.1776805058,0.001028125316904152,0.12752825450002092,0.03190366849964296,-0.0009077515609034856,0.21805418583220382,0.56,0.44,0.7915069850577064,Stairs up
-0.7067187499959999,-1.04724121093,-0.43334960937,0.02908096419435091,0.16967661757710578,0.7453857421832,0.51916503906,1.00183105468,0.017071581849910818,0.13000333084737373,0.107226562496,0.00695800781,0.25036621093,0.004580840919916721,0.0673426500125853,1.0420613446076,0.7618032653,1.34943432921,0.03119498901170174,0.17573570815740527,985.0164636939991,984.93431340437,985.09231399527,0.0017960163886084793,0.15800059090008745,0.0421670039808663,-0.0008789961116374864,-0.8708430151451663,0.56,0.44,0.1066517340118719,Stairs up
-0.7340087890583998,-0.99255371093,-0.40698242187,0.02065823415316552,0.14300927176807057,0.7081103515575998,0.26025390625,1.01403808593,0.033314413108893964,0.18160745848616744,0.11062011718559997,-0.03601074218,0.26965332031,0.007619967363986199,0.08685486566880601,1.0360273987476,0.61275549542,1.3460284644,0.0404544446988698,0.20012471174715307,984.9351491550747,984.87514301974,984.99437610372,0.0019072364800890146,0.11923308398002064,0.04345301042837107,-0.000899572632886335,-1.5736653550981499,0.52,0.48,-0.03363106328675679,Stairs up
-0.7658935546824001,-1.09240722656,-0.48474121093,0.020177432985037245,0.14133527038636487,0.6829736328079999,0.44116210937,0.93249511718,0.017189756691902747,0.13045251674453706,0.09697265624559998,0.00305175781,0.18127441406,0.002501947711269916,0.049768747564683774,1.0417449604996,0.79462457294,1.2635774297,0.01685606017058185,0.12918010515894476,984.8453089692489,984.78950806223,984.91249855212,0.0009600637251341811,0.12299048989007133,0.030829581377028775,-0.0007549661464373145,-0.4931458741165735,0.56,0.44,0.18163037207709964,Stairs up
-0.8251171874971999,-1.16552734375,-0.53063964843,0.02664986268475524,0.16242956645237863,0.5487402343712,0.33459472656,0.75927734375,0.013552307504821495,0.11583084403462353,0.08688476562320002,-0.06799316406,0.27587890625,0.010523797622485094,0.10207134586288281,1.0069189828360001,0.72784404122,1.34129573453,0.02607681874325852,0.1606737394717193,984.7580649911941,984.70873113865,984.82560653542,0.0011881810951813057,0.11687539676995584,0.03429721977405009,-0.0003455944707262589,-1.1723639242098238,0.52,0.48,0.040941846121073995,Stairs up
-0.8085253906219999,-1.07214355468,-0.45324707031,0.029606256918469655,0.17120220310873618,0.5854638671839999,0.36853027343,0.93701171875,0.01851436624623938,0.13538545927749032,0.043334960935200006,-0.07775878906,0.14685058593,0.004953514445555852,0.07002841781091654,1.0126880315532,0.73861749248,1.25914331486,0.025621730182154873,0.1592655420369809,984.7032011579539,984.59875454906,984.82560653542,0.0029755636199834947,0.22685198635997494,0.05427529809944539,-0.0011074727897921125,0.1287615144111176,0.4,0.6,-0.17138831773125943,Stairs up
-0.8669873046827999,-1.25988769531,-0.59289550781,0.038661820575499176,0.19564049266382505,0.5324560546831999,0.23461914062,0.89636230468,0.016867405621685625,0.1292235720194608,0.011928710936,-0.13977050781,0.22875976562,0.0068322125343899375,0.08224287451838025,1.0327634695704002,0.77978977113,1.42262254179,0.030763809152939508,0.17451696496733524,984.4984651461599,984.4590888629,984.55728467927,0.0007656056779469344,0.0981958163699801,0.027530884859870833,-0.0004649791614273171,-0.9463718512068584,0.48,0.52,0.12926592240896384,Stairs up
-0.6982812499959999,-1.05578613281,-0.16943359375,0.06336584442770063,0.2504639414834471,0.7805712890588,0.18469238281,1.33850097656,0.07491797158251055,0.2723394790820557,0.1012695312468,-0.14758300781,0.27233886718,0.012125818415878318,0.10956532403876482,1.0785921280008004,0.55638794099,1.60518346233,0.09362456450145314,0.3044475633938275,984.4404923358376,984.33143796764,984.5440439689,0.003437370069831846,0.21260600126004192,0.058335206943436205,-0.0007239421407642707,-1.1784995937517122,0.56,0.44,-0.04617658338130908,Stairs up
-0.7733789062456,-1.18054199218,-0.45825195312,0.039902761873307546,0.1987554634584279,0.6618066406212,0.365234375,1.04565429687,0.029999953471743297,0.1723367457538463,0.0020947265632,-0.07312011718,0.13732910156,0.003296324315409685,0.05712583541844783,1.0315136915704002,0.59740771941,1.3819166881,0.04500394287292935,0.2110779558461756,984.3388028205134,984.28444728612,984.43741661301,0.00125581172429355,0.15296932689000187,0.03525980157418097,-0.0005812442972671163,0.8060265875918304,0.56,0.44,0.7930440069420682,Stairs up
-0.9578515624968,-1.18542480468,-0.77661132812,0.014865358092486786,0.12131242521506987,0.44651367187159996,0.31457519531,0.63989257812,0.011078085176801322,0.10472489830519441,-0.04217285156159999,-0.12841796875,0.12756347656,0.00650291866688941,0.0802364597936656,1.0649146786344001,0.87799896883,1.28351440021,0.016880050403106143,0.12927199967152622,984.2919443182004,984.22974929802,984.37597337773,0.0014620918564269968,0.1462240797100094,0.0380456428236234,-0.001120554162460937,-0.5678971453503161,0.52,0.48,0.35742338851478694,Stairs up
-1.0009228515588,-1.19763183593,-0.71826171875,0.020667533778247926,0.14304145706914986,0.369687499996,0.20812988281,0.50915527343,0.007260915149162924,0.08478387817074243,0.018081054686400005,-0.23889160156,0.19250488281,0.013911067017921263,0.11735397883217275,1.0775310585216,0.81507528678,1.2819346134,0.01938410673882476,0.13852893441962408,984.1996422629807,984.13227475416,984.27305812289,0.0013310602048472824,0.14078336873001263,0.03630082096590667,-0.0004309739902498541,-0.42002372890860373,0.48,0.52,0.13821649268506667,Stairs up
-0.9701831054649999,-1.17932128906,-0.72827148437,0.01437154701875576,0.11928047429721346,0.3667041015594,0.21423339843,0.50366210937,0.008645362902023045,0.09251437333194672,-0.058552246093500016,-0.28649902343,0.08752441406,0.010847357853981096,0.10362858811853651,1.0478091424666,0.83228516621,1.26545124274,0.014926411933518702,0.12156129241737895,984.14134902672,984.08594094138,984.18712058104,0.0008891557011637878,0.10117963965990384,0.02966924576311555,-0.0006713883299404782,-1.1254034958117871,0.52,0.48,-0.1661745555017226,Stairs up
0.2864953613247,0.27844238281,0.30261230468,4.5431218660258356e-05,0.006706482421780868,0.9618383789031,0.95092773437,0.97668457031,2.9195673538013063e-05,0.005376217704170185,-0.2040588378872,-0.22119140625,-0.17626953125,9.471701099976158e-05,0.009683482890456509,1.0243020008361,1.01552203463,1.03788626213,2.7115630776370417e-05,0.005181165358160914,984.0303507915646,984.02676400545,984.03464821432,6.1043030010247295e-06,0.007884208869995746,0.002458304287718362,-3.3819710524342666e-05,-1.1665157807923487,0.48,0.52,0.060655873241302866,Lift up
-0.024866943361100003,-0.63391113281,0.31945800781,0.11110625462350693,0.33165523074010433,0.8793981933545,0.48754882812,1.09436035156,0.019955611426268054,0.14055623540777326,-0.4679370117155999,-0.78540039062,-0.20092773437,0.027897149691717648,0.16618717819013737,1.0644448462962999,0.80067686935,1.39004695858,0.017425443495679295,0.13134378196444058,984.0631208372159,984.01448210006,984.15523747998,0.0016440378746074907,0.1407553799199377,0.04034349384797276,0.00038362805647155953,0.514973641178043,0.76,0.24,1.3100724094839735,Lift up
-0.5194775390579999,-0.55212402343,-0.49035644531,0.00027865843336556976,0.01660939038712481,0.8194458007771002,0.7626953125,0.916015625,0.0012190593312454802,0.034740016377846246,-0.39762573241739985,-0.44775390625,-0.37927246093,0.000392749265892399,0.019718564177786245,1.0490318044445004,1.00571113901,1.13494735024,0.0008670633372613843,0.029298339609758955,983.9559931128293,983.87307640816,984.01393753998,0.002308728911686385,0.14086113181997462,0.04780838443797825,-0.0016219082943010146,-1.3098841506100638,0.44,0.56,-0.3634713452034277,Lift up
-0.5493188476522998,-0.57153320312,-0.52685546875,0.00013495574695601435,0.011558814363352939,0.7836364746057999,0.76977539062,0.80029296875,5.538426716563538e-05,0.007404756882840856,-0.3731127929649999,-0.38024902343,-0.36022949218,2.1075184901520704e-05,0.004567760178961402,1.0272477250346999,1.01949033253,1.03583551828,2.211055933167176e-05,0.004678616647937192,983.7585413894241,983.65986861215,983.86339532391,0.004009347385853836,0.20352671175999149,0.06300201514233729,-0.002176293778336391,-1.217853229792819,0.52,0.48,0.008886050585342972,Lift up
-0.5470812988247998,-0.580078125,-0.53308105468,0.00013017585032098103,0.011352272539794454,0.7840734863254,0.76965332031,0.79907226562,3.123212793664825e-05,0.0055605581246203845,-0.3783496093717,-0.38586425781,-0.37145996093,1.9351135605962462e-05,0.004376942340253391,1.0282815663963003,1.0161055455,1.03955259452,3.3917299496659685e-05,0.005794663622825149,983.5436304595552,983.44069393243,983.65000142436,0.00402793077096784,0.20930749192996245,0.06314785398774975,-0.002179962107824487,-1.1849545113341753,0.52,0.48,-0.023094743580500916,Lift up
-0.36370605468399986,-0.6484375,-0.01232910156,0.05667272736346042,0.2368670515074349,0.7803173828088,0.4716796875,0.94689941406,0.014853702506494941,0.12126485674518397,-0.44688964843359996,-0.70300292968,-0.26000976562,0.014791897956729427,0.1210123091968835,1.0095820406608,0.81631955685,1.19365768325,0.007158502756729982,0.08418383294411512,983.3198560064735,983.15451612715,983.43840069494,0.009535850286169168,0.2838845677899826,0.09716219317876412,-0.003020494725392803,-1.2707327309083367,0.32,0.68,-0.577897732653798,Lift up
-0.44243164062199997,-0.953125,0.09069824218,0.11916952301697492,0.3434790063261584,0.7915380859324,0.56176757812,1.06091308593,0.02007398403045256,0.14097249444536347,-0.20264648437039995,-0.263671875,-0.10876464843,0.002140819328046349,0.04603706262095667,0.9959560564455998,0.74411968892,1.21684972853,0.011500921694247376,0.10670479125749181,983.1170080360099,983.00625954825,983.18609099246,0.002968920312322127,0.17983144420998087,0.05421467614215643,-0.001494015474520926,-0.81153892764309,0.4,0.6,-0.7340657446975165,Lift up
-0.0801379394524,-0.51965332031,0.3046875,0.08363756130698152,0.28775195167698114,0.9111328124963001,0.68737792968,1.13500976562,0.013631946510902345,0.11617068066338133,-0.34369995116819985,-0.4677734375,-0.19274902343,0.006251085916978443,0.07866749683197412,1.0207314483924,0.74657618318,1.22839149248,0.01662197590363056,0.1282799912090512,982.8681791882499,982.75032586396,983.00625954825,0.005434242473035923,0.2559336842899711,0.07334780193233853,-0.0024257448505889618,-0.9296712400820826,0.56,0.44,0.36069090159692146,Lift up
0.17044921874539998,0.13366699218,0.29150390625,0.0012642852225637163,0.03537855805905717,0.9751696777304,0.89379882812,1.0234375,0.0010406007956540177,0.03209664760839483,-0.28114868163670004,-0.34045410156,-0.2255859375,0.0012516448759519669,0.03520125604566472,1.0305181076806,0.96180274435,1.06287795244,0.0006129424745035005,0.024633575659218976,982.6584204541568,982.5415030965,982.75032586396,0.003919396423377478,0.20882276745999206,0.06229127113122435,-0.002002468381440208,-1.2094212826567587,0.4,0.6,-0.40608684294824615,Lift up
0.14310424804290003,0.12915039062,0.1494140625,3.084200048433656e-05,0.005525719905993534,0.9790380859330999,0.94213867187,0.99475097656,0.00017045485853379547,0.012990392986682793,-0.2170617675743,-0.2421875,-0.19384765625,0.00017402360381752632,0.013125675898000493,1.0130690910997002,0.97298764324,1.02960914782,0.00017453977470566648,0.01314512749875823,982.4381806040558,982.32915059063,982.5415030965,0.0038995378660733842,0.21235250587005794,0.062133263936579496,-0.0021445821337911486,-1.1853311843736065,0.48,0.52,-0.09555459739717119,Lift up
0.129002685543,0.12133789062,0.13659667968,1.1430935124168472e-05,0.003364019288429659,0.9523034667929999,0.93859863281,0.97961425781,9.192597234378531e-05,0.009539743844587624,-0.23514648437010002,-0.25866699218,-0.20104980468,0.00029655083261965803,0.017134331743416824,0.9894804665327003,0.97192752303,1.01883856675,0.00014320188757414995,0.011906715277456181,982.2575428323557,982.21416297493,982.32915059063,0.001203224288488986,0.11498761569998805,0.034513650134462684,-0.0011588989616920196,-0.9328818665844341,0.56,0.44,0.5920537063190678,Lift up
0.13435913085490003,0.12133789062,0.14440917968,3.445210330440516e-05,0.005840169712547839,0.9872473144484999,0.97583007812,1.00280761718,4.597217597407748e-05,0.0067462918862391886,-0.23605102538560008,-0.26403808593,-0.21752929687,0.0001167190962923584,0.010749507213330052,1.0240052967134,1.01542004938,1.03794940326,3.843107527909178e-05,0.006168205940652506,982.2155966636439,982.20983514559,982.22359915105,1.2381887900031965e-05,0.013764005460075168,0.003501152527530277,-8.465282859647674e-05,0.13383264329041955,0.44,0.56,0.5037019278761393,Lift up
0.30062988280860004,0.14367675781,0.53662109375,0.014705811221133567,0.12065965816677185,0.8094787597614002,0.55908203125,1.06262207031,0.011909833573059657,0.10858515201135494,0.1991455078115,-0.79602050781,0.76953125,0.26984656699616477,0.5168637163955342,1.0297298419453,0.80404398473,1.33272700443,0.018633499503358172,0.13582033908190846,982.2074745475225,982.15926158922,982.2709321454,0.000588712232023862,0.11167055618000177,0.02414177105565421,0.00022918946776256323,1.6515570367986125,0.52,0.48,0.9986066640887201,Lift down
0.030754394531199995,-0.48706054687,0.49865722656,0.07170017374141507,0.26642667284639676,0.6995043945282,0.26220703125,1.36743164062,0.07149734648183488,0.26604956872172625,-0.44769287109079997,-1.20483398437,0.09362792968,0.13812005926267162,0.3697821773288228,0.9413991592479998,0.50926147026,1.45958882568,0.08379107498084132,0.28801590968387997,982.1969718961426,982.08726408128,982.34502759603,0.0035086513948456395,0.2577635147500814,0.058936956834376705,-0.0003410497227044158,0.051502573266926976,0.6,0.4,0.43040268953440036,Lift down
0.21907226562129994,0.16613769531,0.2509765625,0.0007331026684409077,0.02694014925267673,0.9641345214809999,0.84143066406,0.99389648437,0.0014201365622544947,0.03749580238682658,-0.23043457030930004,-0.39343261718,-0.19274902343,0.0019101061241986411,0.0434856880244139,1.0168406767155,0.94248491435,1.04776720203,0.0007130043901659711,0.026568295885590995,982.2931356493696,982.18073364083,982.41853288742,0.004515177521182,0.23779924659004337,0.0668582511435214,0.0023007520280301833,-1.0644644878343668,0.47,0.53,0.05320613804092672,Lift down
0.22033325194960005,0.19616699218,0.23645019531,6.906054689361662e-05,0.00826861181968778,0.9605725097612,0.92163085937,0.98828125,0.00033622122023013734,0.018244424025653315,-0.28799560546470004,-0.33703613281,-0.23608398437,0.0012672608609881936,0.03542016731155165,1.0274815899923002,0.99933576875,1.04184194123,0.0001264208278909694,0.011187341936852547,982.5161897585693,982.41853288742,982.62974850881,0.0035768260647226924,0.2112156213900107,0.05950678788235394,0.0020497266500446674,-1.131866303481149,0.47,0.53,0.08224891267354964,Lift down
0.23417968749540002,0.2265625,0.24645996093,2.4946049005469728e-05,0.00496956623010651,0.9640380859336,0.95043945312,0.978515625,5.347078497256748e-05,0.007275718323495062,-0.2508178710904,-0.26318359375,-0.236328125,7.812347676336915e-05,0.008794443813893832,1.0233418858271002,1.01360772872,1.03794006442,4.5981055155477285e-05,0.006746943352654038,982.7320881632556,982.62974850881,982.84104743753,0.004013322456781327,0.211298928719998,0.06303323910615345,0.0021771950042442615,-1.2267775358818476,0.47,0.53,0.014401176270042592,Lift down
0.23917846679319993,0.22778320312,0.25305175781,5.5025435168927595e-05,0.0073807303715308775,0.9931848144488998,0.95849609375,1.02783203125,0.00045122192813010236,0.02113550824675861,-0.24908203124639997,-0.26831054687,-0.23828125,4.9187823977896156e-05,0.006978248042174855,1.0515435909661002,1.01710042155,1.08678092038,0.00047497985188978966,0.021684788524928986,982.9482140005146,982.84104743753,983.05080728935,0.003752951761180185,0.20975985181996748,0.060954263538889414,0.002103941868095325,-1.2757923484509606,0.47,0.53,-0.03420687622290422,Lift down
-0.16345336914099998,-1.02783203125,0.23791503906,0.2598958507584813,0.507244410763585,0.8763024902299,0.28051757812,1.0302734375,0.032884316930446855,0.1804313547062771,-0.1464599609364,-0.41271972656,0.25158691406,0.037393742136468046,0.19240531363531355,1.0629184203018998,0.83184111128,1.31465572479,0.013283011046848828,0.11467423832919206,983.0977168029151,983.05080728935,983.27638686649,0.001459285988125475,0.2255795771400244,0.038009119014313135,0.0008460341812243307,3.7211874973165573,0.59,0.41,1.616530008625672,Lift down
-0.9815771484340001,-1.08276367187,-0.87121582031,0.0026335811614790184,0.05106119220958544,0.2642041015589,0.12524414062,0.37036132812,0.004779529547350765,0.06878760245769042,-0.13183715819920003,-0.27819824218,0.0556640625,0.006876127435346706,0.08250676433476978,1.0306744175493001,0.94229860077,1.12869840246,0.0025607400642237658,0.050350100929208955,983.1474878517441,983.12670129979,983.27638686649,0.0009490531722302209,0.14968556669998634,0.030652286056800374,-0.0005471628222288999,7.265178300133279,0.76,0.24,2.6244336715642844,Lift down
-0.5777758789012999,-0.62561035156,-0.53881835937,0.0006863538123048802,0.02606703424215788,0.7909741210893998,0.73681640625,0.83813476562,0.0005439550647499801,0.02320593704426693,-0.2867810058565,-0.34387207031,-0.26000976562,0.000653976050005928,0.02544476939384338,1.0214144172006998,0.97153879035,1.05491069268,0.0002892951621424963,0.016923421950689268,983.1583504721851,983.14439619537,983.16762454548,3.2717292085054865e-05,0.023228350110002793,0.005691231779167346,-0.00015448017614655486,-1.2342229591524565,0.45,0.55,-0.01782183453218438,Lift down
-0.5622167968706998,-0.71936035156,-0.51062011718,0.002722620024853978,0.051917182363890264,0.765781249996,0.71105957031,0.80456542968,0.0006640818624604739,0.02564061317199472,-0.2800097656211,-0.40625,-0.23950195312,0.0013805401205304326,0.036969375425142476,0.9920519677962999,0.94258472868,1.096935796,0.0014813951081442266,0.03829596789562557,983.1816577081746,983.14439619537,983.26463990162,0.0009801878803381463,0.12024370624999392,0.03115101926959638,0.0008483726048730544,1.4582183548574683,0.75,0.25,1.4773353375588556,Lift down
-0.5788146972608998,-0.61962890625,-0.54370117187,0.0006343741534203222,0.025060534948123492,0.7515917968714999,0.61352539062,0.82409667968,0.002472681204410041,0.04947680661043051,-0.37436279296509994,-0.46594238281,-0.33276367187,0.0013430743446141435,0.03646427842653687,1.0216963113158,0.93892975502,1.06140980467,0.0006125853505268113,0.024626398376976343,983.3345819285136,983.23377308187,983.44090270856,0.004103926647829389,0.20712962668994805,0.06374078271680617,0.0021677187812736364,-1.1488355566177755,0.55,0.45,0.1884348115105648,Lift down
-0.5588769531205,-0.58679199218,-0.52233886718,0.00021149921898910734,0.014470114954595775,0.8025952148401998,0.77197265625,0.83044433593,0.00023626107756812272,0.015293739463991188,-0.31974731444910004,-0.34985351562,-0.28979492187,0.00035703262146689945,0.01880059294948514,1.0292982095867003,1.00789248718,1.04393578463,8.364994556813497e-05,0.009100189344868248,983.550927579176,983.43143139019,983.66533138962,0.004795682702434639,0.2338999994299229,0.06890374355149576,0.00237856541625764,-1.2167579637548198,0.47,0.53,0.0287913395477694,Lift down
-0.598651123044,-0.72082519531,-0.50012207031,0.003635244650971822,0.05999076766021672,0.7871679687472999,0.71484375,0.91394042968,0.0016914493145967849,0.04092108040424663,-0.22412353515379999,-0.33056640625,-0.0849609375,0.0068951224978670575,0.08262064677118176,1.0197000781078,0.97331455274,1.06781967171,0.0005649355129371628,0.02364923165364556,983.7683053387357,983.66533138962,983.87281668875,0.004119737685159412,0.2074852991300986,0.06386345048858398,0.002173105601796382,-1.3535835831466259,0.55,0.45,0.19262933996974607,Lift down
-0.5719683052243564,-0.61376953125,-0.50952148437,0.0009003849076833607,0.02985749831494745,0.8518658628520792,0.78271484375,0.92297363281,0.0016648166220713243,0.040599671047676346,-0.2727449624809901,-0.33715820312,-0.10949707031,0.0054205316629489155,0.07325887681791667,1.0653498740259406,1.02567428298,1.08953227442,0.00015081065041211937,0.012219553005554816,983.9966778664681,983.87281668875,984.0654735297,0.0026483192086364463,0.1926568409498941,0.051206427588465095,0.0016755853150620763,-0.45786366904889375,0.35,0.65,-0.7977272410500451,Lift down
-0.5530007102228282,-0.57495117187,-0.54455566406,5.540506074320778e-05,0.007405768944883007,0.8133212002796969,0.79833984375,0.83337402343,6.690798307852381e-05,0.008138313391951027,-0.3179869988909091,-0.32531738281,-0.30603027343,3.292407726344279e-05,0.005708897514094846,1.0336636088129294,1.01525582426,1.06197201007,0.0001112282006200952,0.010493077882209512,984.0719220024079,984.06244567667,984.08037072414,2.798500598878106e-05,0.017925047470043864,0.005263300215702269,0.0001661720768148841,-1.1038715257040355,0.38,0.62,-0.2949187063260903,Lift down
-0.5057653808549,-0.57055664062,-0.45666503906,0.0010036900955575163,0.031522265061412404,0.845998535151,0.78576660156,0.90930175781,0.0016585610069416931,0.040521295597158245,-0.2890185546838,-0.36755371093,-0.20666503906,0.0028763333715462656,0.05336262772606689,1.0295797094716,0.9958106293,1.06577862446,0.0004976640202048074,0.02219656234651572,984.0793649097762,984.06512580449,984.09422073308,4.569457726541863e-05,0.029094928589984193,0.0067258926168029505,1.8724868184935793e-05,0.06650713097233574,0.48,0.52,-0.2860070342957405,Lift down
0.0337695312464,0.00024414062,0.05090332031,0.00015887814338763712,0.012541505569657925,0.003150634763,-0.0625,0.01647949218,0.00025591696596709854,0.01591721697745644,-1.0096728515593,-1.01916503906,-0.99609375,2.717222829716057e-05,0.0051865697733848104,1.0104447140888,0.99645245395,1.01978455973,2.889125926861989e-05,0.0053481161801080665,984.0873949211658,984.0536712981,984.10392437199,0.0001671230645901817,0.05025307389007594,0.012862808167125867,0.0004155243217515263,-0.10399559906904399,0.42,0.58,-0.6765329255918036,Lift up
-0.02668037799737374,-0.11962890625,0.0390625,0.002190443070858003,0.046565194977295846,-0.07621996330080809,-0.14099121093,-0.00939941406,0.0013109609235235863,0.036023865617019014,-1.0074635515276769,-1.03857421875,-0.96875,0.00026455825996120927,0.016182890789504682,1.0124219932755556,0.97546314157,1.03923011087,0.00023614812808989545,0.015289303236665979,984.0361415496575,983.86153530291,984.17177306838,0.0054092518546461615,0.31023776546999215,0.07317522085394394,0.0002317217274416025,0.25173920884859946,0.4,0.6,-0.9202652596178177,Lift up
-0.04410644530939999,-0.0703125,-0.00109863281,0.0002637676759170051,0.016159517293466256,-0.128557128903,-0.22143554687,0.33959960937,0.010778690233056656,0.10330006452430748,-0.9955273437469998,-1.02221679687,-0.95776367187,0.0003139808683537844,0.017630685173022815,1.0102522401816,0.9823554682,1.03748403129,0.0001821127818626957,0.013427272770152125,984.1307066371467,984.08084604911,984.18046735463,0.0007283167945295718,0.09962130551991777,0.026852069316614616,-5.544063290778352e-08,-0.7679211367024883,0.56,0.44,-0.024255448842957134,Lift up
-0.22777587890519996,-0.78430175781,0.33984375,0.10130166429926597,0.31668382916763105,0.3299145507806,-0.24829101562,1.23352050781,0.2724400003779359,0.5193415065004496,-0.7056689453088001,-0.98425292968,-0.2392578125,0.05467586466770169,0.23265662685817629,1.0319027817886002,0.67338437935,1.26986367201,0.018185985040356224,0.13417945144452134,984.1136522429899,983.83793219108,984.30969640332,0.017543681057361055,0.47176421224003207,0.13178863474058544,-0.0028519808334363916,-0.28618221558111934,0.29,0.71,-1.009875714745025,Lift up
0.4669946289034,0.33984375,0.51306152343,0.0014924466549642984,0.038438550810542475,0.7339111328081998,0.51416015625,0.96838378906,0.02691764060890115,0.1632435732358617,0.3070507812476,-0.2392578125,0.705078125,0.11799862755507262,0.34178742118387256,0.9971181515938001,0.88070501425,1.05380512343,0.0017068040241305967,0.04110639833273271,983.8694693228664,983.744572777,983.91704168401,0.0016818210658813035,0.172468907009943,0.04080444651288007,-0.000582955880682225,2.2952962769004017,0.44,0.56,-1.4353315152383317,Lift up
0.1162866210916,-0.25537109375,0.50537109375,0.05179916119810187,0.22645346008864792,0.21119628906020002,-0.08581542968,0.95947265625,0.10701574077428178,0.32549283151328995,-0.7947387695286,-1.09448242187,0.4521484375,0.1699804309925853,0.41022021730121916,1.0054076126807998,0.85625488704,1.12333296739,0.004443509643965589,0.06632551957976607,983.6656134831964,983.54920749898,983.78997594594,0.006593093023034507,0.24076844696003263,0.08079085401704925,-0.002529752478204216,-1.4643480144562877,0.49,0.51,0.06361196354995753,Lift up
0.1052441406228,-0.17553710937,0.19274902343,0.007681565067520099,0.08720521439022381,0.1585034179646,-0.00170898437,0.29382324218,0.011924594466093102,0.10865242068832232,-0.9973681640589999,-1.12475585937,-0.93542480468,0.002065093324650014,0.04521551051800161,1.0249556800808,0.95375831856,1.13599720237,0.0018821328479592257,0.04316609224240287,983.465723628675,983.3615975905,983.54920749898,0.002180577968105295,0.18760990847999892,0.04646258912742855,-0.00140500260509429,-0.39163846641722877,0.53,0.47,-0.48404459650058684,Lift up
-0.6239158705869305,-1.10961914062,-0.15795898437,0.14283763417182344,0.37606302685869325,0.24416600595247523,0.08874511718,0.46459960937,0.0097852496257108,0.09842949743877746,-0.5563481396923763,-1.0185546875,-0.25830078125,0.09291923912690113,0.3033137759157967,0.9940457444610893,0.69777425812,1.23269305744,0.01352932904399918,0.11573839160403214,983.224649557017,983.1781699348,983.3615975905,0.0017176351798038596,0.1834276556999157,0.04123868197329918,-0.000905761835149749,2.829260707004292,0.61,0.39,1.6353404420759203,Lift up
-0.8447778320274,-0.97192382812,-0.57556152343,0.017294685401215548,0.13085006131906624,0.32177612304409997,0.14929199218,0.72509765625,0.030407796753221146,0.1735042327601518,-0.3902380371057,-0.66271972656,-0.25866699218,0.015921793518322538,0.1255490963055462,1.0146146385169,0.92990744417,1.16000152609,0.003050861288987139,0.05495773536179659,983.1926366210232,983.14487484276,983.23373309451,0.00047947178666469793,0.08885825174991169,0.02178708490822145,-0.0002970311791227565,-0.31332377156863345,0.42,0.58,-0.11558939471586499,Lift up
-0.24595092773369998,-0.78527832031,0.32092285156,0.13277775231278452,0.3625603050385641,0.2835070800756,-0.04284667968,0.78430175781,0.09904755410909162,0.3131406689780181,-0.7766162109344,-1.08325195312,-0.36584472656,0.06086948963128039,0.24548074208574405,1.0117157193338997,0.8113428918,1.20704400262,0.01030304417985854,0.10099511739712942,983.1610757264441,983.0338663932,983.38495149474,0.009155119530204375,0.3510851015399794,0.09520277482774507,-0.0015588529039459523,0.1410532616085507,0.64,0.36,0.9367874459603586,Lift up
-1.134266357418,-1.63562011718,-0.42956542968,0.12309312191080601,0.3490876547397486,0.26569335937329996,-0.13647460937,0.70007324218,0.053578128211292896,0.2303092419534656,-0.17724121093539996,-0.45153808593,0.14453125,0.031566732434728316,0.17677970785805996,1.2078506407852,0.45106151601,1.66516743721,0.13719192921652468,0.3685376641869314,983.0600095120554,982.98935420712,983.25507512079,0.003214977394025062,0.2657209136700658,0.05641655448611526,0.00020078427377229644,4.215416156413219,0.6,0.4,1.8660011748571308,Stairs up
-1.001807861324,-1.63562011718,-0.35583496093,0.0915146204241303,0.30099746547087236,0.3406347656213,-0.08752441406,0.9072265625,0.0693908660331787,0.2621010442040377,-0.046890869140600006,-0.38427734375,0.24938964843,0.044358759110364084,0.20955947012545256,1.1315983203306001,0.74375899734,1.66516743721,0.044996598694531105,0.21106073227293085,983.0083024760347,982.95172901383,983.10874286097,0.0018025951590586308,0.15701384713997868,0.042244161815191035,-0.0004363671475643207,0.1533212592509492,0.52,0.48,0.7488844713029824,Stairs up
-0.5782261087387879,-1.07250976562,-0.3291015625,0.027324474600177135,0.16446419004219717,0.8307982165363635,0.59094238281,1.083984375,0.015628892394832387,0.12438257432166527,-0.3197847616752525,-0.59545898437,-0.02282714843,0.027279551791829688,0.1643289407366499,1.079292406368586,0.80380157664,1.42052494659,0.031806073623110775,0.17743956760590424,982.9755454404325,982.86901449703,983.09300463269,0.0045950159367107585,0.22399013566007397,0.06744332164358263,-0.0018616804839383533,-1.3512864671760998,0.46,0.54,-0.012715635438983554,Stairs up
-0.4129272460901998,-1.33837890625,-0.05090332031,0.1743052705675785,0.41540608789701516,0.5599072265585999,0.19189453125,0.98315429687,0.05413425664688592,0.23150143429451372,-0.6232275390581999,-0.99536132812,-0.06140136718,0.0767490227056662,0.275647478636409,1.0684276474703998,0.67864706713,1.42967421103,0.03335010596135595,0.18170471898589313,982.8975184648341,982.73289704314,983.01011564332,0.003874473766814285,0.2772186001799355,0.06193326270386651,-0.0007446025983312074,-0.4746271783525913,0.6,0.4,0.2678271722699204,Stairs up
-0.6970581054651999,-1.72827148437,0.02709960937,0.21927393280447705,0.465919728576106,0.30860351562040006,0.099609375,0.99377441406,0.04763963417557458,0.21717098755086703,-0.6082592773401998,-1.41430664062,-0.02758789062,0.12876101455955774,0.3570341782154226,1.0776416458918003,0.32112198401,1.75977302575,0.18334525200449672,0.42604201610222875,982.7549833490966,982.60170774473,982.97426279135,0.010928391898942983,0.37255504662005023,0.10401494113805743,-0.001820449092289113,-0.6160554426440656,0.52,0.48,0.41705613423965954,Stairs up
-1.1218481445286,-1.65588378906,-0.73352050781,0.05692270228955571,0.23738886929816266,0.24691894530860004,0.06115722656,0.52087402343,0.01514669594122771,0.1224550079899366,-0.12179931640519999,-0.33044433593,0.11108398437,0.021556063907488304,0.1460838912009583,1.1718511599846002,0.75733715565,1.67114675561,0.05434481289735784,0.23195121204336108,982.7098314308568,982.65248743479,982.86697531705,0.002323343616724467,0.2144878822599594,0.04795946393108687,-0.00019557693447225848,1.4408094477834474,0.62,0.38,1.2286686765196673,Stairs up
-1.1332226562464,-1.72961425781,-0.60534667968,0.12071487684458129,0.3456988979967039,0.2091552734354,-0.07604980468,0.74829101562,0.03720397058069794,0.1919164684827515,-0.13879150390400002,-0.43432617187,0.18859863281,0.03435355634881961,0.18441805981338005,1.1892748034532001,0.6320240737,1.76716555422,0.12442193959575608,0.3509668363247424,982.6747159769825,982.58714987777,982.86697531705,0.0048987365509401675,0.27982543927998904,0.06964014061897611,-0.00021895334434707438,1.0029796232115071,0.6,0.4,1.0656479756516655,Stairs up
-1.1393982537858416,-1.5517578125,-0.78002929687,0.04753379892594963,0.21694046937677505,0.18974681891673265,0.00378417968,0.44885253906,0.01651257550067428,0.1278635391897665,-0.16857668432643563,-0.44958496093,0.22229003906,0.034344469898010425,0.18440288946107783,1.1867888227518812,0.80908632248,1.5950871683,0.05211529528124581,0.22715479800932936,982.662929104568,982.61674644045,982.74688319232,0.0009499657634125979,0.13013675186994078,0.030668553304560215,6.311103693353929e-05,0.17324602553357904,0.47,0.53,0.4869623779519312,Stairs up
-1.1158984374956,-1.40197753906,-0.85009765625,0.028287384341523916,0.16734548245503575,0.2631335449184001,0.07702636718,0.45239257812,0.010776042966948151,0.10328737840258446,-0.1797058105456,-0.50524902343,0.10705566406,0.03912911853737537,0.19681927586494574,1.1795421622364,0.87239060281,1.45688649908,0.03318552677110224,0.18125581784701758,982.6689247150847,982.6176676359,982.75837840445,0.0019676199176126806,0.14071076854997955,0.04413551538655183,0.0002628798747784671,-0.32732256614087474,0.69,0.31,1.0193024100639745,Stairs up
-1.0973254394493999,-1.33813476562,-0.86291503906,0.01703801639591056,0.12987546431852112,0.2541394042945,0.08728027343,0.41455078125,0.007569822125808555,0.08656860807793128,-0.1978735351555,-0.4150390625,0.09204101562,0.029726207851770034,0.17154866881807138,1.1591062504615999,0.88650114271,1.38665088433,0.018310402868642748,0.134637657584928,982.679377656782,982.62324236859,982.75441191799,0.00117841159812027,0.1311695493999423,0.03415592894563208,-0.00039137367556845527,-0.393753518266569,0.43,0.57,0.21144640534136425,Stairs up
-1.0652270507774,-1.40576171875,-0.81677246093,0.022538504883645262,0.14937576722751522,0.2026037597626,-0.04614257812,0.44006347656,0.00988842708110943,0.09894211848499271,-0.19601074218480005,-0.41979980468,0.11169433593,0.024430175043836058,0.15551808027813904,1.1183638646567002,0.89646524313,1.44915373417,0.01992723878684001,0.1404562793148516,982.6889270049011,982.62324236859,982.77166188788,0.0010738459576556908,0.14841951928997332,0.03260532928953692,-5.0555938092697065e-06,0.15054160658379878,0.45,0.55,0.21406767188422016,Stairs up
-1.0889270019497,-1.72241210937,-0.58666992187,0.11305872644305608,0.3345566307497514,0.16525024413789996,-0.01501464843,0.41748046875,0.012818095013858295,0.11264951870167804,-0.1544433593732,-0.51782226562,0.09216308593,0.036179726773451715,0.18925625354454526,1.1389992237644002,0.64816687578,1.74775298647,0.10104965760371128,0.31628967897747495,982.6356990791619,982.53110454716,982.72815518501,0.0028071314028519615,0.19705063784999766,0.05271679133656981,-0.00041225092730748397,-0.30195402034824115,0.47,0.53,-0.5836431323614286,Stairs up
-1.0072656249968,-1.45837402343,-0.69067382812,0.058089074606740856,0.23980864008761954,0.2020910644507,-0.09545898437,0.42626953125,0.014680196978256045,0.12055453126479106,-0.1556445312474,-0.28076171875,0.12536621093,0.014686758445557406,0.12058146980818335,1.0563738651770997,0.73611916731,1.49886202362,0.050813923676903176,0.22428951032122332,982.5861349585717,982.5276691049,982.68875902466,0.0021848519066169345,0.16108991976000198,0.04650810023588112,-3.800747036144334e-07,-0.03247827684789817,0.6,0.4,0.9204832737917563,Stairs up
-0.8207995482129291,-1.77600097656,0.0390625,0.284052064678028,0.5302667742782895,0.4457835187779798,-0.00573730468,1.25231933593,0.1004599144287884,0.31534927908336274,-0.20392647174606063,-0.51391601562,0.09326171875,0.02621522428985344,0.16109135310283226,1.0732195485763638,0.25164255325,1.87324637025,0.17052153389545235,0.41085166929091893,982.5339493513023,982.4329652598,982.67628827089,0.003566797105725846,0.24332301109006949,0.05942027307352816,-3.091143372641763e-05,0.6242543129302458,0.42,0.58,0.6001936070895542,Stairs up
-1.0524999999968,-1.541015625,-0.65563964843,0.0729415150844916,0.26872309155271096,0.28155029296500006,0.16418457031,0.58459472656,0.012223868183325527,0.11000740657561323,-0.1297045898422,-0.35656738281,0.16662597656,0.020176110971372018,0.1413306402081951,1.1139190646547998,0.72729449161,1.57799147994,0.06800251998364147,0.25946578730885705,982.4419981513967,982.38921354617,982.52823102306,0.0015329893648065329,0.13901747688998967,0.03895714916621169,-0.0005996151692278317,-0.37630564310522985,0.56,0.44,0.5648868028360479,Stairs up
-1.1072509765588001,-1.34838867187,-0.8466796875,0.021413556252788925,0.1456002084142088,0.2620434570278,0.15551757812,0.44287109375,0.006417945545049554,0.07971051429767002,-0.0951782226542,-0.30554199218,0.16662597656,0.0169891433575504,0.12968905861318794,1.1502294555698003,0.86981587271,1.39438076436,0.025328313911397476,0.15835097338596787,982.3767683139123,982.31677635242,982.43298907186,0.0008361122796667849,0.11621271944,0.028770664866667874,-0.0007439516006622327,-0.34039845806450497,0.58,0.42,-0.04595514340863831,Stairs up
-1.0118408203086138,-1.26599121093,-0.74914550781,0.021635825037763977,0.14636122761264736,0.22356029547930695,-0.0068359375,0.39245605468,0.00864262854390093,0.09250436727127183,-0.13894260519752474,-0.41455078125,0.11340332031,0.02741778600238802,0.1647614116674217,1.0633583449665345,0.81599848662,1.28821727323,0.01969511996330103,0.1396428257217161,982.3190154669852,982.24060995989,982.40744213456,0.0018079457761473216,0.16683217467004852,0.042308927224855755,-0.00042015839594714406,-0.4947515352916496,0.34,0.66,-0.45282958167220355,Stairs up
-0.9847839355423998,-1.31774902343,-0.69555664062,0.02342335845934184,0.1522797585851397,0.2048962402299,0.02026367187,0.37036132812,0.007132123364023265,0.0840285792476764,-0.17185424804259994,-0.35693359375,-0.05822753906,0.006878638524797653,0.08252182826107088,1.0275324522797,0.71764671608,1.34366442163,0.02278039413121426,0.15017519831817144,982.277771367823,982.23174113636,982.35167017146,0.0009700059331283915,0.11992903509997177,0.030988802393721312,-0.0005275220608695236,-0.37766956008774466,0.55,0.45,0.590019159394085,Stairs up
-0.8705688476527998,-1.4951171875,-0.41735839843,0.08317377455958196,0.28695302196350214,-0.0654382324212,-0.4560546875,0.23742675781,0.027881686811724465,0.16614111454907005,-0.5378259277313999,-1.0234375,-0.20129394531,0.05116289181357019,0.22505835442265745,1.0705055437269002,0.63006084203,1.78984973695,0.0667101614234732,0.2569884429487802,982.2559698771163,982.15306645553,982.43437727431,0.0058329440113680546,0.2813108187799571,0.07599088479057454,-0.0003193850812122668,0.047694611452893554,0.64,0.36,0.8278640234210236,Stairs down
-0.6956433105429,-1.5390625,-0.19189453125,0.1110778463890811,0.33161282834834704,-0.1548205566379,-0.32849121093,0.05029296875,0.01058149316506,0.10235076078568933,-0.6264355468707998,-0.96166992187,-0.25317382812,0.03185406150259921,0.17758243406253113,0.9982333236728,0.59022565187,1.68677459684,0.056382841619105034,0.23626047744579282,982.2952486196062,982.15306645553,982.50494377828,0.007397539377403219,0.3518773227499423,0.08557782413469735,0.0011425068739915596,0.3575156199442855,0.61,0.39,0.9826663999505677,Stairs down
-0.7892407226522999,-1.16662597656,-0.33032226562,0.051599444589884476,0.22601648201842633,-0.09300048827949998,-0.28356933593,0.17102050781,0.014578888818991304,0.12013783721543098,-0.5720288085892,-0.90698242187,-0.40295410156,0.014150055917814326,0.11835774312919364,1.0044802139174003,0.64533063849,1.32234999642,0.029607648742736425,0.1712062272679036,982.3872338912036,982.25332079302,982.53513035894,0.006458104914349755,0.2818095659200708,0.07995951391301886,0.0007746977108712802,-0.8074809364469915,0.49,0.51,0.005296824566004868,Stairs down
-0.8520849609326,-1.31176757812,-0.38610839843,0.05289442674082622,0.22883505516729286,0.10580200195129999,-0.20275878906,0.49145507812,0.03698927400474329,0.19136191173976044,-0.4988305664023,-0.63354492187,-0.26000976562,0.010140359154938779,0.10019458849353786,1.022483755013,0.60532651891,1.43384512378,0.04002582654556279,0.19906171977582018,982.489047114751,982.33591681193,982.63827214039,0.0056835343185001625,0.30235532845995294,0.07501132564696587,0.0013192213913416455,-0.08637023098867314,0.49,0.51,0.564863104737187,Stairs down
-0.8746655273395999,-1.54089355468,-0.24072265625,0.08082765419625283,0.28287696557742253,-0.12041625976370002,-0.73352050781,0.70812988281,0.13566927156297784,0.36648680582982524,-0.35650756835549996,-0.74108886718,-0.03466796875,0.0359614155792229,0.18868439634328713,1.0578044507265998,0.78286413338,1.54515354141,0.03795140030601235,0.1938346880796939,982.5581739094216,982.47250944729,982.70140074567,0.0025826864472633148,0.22889129837994915,0.050565399066858766,-0.0003066298570135745,2.6488849071279192,0.64,0.36,1.472543540934166,Stairs down
-1.142665670370909,-1.88806152343,-0.41088867187,0.14240811644770487,0.37545925294897287,0.0809116556180808,-0.29724121093,0.69982910156,0.06067718627370924,0.24508016117641515,-0.26884814946090907,-0.70349121093,0.04797363281,0.03663028196334184,0.19042132001230133,1.2306798327429291,0.75580848108,1.91575321729,0.11169751165942592,0.3325195542609432,982.6068591401392,982.51181704914,982.79587949325,0.005485232744360007,0.2840624441100772,0.07368735544856278,0.00029288567011096064,1.0015480927898714,0.66,0.34,1.136766473834638,Stairs down
-1.2317382812475,-1.86364746093,-0.7578125,0.07107425277828874,0.26526121135685454,0.29360351562150006,0.00085449218,0.59924316406,0.027075875287183377,0.16372268179550303,-0.1920056152311,-0.41394042968,-0.00158691406,0.01574428517861731,0.12484727600885465,1.2956923853033002,0.75906616414,1.88847297165,0.07493443023223421,0.272369392424905,982.6463850994119,982.59250570155,982.7276129497,0.0016433043187742183,0.13510724815000685,0.04033449238042393,9.537725033933203e-05,-0.7513262484420022,0.54,0.46,0.49031548944391595,Stairs down
-1.0990099009865346,-1.40100097656,-0.90991210937,0.017586465507602022,0.1319558338488097,0.26909131342475245,0.10607910156,0.48205566406,0.010362826609182623,0.10129276561298615,-0.2180018661012871,-0.44189453125,0.13806152343,0.017872407335710064,0.13302425646337485,1.1633467297044557,0.9208345927,1.46313512207,0.019947617965068914,0.14053510877036363,982.6539143640854,982.59598241698,982.70132068223,0.0006869839440149731,0.10533826524999768,0.026080301432059833,-0.00022927735319901654,-0.6563679865516479,0.56,0.44,0.2025135115056909,Stairs down
-0.7763378906206998,-1.28308105468,-0.21606445312,0.10988541899284134,0.3298280837086389,0.4524768066373999,0.11901855468,0.96154785156,0.05832187957692512,0.24028870298279914,-0.1380004882777,-0.36901855468,0.142578125,0.01667302711392999,0.1284768338759587,0.9915474045230998,0.72915291205,1.3721294241,0.026611295690756022,0.16231199195946203,982.6407848794053,982.58429546881,982.81227009927,0.0036051407441580834,0.2279746304600394,0.05974185581915332,0.0005743558601987009,2.730217882255845,0.69,0.31,1.8542624509353625,Stairs down
-0.974647216793,-1.34753417968,-0.51721191406,0.04881224719418186,0.2198274885500902,0.17224853515230001,-0.09619140625,0.31665039062,0.011094074002233499,0.10480044495235297,-0.2776403808557,-0.53259277343,-0.06958007812,0.02108247630982018,0.14447024450288018,1.0497539411449999,0.73357971226,1.39823327091,0.03523889770556044,0.1867793048720999,982.6654513024315,982.60653119347,982.77463054154,0.0012718448729370961,0.16809934806997262,0.03548417146007111,0.000739602424809295,1.0149659958333785,0.6,0.4,0.5575274488262355,Stairs down
-0.8633642578083,-1.67504882812,-0.22399902343,0.14366419293690844,0.3771306816045857,-0.0100158691419,-0.79565429687,0.40979003906,0.10362966234296153,0.32030199143859833,-0.6318749999971,-1.00256347656,-0.32666015625,0.03942762386900323,0.19756858968548924,1.1633372443839998,0.59572131019,1.882966063,0.07602514656958269,0.2743444825468281,982.6829358554191,982.54482404503,982.82292387147,0.0038584326930000096,0.2780998264399841,0.06180492185958987,6.402131491879844e-06,0.08919919636918783,0.6,0.4,0.2692981102822522,Stairs down
-0.6047192382773999,-1.04553222656,-0.2119140625,0.0555417751482494,0.23449170005944114,0.19467529296590003,-0.12475585937,0.73059082031,0.04152642945386053,0.2027588842919637,-0.6778662109336,-1.12817382812,-0.18981933593,0.051504587790181196,0.22580864003017995,0.9791060608253,0.47133465896,1.39667086123,0.047652790048158894,0.2172009717926633,982.751582655402,982.64309764726,982.96417001722,0.006268201517430184,0.32107236996000665,0.07877511981746446,-0.0005135890482875528,-0.006989683525942869,0.39,0.61,0.4555307983479833,Stairs down
-1.0861425781204,-1.64697265625,-0.48315429687,0.11123052356286624,0.331840652011229,0.24277343749720007,-0.09765625,0.57336425781,0.026961809456870888,0.16337745059310413,-0.22414062499799997,-0.5078125,0.00537109375,0.016964455662167827,0.12959479582740252,1.1549218697872001,0.57523826348,1.67953484307,0.10974177496644999,0.32961243486371306,982.820730848855,982.68033418503,983.00582691242,0.00507491469988195,0.3254927273900421,0.07088134841326829,0.0016960041823164869,0.3865735264139287,0.57,0.43,-0.15298783145628186,Stairs down
-0.5465087890568,-1.22106933593,-0.10192871093,0.08014190437832083,0.2816744314532961,0.39519531249640005,0.08679199218,0.91772460937,0.04730019554975677,0.21639591861737875,-0.648012695308,-0.94909667968,-0.31579589843,0.032761030871018934,0.18009281096786942,0.9921565776928003,0.46295928445,1.33962313,0.04949299964765489,0.22135507595530388,982.9523733965872,982.81664185989,983.11373532629,0.008093713045615441,0.2970934664000424,0.08951411014560379,0.0009756118475430287,-1.028723890907815,0.64,0.36,0.6310872094262061,Stairs down
-0.7508349609336,-1.09130859375,-0.38940429687,0.03419875217225498,0.18400207784297554,0.144921874998,-0.21057128906,0.66796875,0.05131470916137394,0.22539201864697916,-0.5598974609336,-0.91271972656,-0.34265136718,0.021503492702105862,0.1459056468238457,0.9911596811268,0.7221917799,1.275428491,0.022010026443507306,0.1476141123980774,983.009463666236,982.91271533098,983.13095950611,0.003621044397645268,0.218244175130053,0.05987348289241921,0.0005689639335371634,-0.4537320841698138,0.44,0.56,0.3780531234861892,Stairs down
-1.2441015624956,-2.10546875,-0.544921875,0.15290962773212294,0.38907651105509017,0.2591894531212,-0.08837890625,0.49694824218,0.0248917528110753,0.15698036591550085,-0.18229980468440005,-0.39306640625,0.10607910156,0.02210302184269751,0.14792562869317316,1.30801910479,0.68497316965,2.12726422601,0.1365580495647457,0.3676852853584139,983.0566432642511,982.95150209034,983.1736563137,0.003970214343318201,0.22215422336000756,0.06269379714042705,0.0013208975716995338,-0.8460902826471965,0.45,0.55,0.4610082413731829,Stairs down
-1.0962678543204039,-1.52697753906,-0.71813964843,0.04127806686237161,0.2021413285106354,0.21650587910141414,-0.32873535156,0.5712890625,0.049745878608999546,0.22190852842260575,-0.20541104403212124,-0.53063964843,0.02770996093,0.017020572757396404,0.1298023411963319,1.161624384672323,0.74129517771,1.55833150813,0.04894807450263619,0.22012189692908807,983.0947764839404,983.04476878837,983.1821142943,0.0014419744634156387,0.1373455059300568,0.03778106754441011,1.6877553657521667e-06,0.00756146712564032,0.62,0.38,0.9841872455849643,Stairs down
-1.1039193030593069,-1.47387695312,-0.83386230468,0.031980998141488276,0.1779448077228806,0.25263961942742574,0.15441894531,0.400390625,0.004708432213005014,0.06827747851438418,-0.2117085976135643,-0.37780761718,0.00073242187,0.012839857020946819,0.11275074156611885,1.1587212882522773,0.84819615656,1.49668990924,0.033106661737718715,0.18104936621717926,983.1055879050119,983.04796103609,983.20005885044,0.0013593578160978695,0.15209781434998604,0.036686493806572365,-0.00021549324489375293,-0.04206494637081404,0.55,0.45,0.3256597390850107,Stairs down
-1.0653295898398998,-1.39855957031,-0.70556640625,0.02735128919898377,0.16455326282694588,0.25174316405810004,0.12731933593,0.36560058593,0.005510014741118503,0.07385739362925907,-0.1887158203098,-0.36181640625,0.01696777343,0.01198497743290532,0.10892716676098882,1.1175254232676002,0.71854650685,1.43719923978,0.030054078701751658,0.172492138704157,983.1023126157196,983.04130100365,983.17274859388,0.0011840955011291304,0.13144759022998187,0.03423820302115517,-0.0003503851314053781,-0.6878920652292253,0.47,0.53,0.0572231952482052,Stairs down
-1.0401855468712,-1.64074707031,-0.56567382812,0.05713249457016616,0.23782592294462876,0.23277343749559998,0.07629394531,0.33020019531,0.0038826361087452095,0.06199846568793261,-0.17692382812200005,-0.4150390625,0.02612304687,0.019193014568834016,0.13784442108096243,1.0921985499215998,0.57192275937,1.66379202404,0.054525128711763717,0.2323356998496918,983.1119719720164,983.04857258546,983.19877386101,0.0012383023679395908,0.15020127554998908,0.0350131310262335,1.8729854558760753e-05,0.9795454249649773,0.44,0.56,0.6715786607727229,Stairs down
-1.1210791015591999,-1.68872070312,-0.64282226562,0.04433587984566869,0.20950542009029743,0.24060058593520003,-0.04516601562,0.55749511718,0.027485367023119937,0.16495609522805982,-0.19496582030840007,-0.39074707031,-0.04382324218,0.008275235156921794,0.09051233510054071,1.1761648171656003,0.65727504647,1.7577948209,0.049141924300205246,0.22056859490236408,983.1732372948566,983.04857258546,983.22935968199,0.0013053592496783768,0.18078709653002534,0.03594865306491459,0.0001638479276168386,0.11336015604274685,0.48,0.52,-0.5497420145678927,Stairs down
-0.6442138671836,-1.70104980468,-0.2392578125,0.13731890856594087,0.3687081765845199,0.4878369140583999,0.193359375,0.93701171875,0.05907292905473663,0.24183093219063037,-0.4879296874964,-0.94677734375,-0.14636230468,0.06482407579598493,0.2533294989495402,1.0369643650116,0.54601801072,1.72297463967,0.07513171849589566,0.27272770543334374,983.2480856686263,983.15300820635,983.3900633905,0.00673710183202267,0.2370551841499946,0.08166841992901812,0.0011605105881926428,-1.1476080491074627,0.65,0.35,0.6415215236578897,Stairs down
-0.8758105468715999,-1.53393554687,-0.24230957031,0.11144275602696109,0.33215708402304395,0.277480468746,0.068359375,0.50708007812,0.015561613554910085,0.12412089839894402,-0.3793261718708,-0.73803710937,-0.13500976562,0.03034806140718853,0.1733337266463646,1.0377218588711998,0.60330702747,1.62285530254,0.06751527223739852,0.25853456154840215,983.3296282361896,983.2014375729,983.49263830138,0.0070258160943312995,0.2912007284800211,0.08339998761023881,0.0006229598098830178,-0.4269658641454672,0.56,0.44,0.540945305416172,Stairs down
-1.0502880859344002,-1.87084960937,-0.271484375,0.14929170979393436,0.384446085551661,0.24976074218399993,-0.01196289062,0.52600097656,0.022041178086575557,0.14771853744777533,-0.28762207030959996,-0.5087890625,-0.08422851562,0.012855616482882947,0.11281427355638167,1.1407496291968002,0.40880436401,1.93897600634,0.13055439386472806,0.35951196075524494,983.4229759508469,983.30955068022,983.53736403084,0.005033184881095823,0.22781335061995378,0.07058932661730713,0.0009240507892954309,-1.2085418860279467,0.48,0.52,-0.136701373511174,Stairs down
-1.0193945312464001,-1.86169433593,-0.35668945312,0.163602615028765,0.40245072851030766,0.1741210937472,-0.14965820312,0.51452636718,0.028224049191866996,0.16715803510435365,-0.2160351562468,-0.48400878906,-0.01977539062,0.014149031590899733,0.11835345907488608,1.0807072329211997,0.47567242221,1.91731868456,0.15367916153557182,0.39005431662810264,983.5153128507419,983.41797310951,983.66712075522,0.005199128372302734,0.24914764571008163,0.07174355085009179,0.00032399677590668564,-0.6716690951013451,0.64,0.36,0.6344904040226699,Stairs down
-1.2142626953084,-2.23376464843,-0.43566894531,0.21860685165503485,0.46521047187104947,0.20078613280999996,-0.11877441406,0.72644042968,0.05132607339497344,0.22541697509509728,-0.20393554687280002,-0.49548339843,0.04479980468,0.021430277920371364,0.14565704631485443,1.2786120257996,0.46309785992,2.23905024541,0.212060131359987,0.45819158661676357,983.5697360413474,983.46624925972,983.71506564245,0.007265944166620075,0.24881638272995588,0.08481323437385155,0.0003294584488627704,-1.0490104171571484,0.61,0.39,0.6417098309556882,Stairs down
-1.1261328124972,-1.5185546875,-0.70056152343,0.04049371411143139,0.20022181941615924,0.25072753905959994,0.0595703125,0.50158691406,0.016045649220168656,0.12603647380011457,-0.17753417968440005,-0.41821289062,0.01794433593,0.015961507209308393,0.12570557719216482,1.1784179028780002,0.70331861161,1.5409356013,0.04612616483856969,0.21369347952191708,983.5833759305459,983.497666659,983.65047986996,0.0018724185220230388,0.15281321096006195,0.04305455070956853,0.0008968117196002186,-0.5209477155119635,0.57,0.43,-0.36884611772051773,Stairs down
-1.1129785156224,-1.44738769531,-0.87744140625,0.028804806892257565,0.16886905821770604,0.24786132812080006,0.11474609375,0.47729492187,0.006832433613866967,0.08224420513159755,-0.1982617187464,-0.40734863281,-0.00451660156,0.01246470475441157,0.11108581235633763,1.1636365114068001,0.89572984445,1.47505834451,0.03336880652529728,0.18175565592312198,983.6101995531324,983.56450233819,983.6567101104,0.0007387872529263024,0.09220777221003118,0.027044396469454432,-0.00014985111825804872,-1.1221029197245975,0.43,0.57,-0.2088228067715869,Stairs down
-1.0747656249964002,-1.38220214843,-0.71105957031,0.03134063051195186,0.17614546320252572,0.2420800781216,0.11083984375,0.38269042968,0.006389125814124423,0.079531343230095,-0.1846484374956,-0.4189453125,-0.00463867187,0.01345568218628051,0.11541717967624103,1.1234030705032003,0.72703936524,1.42210326091,0.036826347149957014,0.19094000020545052,983.602629942337,983.53547444976,983.67126791031,0.0008147667318463424,0.13579346054996222,0.028401039849411835,-0.00022212650069710913,0.3378324411083806,0.52,0.48,-0.13365010164330102,Stairs down
-1.1225683593708,-1.93298339843,-0.40173339843,0.13165432265410063,0.36102323945635356,0.21374999999640004,-0.03747558593,0.38891601562,0.011592873996910181,0.10713050572521852,-0.19198242187319997,-0.52380371093,0.08532714843,0.030107799827912972,0.17264623317533992,1.1795374478715999,0.43676547992,1.94939638524,0.12426150489803682,0.3507404878953333,983.6261316747754,983.51780864146,983.83494981629,0.006321328369685511,0.3171411748299988,0.07910824916523343,0.0005731856994642762,1.2982532661365473,0.64,0.36,1.3427098742121937,Stairs down
-1.008027343746,-1.53552246093,-0.607421875,0.07787838762473467,0.2776681540048972,0.2847070312464,-0.01257324218,0.48376464843,0.01463434036306487,0.12036609555615826,-0.1772705078088,-0.5068359375,-0.02404785156,0.016054253385750856,0.12607026156827528,1.0848028013855997,0.6908275208,1.57356492372,0.05988509695391681,0.24348767111370884,983.659238623727,983.58185126332,983.74763616603,0.001564193778666117,0.16578490271001556,0.03935164343301885,0.0008059140919535769,-0.009946331908992079,0.52,0.48,0.08748550900431329,Stairs down
-0.39333496093680004,-1.86364746093,0.71997070312,0.7657650841545333,0.8706936506676661,0.1359912109376,-0.17272949218,0.49182128906,0.04294388881717131,0.20619032452809127,-0.4757666015587999,-1.13391113281,-0.02221679687,0.08605077666485542,0.29187372080782964,1.051912892214,0.43732177987,1.96239001974,0.1806578580227776,0.4229081217505167,983.721029617865,983.63888504343,983.86514074162,0.003930855591145807,0.22625569819001612,0.062382265390368355,-5.4032102024228963e-05,0.20496095023166827,0.52,0.48,0.991648213347545,Stairs down
-0.9127539062468,-1.48498535156,0.63330078125,0.24843233705584852,0.49593146067303495,0.18021972655999996,-0.33129882812,0.46862792968,0.04512750726646424,0.2113675287119561,-0.2113574218708,-0.43994140625,-0.00927734375,0.013745580153295071,0.11665386556716464,1.0608161460396002,0.61259229801,1.52864808294,0.09007300759793584,0.2986172759937986,983.7413075229786,983.57072510749,983.8951926853,0.007015831168114615,0.32446757780996904,0.08334070347935317,0.002340514110579873,-0.38851496830904475,0.48,0.52,-0.1557026126811741,Stairs down
-0.9516210937468,-1.62365722656,-0.16479492187,0.16231763810834415,0.4008671372503123,0.42713378905839994,-0.06689453125,1.23522949218,0.10691835894650022,0.32534470236509955,-0.1611767578108,-0.44470214843,0.11376953125,0.033995004470043555,0.18345313958976858,1.1348085598239999,0.43663286377,1.6290123308,0.1276890415533017,0.3555448651545522,983.8586546338937,983.70490841808,984.10945065394,0.007099579977865637,0.404542235860049,0.08383665175856549,0.0008810977102321966,1.7085903706236225,0.68,0.32,1.227799418563088,Stairs down
-1.0446777343704,-1.56787109375,-0.52600097656,0.09855123360926595,0.3123551204529442,0.23406738280840003,0.09228515625,0.4560546875,0.009637457096330607,0.097678465003128,-0.2106103515584,-0.48156738281,-0.01489257812,0.015662096630464015,0.12452098483452248,1.1038030498912,0.5740508009,1.60632001857,0.09568377280960434,0.30777741158426214,983.9352643132693,983.89075007191,983.99642813849,0.0011832426703069446,0.1056780665800261,0.03422587096925183,0.0002254204262653504,-1.2132900552188128,0.56,0.44,0.2160074304015506,Stairs down
-0.09001464843600003,-0.46069335937,0.15246582031,0.021954521987636526,0.14742786971180233,0.5973242187463998,0.39025878906,0.79553222656,0.01082874249912613,0.10353963045199104,-0.35186035156159995,-0.88110351562,0.81091308593,0.4511863560093343,0.6683371098848552,0.9800715624259999,0.80514489294,1.09427915443,0.007367902073691353,0.08540622373664837,983.9945007473074,983.90479493711,984.02901664581,0.001077864860367565,0.12422170870001992,0.032666285551986,-0.0003505257903148437,2.1854368176375143,0.24,0.76,-1.7918465011729903,Lift up
0.10235351562319998,-0.12048339843,0.25756835937,0.014586784766543529,0.12017036622594646,0.8154638671844,0.51159667968,1.02734375,0.02554841056042976,0.159037500152717,0.1515722656244,-0.89050292968,0.806640625,0.3413519085253045,0.5813246850427491,1.0358541674184,0.89396698825,1.11430665693,0.0031415042470681687,0.05576817376064494,984.0288569386089,983.99539635362,984.07660373739,0.0006681404420060678,0.0812073837699927,0.025718845961395842,0.0002799455965752156,-1.035311017810638,0.52,0.48,0.46948285660409383,Lift up
-0.028819580075200007,-0.12255859375,0.00988769531,0.0008759029268715314,0.029447307136694453,0.8786669921831001,0.51184082031,1.05651855468,0.03499876125906848,0.1861418105812818,-0.30160888671580005,-0.90393066406,0.041015625,0.12576449928180886,0.35285528802752947,1.0114233134950001,0.96344993859,1.09206269087,0.0009089137839264221,0.029997077292415637,983.7957888232467,983.71736513013,983.94292844573,0.004123038851904774,0.22556331559997034,0.0638890324186063,-0.001913492676483432,0.2869697092568648,0.68,0.32,1.2228475796051577,Lift up
0.0800878906228,-0.02502441406,0.15319824218,0.004124998949708085,0.06390421707689567,0.8960400390588,0.75231933593,1.02685546875,0.008265793781131809,0.09046068672810577,0.4067871093715999,-0.04284667968,0.68981933593,0.06438676034482202,0.25247354859742,1.0244270616292,0.95272404413,1.15071482858,0.0013500475956527709,0.03655881726336676,983.6174971352875,983.50477550541,983.71042740884,0.003960981212174908,0.20565190343006634,0.06262085435422579,-0.002131176586292208,-1.204081145667678,0.44,0.56,-0.26626854710808906,Lift up
0.10613769530799999,0.02221679687,0.16235351562,0.0010457293192159289,0.03217564336612043,0.9426513671828001,0.72692871093,1.07653808593,0.009395309168724435,0.09644353828555437,-0.2616455078096,-0.72253417968,0.42602539062,0.09888133135565565,0.3128778004942171,1.0364849768840003,0.94487464632,1.13724810279,0.002265879811478033,0.047362654205220095,983.4372080669646,983.29538059022,983.5501842951,0.007344177936743292,0.25480370488003246,0.08526861179458628,-0.0026450179299687977,-1.5554842715808723,0.56,0.44,0.1285142884114481,Lift up
0.028862304685999998,-0.5419921875,0.51904296875,0.09141591953384988,0.3008351048972034,0.7494287109335999,0.25354003906,1.00463867187,0.05452852504407355,0.2323429357515154,0.168647460936,-0.44616699218,0.69787597656,0.17881704831051456,0.4207479980076072,0.9456975245816001,0.62626241504,1.20904181595,0.018271173177981912,0.13449335093677342,983.1394108756302,983.07001593645,983.25635735234,0.002432843844677966,0.18634141589006958,0.04907662790199818,-0.001396558070165165,0.29377750455087837,0.68,0.32,1.1483523596369645,Lift up
-0.8717431640591999,-1.06762695312,-0.61730957031,0.02035734234451987,0.14196397050334522,0.4448242187464,0.19750976562,0.59240722656,0.012383604290434546,0.11072383775651114,0.20193847656119998,-0.1484375,0.587890625,0.0651271963587483,0.2539210987593603,1.04333571972,0.82262404687,1.14921378154,0.006993854045318278,0.08321006853058766,983.1316347762449,983.07932466303,983.18369858565,0.0005710066806440024,0.10437392261997047,0.023775967148310966,-0.0001352461969402887,0.8831312321059794,0.64,0.36,0.060355650087752455,Lift up
-0.9390039062459999,-1.24645996093,-0.53698730468,0.033972834962851875,0.18339331125540909,0.4196777343711999,0.32946777343,0.66479492187,0.006595672983090896,0.08080665970859077,-0.06197753906239999,-0.751953125,0.291015625,0.05847362980555659,0.24060110869965048,1.0606525736924,0.69376000663,1.53253307887,0.03511796597488809,0.1864585377909502,983.1193051331153,983.05699381749,983.20005370891,0.001495451417163333,0.14305989141996633,0.038477225770469727,-0.00042388565276667273,-0.6080782944789838,0.44,0.56,0.3672561319916906,Lift up
-0.3689436204323762,-0.86291503906,-0.06909179687,0.05906822203684423,0.24183338924824116,0.507775032870495,0.17834472656,1.11218261718,0.06033304027954206,0.2444088448585508,-0.7053573155126731,-0.91320800781,-0.14929199218,0.04755676130581287,0.21699286228579742,1.0238181990326733,0.89284502208,1.20300619975,0.008670941735371931,0.09265576521242984,983.1491704216039,983.06819221035,983.24177511164,0.002159047246933748,0.17358290128993303,0.046234949351313906,0.0001556552954541505,-0.44522357469616036,0.45,0.55,0.2210526742479776,Lift down
-0.6709423828085999,-0.791015625,-0.64294433593,0.0008700614987152296,0.02934895030027611,0.5440283203082998,0.37548828125,0.59045410156,0.0019887628217555207,0.04437200912217032,-0.5452258300739,-0.71838378906,-0.51293945312,0.001687848054752744,0.0408774947153714,1.0232798888822,0.97314632279,1.13259544266,0.0008092674655174951,0.02830503119345252,983.1297729396224,983.06902472973,983.14920762059,0.000368352503987565,0.08018289085998731,0.019096307992585618,0.0005368496885335615,2.1047722218000926,0.36,0.64,-1.591156038416915,Lift down
0.3188171386698,-0.89453125,0.93469238281,0.35458762488082407,0.5924877624322851,0.4473791503882999,-0.21105957031,0.98864746093,0.10777286876744963,0.326642220295808,-0.2685217285141,-0.83361816406,0.34020996093,0.11249890708310084,0.3337273108576369,0.9638796567037998,0.71836834601,1.24778828456,0.015794263677388766,0.1250452759628083,983.1346083102158,982.99352661731,983.27123292441,0.0076852572507255254,0.27770630710006117,0.08722616968673032,-0.0004755583037261342,-1.135779624841304,0.48,0.52,0.07741629704555966,Lift down
0.007987060546600012,-0.857421875,0.8916015625,0.5504244939960803,0.738187136880696,0.35110229491849987,0.1279296875,1.21228027343,0.07125975382880918,0.26560714653510564,-0.5840087890585,-0.92993164062,-0.04479980468,0.04381713180851757,0.20827616399970592,1.0516804855428996,0.65395446471,1.32581771818,0.017391315653357987,0.13121510010979837,983.3018604014075,983.20246810206,983.4347571925,0.006387166501804326,0.23228909043996282,0.07951914761103947,0.0022019482529350223,-1.4551299905585098,0.48,0.52,0.2683333669033555,Lift down
-0.7218994140591,-0.73205566406,-0.67663574218,0.00013306706844831863,0.011477647745240984,0.45971923827699995,0.44946289062,0.47155761718,3.840645755276704e-05,0.0061662300457604865,-0.6148168945276998,-0.63610839843,-0.53735351562,0.0003713728141207476,0.019174438348476864,1.0538777377087998,0.98075010054,1.07205134823,0.0003631188879759801,0.01896016084046283,983.4961061912414,983.41083693455,983.5389218671,0.001461423160573561,0.12808493254999576,0.03803694163530798,0.001258432903165365,-0.7316642095681303,0.4,0.6,-0.6781955645924891,Lift down
-0.7309655761685999,-0.78381347656,-0.6748046875,0.0005093244756958812,0.02245509365241932,0.4546228027308999,0.3154296875,0.67297363281,0.014953654780268222,0.12167217525985775,-0.5238012695278,-0.65002441406,-0.37841796875,0.006653338965597162,0.08115913735335775,1.0178713998987001,0.9629744441,1.10020781472,0.0012053581565789238,0.03454424083712269,983.5683915692715,983.52459734918,983.59939465927,0.0003265214353758725,0.07479731009004809,0.017979327602057695,-2.6855821971086257e-05,0.28119387606683555,0.4,0.6,-0.5419539682307088,Lift down
-0.1755603027337001,-0.77001953125,0.59509277343,0.13071308433731682,0.35973039000610396,0.8121374511682,0.3154296875,1.22436523437,0.06786880813953976,0.25921057088426075,0.023096923827599997,-0.72680664062,0.57080078125,0.18181530432525775,0.4242607114522922,1.0296810583266998,0.87486282192,1.2273197145,0.007345727607096455,0.0852776074419627,983.5248081228705,983.43493359394,983.59181091975,0.001891301272488173,0.1568773258100009,0.04327110190142251,6.422801740923857e-05,-0.41315291862330605,0.52,0.48,-0.27361955334995575,Lift down
-0.7181738281220998,-0.732421875,-0.70080566406,8.893617476487582e-05,0.009383326330104216,0.7231994628860999,0.70861816406,0.74609375,0.0001206510521583161,0.01092906865367461,-0.1557934570275,-0.17724609375,-0.14245605468,4.6804884482819526e-05,0.006807116543588139,1.0311336306596,1.02051980773,1.05708245225,8.078351977333829e-05,0.008942912533151876,983.5903895933594,983.58733265009,983.59594979526,5.248559894885292e-06,0.008617145169978357,0.002279489920121701,1.8684218976317872e-05,-0.12835781642000343,0.52,0.48,0.8569292817287976,Lift up
-0.3976660156208,-0.7705078125,-0.26501464843,0.02695570777173423,0.1633589626987662,0.9171887206994,0.7392578125,1.00695800781,0.00648071455667746,0.08009935961735702,-0.33056030273079995,-0.42749023437,-0.09167480468,0.005882975842948431,0.07631609322101693,1.0707662915713998,1.02102909919,1.18086888356,0.0010396728525052426,0.03208233351831176,983.555535705222,983.48491729904,983.63075729241,0.0014600509395260779,0.14583999336991837,0.03801907981699211,-0.0012593795105556725,-0.5019622815025402,0.49,0.51,0.06087929897941423,Lift up
-0.2742907714804,-0.73046875,-0.134765625,0.02358784564075634,0.15281350458761417,0.9491577148401998,0.75476074218,1.02026367187,0.0050651453661593,0.0708130913920421,-0.22519897460539998,-0.482421875,-0.11804199218,0.011606382617850587,0.10719290457708515,1.0298337076658,0.84211788562,1.26073790888,0.006211805624342312,0.07841994368844503,983.3959445558987,983.30122820531,983.48491729904,0.0023638806856115958,0.18368909372998132,0.04837604653912388,-0.0012076613155492595,-1.065250873089714,0.49,0.51,-0.041316100211652156,Lift up
-0.6023034667922998,-0.6865234375,-0.56604003906,0.00083742697282751,0.028793275310378202,0.6801538085899,0.62670898437,0.79077148437,0.0013993160832756258,0.03721992641640858,-0.41342895507379995,-0.47985839843,-0.369140625,0.0005850324410736394,0.024066202788618377,0.9990022179624002,0.94998083408,1.08539811467,0.0011013096931261103,0.03301963955276994,983.2100362132315,983.13807788184,983.33221857523,0.0053675363624956516,0.19414069338995432,0.07289623446290415,-0.0021405439645845936,-1.4590214876669194,0.57,0.43,0.4838379462584593,Lift up
-0.8481274414022999,-1.08947753906,-0.61267089843,0.029526528993367124,0.17097152892640766,0.4788281249954999,0.14709472656,0.80871582031,0.046274252106119775,0.21403623428069038,-0.18956054687240007,-0.37231445312,0.00341796875,0.015200734523445779,0.12267325371983626,1.0344723035814,0.85600153561,1.17181691979,0.0045336208795992445,0.06699466150972966,983.1301586771563,983.08865523766,983.17770963822,0.0008643852533832848,0.08905440056003044,0.029253057974328974,-5.371059970876712e-05,-1.2090270373972887,0.49,0.51,0.10267349323771899,Lift up
-0.9766442871058999,-1.10400390625,-0.82080078125,0.003712293492088889,0.06062318498040168,0.3111291503873,0.12121582031,0.431640625,0.006448694508080408,0.07990123630457545,-0.10666259765310002,-0.21936035156,0.03039550781,0.00778212016853322,0.08777413609285989,1.0368648871378,0.85600153561,1.1855010349,0.004734549901477075,0.06846316091492054,983.1163894821541,983.0808158724,983.15111969581,0.0002511116670599003,0.0703038234100859,0.015767071712569247,0.00010510937396376612,0.37857753257623195,0.68,0.32,0.4598626760598791,Lift up
-0.8651782226527,-0.87084960937,-0.84167480468,2.0217239249761905e-05,0.004473820163715153,0.5306079101533999,0.51721191406,0.53771972656,2.3801706049137983e-05,0.004854244430253446,-0.08714843749580002,-0.09545898437,-0.078125,1.976576717826803e-05,0.004423585593891606,1.0186834523816,0.99574868452,1.02385524057,2.0335491830832603e-05,0.004486884989892684,983.1414776085545,983.13779806144,983.14493424132,4.266017811807695e-06,0.007136179880035343,0.0020550809311775577,1.64901116402005e-05,-1.0022713176317661,0.61,0.39,0.3774608931450761,Lift down
-0.8269641113243,-0.85107421875,-0.81469726562,6.186465272536672e-05,0.00782598276244671,0.5059912109340999,0.494140625,0.52551269531,4.381413410694394e-05,0.006586045305482988,-0.0819384765587,-0.09326171875,-0.06787109375,3.55806976859814e-05,0.005935056083064555,0.9729639238383,0.95696948105,1.00375485299,9.263707232843507e-05,0.009576570451114048,983.1758830104893,983.14035471195,983.24861318868,0.0009157976365817247,0.10825847673004318,0.03011045765537129,0.0010060860020966133,-0.6966352697218694,0.63,0.37,0.6695211428766144,Lift down
-0.8649999999961999,-0.87292480468,-0.85107421875,2.8617357963596906e-05,0.005322704611751524,0.5329357910126999,0.521484375,0.53881835937,1.7579063917117e-05,0.004171723058634865,-0.08643432616840001,-0.09533691406,-0.07739257812,1.7607830689349585e-05,0.004175135013679928,1.0196815987828,1.00375485299,1.02960704929,2.934685971481158e-05,0.005390119768396939,983.3570504391566,983.24861318868,983.47232456202,0.004253629170554986,0.22371137334005198,0.06489293396703093,0.0022403376446924386,-1.2013465003215527,0.55,0.45,0.00038385842602718125,Lift down
-0.8637622070273,-0.87182617187,-0.85461425781,1.610764950809376e-05,0.003993316042215144,0.5336279296841999,0.52490234375,0.54516601562,2.9371386825748703e-05,0.005392371737694947,-0.0798315429653,-0.08825683593,-0.0703125,1.9096358852506634e-05,0.004348033493889113,1.0184609997014997,1.01201670173,1.027335903,1.829758399924986e-05,0.004256125956695521,983.5790804129136,983.47232456202,983.69510450563,0.004138833641987267,0.2227799436099076,0.06401129045385193,0.0022099377635562615,-1.1811886687273392,0.47,0.53,0.015642526714099953,Lift down
-0.8619421386682998,-0.87390136718,-0.84790039062,4.250637659976329e-05,0.006487011086298964,0.5383105468712001,0.52612304687,0.55895996093,8.620599303104085e-05,0.009238178018458535,-0.07994995116799998,-0.09130859375,-0.07080078125,1.946042734074217e-05,0.0043892850291744265,1.0194362354157003,1.01298642365,1.03149201703,1.1053503009524787e-05,0.0033080157163214233,983.7961128068819,983.69510450563,983.90708111033,0.0036198020330155496,0.21197660469999846,0.05986321084510414,0.002061380775532281,-1.3078950179107616,0.47,0.53,-0.030000997283855024,Lift down
-0.8952233886682,-0.9091796875,-0.86437988281,9.724409140301555e-05,0.009811811784221374,0.5672961425746,0.55017089843,0.58325195312,6.762637483705936e-05,0.00818230475408297,-0.0729882812464,-0.08825683593,-0.05834960937,5.487109676003492e-05,0.007370372161053644,1.0623913999238004,1.03149201703,1.07825431186,0.0001203795084884172,0.010916762954444556,983.9986761969029,983.90708111033,984.05951914508,0.0018397506102022583,0.15243803475004825,0.042677313693580056,0.0014520649191951086,-1.0357846089575105,0.43,0.57,-0.43003557336868486,Lift down
-0.852633056636,-0.900390625,-0.78918457031,0.0009612756712225673,0.030849034255716036,0.5506298828083999,0.46862792968,0.60400390625,0.001435535459838452,0.03769854248164069,-0.10704345702680002,-0.18664550781,0.03259277343,0.0031538887156590174,0.05587799055533786,1.0227341948815998,0.94937729786,1.08316992328,0.0011562204776266103,0.03383279877353253,984.0840957798538,984.04489202244,984.1343908551,0.0005534583387752233,0.08949883266006964,0.0234077712605765,0.0003015175575102311,-0.3256716731643934,0.56,0.44,0.6333840651328044,Lift down
-0.8992248535119001,-0.97180175781,-0.78918457031,0.0020230308250381497,0.04475265932643297,0.43836669921509996,0.34436035156,0.60485839843,0.0049538412177575816,0.0700307275813982,-0.13191528320039997,-0.30249023437,0.05688476562,0.012138042899522139,0.10962053854331731,1.0173353410727,0.92131030034,1.09733999182,0.0021463754508235285,0.04609676448857656,984.0814553316892,984.01358247997,984.17127994727,0.002452588517628876,0.15769746730006773,0.0492753755181286,-0.0009459927246279416,-1.0706867498891777,0.55,0.45,0.5044296620132651,Lift down
0.33453124999649986,0.3232421875,0.34436035156,3.8723295388881495e-05,0.006191612264587688,0.6185571289028998,0.60607910156,0.62963867187,5.470489612158561e-05,0.007359201530082578,-0.7476818847622997,-0.75634765625,-0.73217773437,3.68611063047048e-05,0.0060409018566483725,1.0264771527637002,1.01678284889,1.0362019709,2.6182831472025313e-05,0.005091267342941742,984.0424113643944,984.03869632057,984.04755809734,7.372856885037126e-06,0.008861776770004326,0.0027016899000786073,-4.782773631208559e-05,-1.090011740357786,0.52,0.48,0.4275117478873189,Lift up
0.3455676269490999,0.32202148437,0.36328125,0.0001464546012639528,0.012041181638498493,0.6377795410121,0.61083984375,0.65795898437,0.00021534938255075885,0.014601229014204634,-0.7688598632776,-0.79626464843,-0.73852539062,0.00035832129946717235,0.018834491935608474,1.057073021681,1.01482270169,1.09450858921,0.0006503903274015025,0.025374917224051934,984.0392117924837,984.02012995331,984.04706018425,3.249150925124308e-05,0.026930230940024558,0.005671560116822412,-0.00014754917737840395,4.40288634590534,0.37,0.63,-2.128740027926031,Lift up
0.4078320312459999,0.05627441406,0.93994140625,0.04174774340894849,0.2032984652545587,0.5807958984334001,0.27331542968,0.6826171875,0.013831296737730214,0.11701702342117967,-0.6908081054645998,-1.28698730468,-0.11267089843,0.08768367300750148,0.2946299989434655,1.0515275204433998,0.79376099383,1.44117029321,0.017158221918983405,0.13033280362132002,983.9397748130614,983.81667203633,984.02012995331,0.004555315593483053,0.20345791697991444,0.06715476481641659,-0.0021267919937334972,-0.8793831637531082,0.41,0.59,-0.7066256388302491,Lift up
0.9420678710895999,0.91931152343,0.9638671875,0.0001962847721892522,0.013939939901856093,0.3325683593713999,0.162109375,0.42297363281,0.0040340303169891885,0.06319564869371384,-0.11790283202960002,-0.244140625,0.03015136718,0.010250760454763488,0.10073853706608932,1.0128821438128002,0.95186726649,1.03357931258,0.00040474013364430645,0.020017310816087742,983.724109587081,983.59836994418,983.84788270463,0.003965339180992097,0.2495127604499885,0.06265529338517357,-0.0020649206107452374,-1.045976923066109,0.53,0.47,0.13606555434367457,Lift up
0.8351391601521999,0.75341796875,0.92028808593,0.002668055145493491,0.05139430507399196,0.5022949218707998,0.31982421875,0.74853515625,0.013064488617954277,0.1137270580458966,0.15933349609240005,-0.15148925781,0.48950195312,0.04522367186510297,0.21159261600172144,1.0167888516504,0.9302076119,1.0921758632,0.0016483363328896282,0.04039619993960734,983.5100218661917,983.39763742437,983.61915782641,0.005063061918773259,0.2215204020399142,0.07079852611167499,-0.00230563232700413,-1.3238967512968933,0.45,0.55,-0.04839580563304358,Lift up
0.8077124023400001,0.75378417968,0.91040039062,0.0013232810870512219,0.03619458904561163,0.5271069335902,0.4365234375,0.65026855468,0.002612257491390005,0.05085405506423362,-0.22965087890339997,-0.48852539062,0.08911132812,0.02423254784292173,0.1548877734506262,1.0046113399422,0.93680247743,1.10490237173,0.001639425993077807,0.04028686799872918,983.3069925161716,983.19784172968,983.41377421253,0.004392817781847595,0.21593248285000755,0.0659461113639699,-0.0022554128258821028,-1.2607963724140205,0.45,0.55,0.05389200975400204,Lift up
0.8012499999968,0.61901855468,0.95556640625,0.009056417243631529,0.09468818865727242,0.45842529296439993,0.185546875,0.79809570312,0.038356944822231835,0.19486758420529957,-0.36226318358999987,-0.62341308593,-0.0458984375,0.014352903588931718,0.11920308113904775,1.019638073897,0.85008032012,1.13872752372,0.004925987040471243,0.06983356764527021,983.0582637304838,982.9252232285,983.19784172968,0.00788164975765554,0.2726185011799771,0.0883336473835366,-0.0029364874357782635,-1.4999391634653578,0.49,0.51,0.09913303460942545,Lift up
0.780092773433,0.4697265625,0.90026855468,0.013634841393761164,0.11618301502295227,0.3473144531216,-0.02355957031,1.45471191406,0.12955459320157578,0.35813272298068494,-0.3883862304646,-0.62414550781,0.09826660156,0.03657064029061336,0.19027594143166715,1.0193418331902,0.84080473456,1.53563677811,0.019111747245320162,0.1375522801441945,982.8341869340383,982.73294816964,982.95061866629,0.0038299449029654286,0.2176704966499301,0.061576338425857816,-0.0021035903425258053,-1.2412654688989,0.49,0.51,0.180309722257852,Lift up
0.8303833007773999,0.67211914062,0.904296875,0.0035829828544345264,0.0595579803711491,0.08642333984119999,-0.03247070312,0.38818359375,0.007081683530630687,0.08373091839532384,-0.49793701171619986,-0.75500488281,-0.40686035156,0.008179287266146862,0.08998607888715561,0.9813449155635996,0.9281193627,1.019306772,0.0005700589173152906,0.02375622714452229,982.6913629044756,982.59352522024,982.76250759498,0.0017287488332252095,0.16898237473992594,0.04136981199972944,-0.0006117344682349562,0.661298867984299,0.49,0.51,-0.7078335693098079,Lift up
0.7967944335894,0.6572265625,0.89990234375,0.0031208544126087394,0.055584583010783235,0.34855224609020014,-0.23327636718,0.708984375,0.0755188793905302,0.27342949840246733,-0.4370239257763999,-0.82055664062,-0.16906738281,0.045040945362337964,0.21116471274508575,1.0331643714314003,0.92423668309,1.14582192097,0.0023991952888172915,0.0487360578620093,982.6426140546216,982.59575689484,982.67677453795,0.00044490142761753935,0.08101764311004445,0.02098695817266914,-0.00014742926655555982,-0.7283356687042928,0.48,0.52,0.02151349248140142,Lift up
-0.9137915039018,-1.36120605468,-0.39965820312,0.05776679954730601,0.23914249215025118,0.48394042968479994,0.27600097656,0.68859863281,0.0128340818423708,0.11271974549273563,-0.138310546873,-0.49841308593,0.22204589843,0.042184472660688074,0.20435906619007924,1.0646488690526001,0.48992449628,1.5680061123,0.06719529858732103,0.2579212003722218,982.7084836621613,982.62635061652,982.86950777166,0.0045472684298682245,0.24315715514001113,0.06709542268716653,0.0012154142537830516,0.2666973233639678,0.58,0.42,1.047331320022791,Stairs down
-0.8093920898392,-1.11206054687,-0.51403808593,0.024480125043367218,0.15567698543115982,0.5482495117153999,0.29907226562,0.76965332031,0.019212232581392614,0.13791341579258592,-0.0887329101554,-0.38598632812,0.21496582031,0.02388770787914937,0.15378176354938147,0.9989138768086002,0.6587805889,1.34213737265,0.0329716597009416,0.1806708142006677,982.7723580803821,982.69697761391,982.85559594855,0.0018876472730692657,0.1586183346399821,0.04322928174673474,0.0006739956195687826,-0.615714946880725,0.6,0.4,0.42884074536433914,Stairs down
-0.8865356445269998,-1.67333984375,-0.478515625,0.0975103102851593,0.31070115413739247,0.5770288085897999,0.36352539062,1.02770996093,0.029092230272983535,0.16970948108533507,-0.1722680664018,-0.42993164062,-0.00720214843,0.01384496766517498,0.11707483926328163,1.0881203224236002,0.68988304674,1.97251556952,0.10466785730588282,0.32190243666804386,982.8449791545594,982.74385210359,982.96638811101,0.0031180306319090693,0.2225360074199898,0.05555943057294575,0.0008108060938006052,-0.30467432682489815,0.42,0.58,0.25093890259497603,Stairs down
-0.8577319335895999,-1.51843261718,-0.47253417968,0.08448067289997876,0.28919866211823836,0.5529614257769999,0.31616210937,1.00427246093,0.02971312916022579,0.17151092638261717,-0.17424316406000004,-0.42993164062,0.08190917968,0.014144681920559968,0.11833526567069669,1.0494484127155999,0.57054808728,1.82049557579,0.0985295118300122,0.31232069529845774,982.9333201190905,982.84813058427,983.04732918251,0.0028368399866672204,0.19919859823994557,0.05299501473535551,0.0011146705215386425,-0.04599575045943016,0.58,0.42,0.7236214305219361,Stairs down
-0.8719165039027998,-1.35424804687,-0.57263183593,0.04689671283445065,0.2154709857639913,0.5675805664027999,0.28991699218,0.9248046875,0.029116069963374944,0.16977900124497491,-0.1296557617158,-0.31652832031,0.09338378906,0.009049056762130516,0.09464970255901077,1.059584226577,0.68640962745,1.63201701485,0.06130221579489972,0.2463517680816412,983.031846945018,982.9608869718,983.11721954338,0.001885433543701105,0.15633257157992375,0.0432039258431927,0.0008065755411220424,-0.8103226916478192,0.5,0.5,0.10575771745341526,Stairs down
-0.8479443359337998,-1.13269042968,-0.57458496093,0.020933629141912442,0.14395934443617517,0.5305664062468,0.29138183593,0.85400390625,0.013067434532612249,0.11373987949389663,-0.0959814453106,-0.32434082031,0.10974121093,0.012803752638531294,0.11258647837172091,1.0149922244036,0.66655777374,1.39003124848,0.026111412803070784,0.1607802807406433,983.0703442600159,983.03408115355,983.14250579832,0.001082238132111778,0.10842464477002522,0.03273248769633405,0.00044660448390176937,-0.5291207591269473,0.66,0.34,0.8499296757796085,Stairs down
-0.9153637695272,-1.44580078125,-0.50219726562,0.045376920706250184,0.2119508233038685,0.4943603515585999,0.17810058593,0.85400390625,0.035456331089493566,0.18735465774460647,-0.09207519531080002,-0.34643554687,0.119140625,0.013902310794771906,0.1173170392007239,1.0626838844648,0.56975326815,1.5993821771,0.05581009900319845,0.2350574355623886,983.1138015192736,983.07560155263,983.20487019325,0.0013719937748238396,0.12926864062001187,0.03685476681618812,0.0008766143155322312,0.3917460109503872,0.62,0.38,1.0017222820330622,Stairs down
-0.8909594726521999,-1.09350585937,-0.57385253906,0.017281612850220528,0.13080059908776537,0.4692480468706,0.185546875,0.76489257812,0.025382268813907507,0.15851954493300954,-0.03235839843600001,-0.42517089843,0.14367675781,0.016373053246415074,0.1273158384253543,1.0236404373283998,0.64168087078,1.37384236436,0.02591555351494093,0.1601761467253833,983.1265463554508,983.05036888937,983.23092325627,0.002096723895342723,0.18055436689996895,0.04556047252157615,-3.5744247800992666e-05,0.22288792633482934,0.48,0.52,0.6950452680863145,Stairs down
-0.8677807617154,-1.23071289062,-0.57385253906,0.02028909717527965,0.1417258134692719,0.4877734374958,0.25463867187,0.79174804687,0.016623768156365952,0.12828690687206662,-0.03739746093719999,-0.36987304687,0.10534667968,0.014951372844106584,0.12166289128434159,1.0090383793368,0.64168087078,1.36000993852,0.025810193567662662,0.15985021624003526,983.1237253054595,983.04970740026,983.23737408618,0.001711219097296229,0.18766668592002134,0.04115952995751126,-0.0003345451988707681,0.5056678074946741,0.54,0.46,0.5237202268486828,Stairs down
-0.9040551757775998,-1.26147460937,-0.64733886718,0.023290533303078235,0.15184738381034904,0.5144799804655998,0.2783203125,0.8515625,0.020877511748036003,0.14376625692614955,-0.0661230468746,-0.35986328125,0.11352539062,0.016858574380029894,0.1291897388968241,1.0562433080108002,0.75468619921,1.39343434424,0.03145868282316751,0.1764768993237807,983.134370725707,983.06938479432,983.19484049798,0.001219402227789475,0.12545570366000902,0.03474490186360555,-0.00035882991580470916,-0.6236559499256504,0.46,0.54,-0.2685393386468594,Stairs down
-0.8686621093711997,-1.22619628906,-0.41931152343,0.03626049277774014,0.18946737938221117,0.49491943358939994,0.30895996093,0.79821777343,0.015013358743232574,0.12191482746491605,-0.0462792968732,-0.22399902343,0.12475585937,0.008753979229544472,0.09309371319938327,1.0127152077027999,0.56057146397,1.36254700177,0.035854888742237294,0.18840472354698257,983.1339072598691,983.0764933669,983.24271884226,0.0017004539952534983,0.16622547536007914,0.04102986053231187,9.254363491679114e-05,0.1516198645604696,0.64,0.36,0.7655209626229369,Stairs down
-0.8379907226533999,-1.30981445312,-0.55578613281,0.04289244743896203,0.2060667924838265,0.5499658203091998,0.27990722656,0.86145019531,0.02082693723708391,0.1435920188057577,-0.21994628905919997,-0.48034667968,-0.02685546875,0.014265398184201979,0.11883915264911626,1.0395367310477999,0.71461497747,1.49855904608,0.05013691380265963,0.22279036034943936,983.1919756858675,983.08390179634,983.33867897959,0.0048825961786592605,0.2547771832499848,0.06952532068874381,0.0006276536092557777,-0.3854683503683347,0.64,0.36,0.8301289607743763,Stairs down
-0.8197167968705997,-1.29968261718,-0.53100585937,0.03591413849551226,0.1885603275096783,0.5247656249966001,0.3447265625,0.80944824218,0.016148237049908025,0.12643873883983875,-0.11511474609240001,-0.43884277343,0.09313964843,0.01926594399969195,0.13810606271882142,0.9975033882579999,0.72515652093,1.55747749874,0.03653335331544908,0.19017891518855234,983.2159613965615,983.11522926418,983.32755714761,0.002962682093618602,0.21232788343002085,0.05415768895256163,0.001203655034863657,-0.546653769312889,0.46,0.54,0.09289551738250723,Stairs down
-0.7948437499962,-1.25524902343,-0.47424316406,0.058339975554235236,0.24032597820188498,0.5573876953093999,0.35327148437,0.7939453125,0.015720800703213564,0.12475412897448095,-0.19684082030939998,-0.43054199218,0.03149414062,0.016167397595275166,0.12651372897564284,1.0053287402997997,0.64654821904,1.39692212159,0.06044843875991409,0.24463024010190348,983.2876805238033,983.1790059428,983.39014199802,0.0022988222387148377,0.21113605521998124,0.04770570213640807,0.0010111541580692942,0.18110504809645267,0.48,0.52,0.22882338449326495,Stairs down
-0.8447607421843998,-1.23840332031,-0.55322265625,0.057410940401625185,0.23840476295076182,0.5242041015584,0.32458496093,0.7421875,0.014010218683120686,0.11777145875079191,-0.18773681640280004,-0.42590332031,0.00561523437,0.011406906572238982,0.10626776325168696,1.0232551380908,0.6914308188,1.42034856899,0.059196435584312396,0.24208360379932647,983.3694285651604,983.26831687367,983.46963632396,0.0021350085375131315,0.20131945029004328,0.045974541347772034,0.0008231393465780217,0.010055967721874115,0.66,0.34,0.5067101205593761,Stairs down
-0.8629272460906,-1.32971191406,-0.55712890625,0.06669618941914353,0.25696152927034055,0.537700195308,0.26403808593,1.00427246093,0.02897431956409352,0.16936521593424247,-0.158789062497,-0.50317382812,0.13513183593,0.02388118071949257,0.1537607521843518,1.0529226132638,0.68118465442,1.54855668045,0.06938287043595634,0.26208594340711366,983.4591399538309,983.38276561248,983.54350704982,0.001607159217868391,0.16074143734010704,0.0398884397500041,0.000621595465255819,-0.38188202520136727,0.58,0.42,0.5694486457790473,Stairs down
-0.8724096679656,-1.36926269531,-0.44970703125,0.05054298090821447,0.22369074880095582,0.4742700195279999,0.2275390625,0.67626953125,0.01184281453325191,0.10827920570413965,-0.137092285154,-0.3642578125,0.13513183593,0.020359829465055632,0.1419726423308557,1.0247845999176,0.66116661988,1.43403927275,0.03692895682837261,0.19120582433620814,983.5164478767138,983.46454921798,983.61407836392,0.0013901780536156913,0.1495291459400505,0.03709819770662093,0.0003356508431140431,0.4527184884897695,0.54,0.46,0.7873515572052646,Stairs down
-1.0226342773408001,-1.43811035156,-0.55969238281,0.061895488542641666,0.24754097369368014,0.24343994140240002,0.04406738281,0.5458984375,0.012482995222334753,0.11116728507124479,-0.18865966796700004,-0.46630859375,0.19104003906,0.04100664592057017,0.20148592869320792,1.091994556165,0.57050483543,1.48005671038,0.0630459679520467,0.2498309593956006,983.5934044623349,983.52811082153,983.7700391233,0.0031737098622520955,0.2419283017699172,0.05605330287886321,0.0004841737524742818,1.8859641192730727,0.62,0.38,1.3137625611240058,Stairs down
-1.1558032226526,-2.01684570312,-0.55126953125,0.14967914278458386,0.3849446081668608,0.2485229492158,-0.26025390625,0.66967773437,0.0533302602429939,0.22977588568116533,-0.185307617185,-0.46520996093,0.4619140625,0.04386867595370532,0.20839863049974264,1.2382761938538,0.60411641854,2.04633230192,0.14451012595393886,0.3782393748598888,983.628015573101,983.52766507928,983.74747034128,0.0034505581866388045,0.2198052619999089,0.05844700680764086,0.0003884832406411682,-0.5261782751274353,0.6,0.4,0.1553316479758051,Stairs down
-1.0541748046834,-1.90417480468,-0.36975097656,0.1252883672713335,0.3521867169536923,0.18030029296519998,-0.0068359375,0.36291503906,0.010774184652045549,0.1032784721300867,-0.20186523437160006,-0.55029296875,0.05200195312,0.02965765375051883,0.1713507432520024,1.1081523896282,0.4226482863,1.92693097225,0.12182179020006076,0.34728025037145455,983.6889577826524,983.60467258229,983.81786324104,0.004820310771369747,0.21319065874990883,0.069080443423997,0.0008735521852972447,-0.9311249934538877,0.52,0.48,0.5753018010091295,Stairs down
-1.0706030273395999,-1.77026367187,-0.58850097656,0.09088742365133844,0.2999642468942341,0.3153540039024,0.12536621093,0.57409667968,0.013932055830881343,0.11744247644090501,-0.1437280273412,-0.35827636718,0.08557128906,0.013521139121566281,0.11569757011428813,1.1379490968555999,0.61147886617,1.82123874461,0.08942000116647195,0.2975328572692556,983.7806591215468,983.669119987,983.87843655855,0.002936601498039873,0.2093165715499481,0.053918785993932336,0.0012068024112327053,0.2591965626961663,0.48,0.52,-0.47191801791347215,Stairs down
-1.0474267578082002,-1.62805175781,-0.58850097656,0.07507181001451034,0.2726189500279928,0.2834863281219999,0.09106445312,0.45007324218,0.011105745392673012,0.1048555575005268,-0.11055664062360002,-0.35632324218,0.06127929687,0.012704612293026378,0.11214974886327705,1.1006103826506002,0.61147886617,1.65781004327,0.07701031678534281,0.27611630451222796,983.8839767654459,983.7840966373,983.96148633649,0.001391583062951663,0.17738969919003011,0.037116939964417145,0.0005930642018954106,0.016001103467628397,0.66,0.34,0.21665992881558516,Stairs down
-1.1964819335895998,-1.84545898437,-0.7265625,0.10491635467627519,0.32228433273976015,0.29085449218459997,-0.09948730468,0.68981933593,0.040542855671127025,0.20034327319482367,-0.15264404296560002,-0.39855957031,0.06127929687,0.012559943855197065,0.11150939160736684,1.2682855251859997,0.73239404243,1.86626528067,0.08823873348248332,0.29556107008139365,983.9567895026141,983.8498868099,984.04150433893,0.0026512865397590995,0.19161752903005436,0.0512325450701164,4.790310134898104e-05,-1.1090258977100085,0.56,0.44,0.2489901402240141,Stairs down
-0.8499218749982,-1.66394042968,0.19128417968,0.395210918847657,0.6255068422161187,0.362709960934,-0.09948730468,1.28271484375,0.11180878133509044,0.33270210928357447,-0.1541992187486,-0.5537109375,0.30310058593,0.06267562658926092,0.24909610660018014,1.1148019257292001,0.24681319175,1.73420894532,0.2009274225433573,0.44600240842166283,983.9735102108021,983.8498868099,984.18123038566,0.006115574877517549,0.33134357576000184,0.0778101479804683,0.0012447984739058135,0.15600489314507326,0.62,0.38,0.7324477759883452,Stairs down
-0.9643798828095999,-1.474609375,0.13842773437,0.2100679465000038,0.4560342827408963,0.24404785156060002,-0.15173339843,0.91418457031,0.06915253554891643,0.26165054976710306,-0.2854760742156,-0.7060546875,0.0849609375,0.04066018678325348,0.20063296069046319,1.1132649940164001,0.22009605705,1.72727867738,0.14990648121961048,0.38523683158209887,984.0169911201061,983.91428898051,984.21120636237,0.004473378239001877,0.2969173818599984,0.0665480612535922,0.00018614078564824145,3.32474221777196,0.64,0.36,1.6539987474632416,Stairs down
-0.933378906247,-1.474609375,0.00830078125,0.11897490275036293,0.34319841742475926,0.4054150390593999,0.09973144531,1.1591796875,0.10018003189256594,0.3149257556530432,-0.1126611328096,-0.28845214843,0.29321289062,0.015459859515228856,0.12371443294974345,1.1195494451644,0.7710150921,1.48646980342,0.027401771125226727,0.1647050497525029,984.0161582108936,983.96004352435,984.08307766239,0.0012830750582894653,0.12303413803999774,0.03564048691736086,-0.00045019022493966493,-1.0196391791068418,0.58,0.42,0.42967602157556906,Stairs down
