avg_accX,min_accX,max_accX,var_accX,std_accX,avg_accY,min_accY,max_accY,var_accY,std_accY,avg_accZ,min_accZ,max_accZ,var_accZ,std_accZ,avg_magnitude,min_magnitude,max_magnitude,var_magnitude,std_magnitude,avg_pressure,min_pressure,max_pressure,var_pressure,range_pressure,std_pressure,slope_pressure,kurtosis_pressure,Pressure_below_avg,Pressure_above_avg,skew_pressure,Label
-0.8700024414038,-1.515625,0.52355957031,0.3651412047552138,0.6012402121512346,0.34717529296619987,-0.00598144531,0.66638183593,0.03143302744666036,0.1764049238887445,-0.2962963867158,-0.88110351562,0.08825683593,0.05234318779515767,0.22763953065582895,1.1605009629332,0.5568618201,1.5431000376,0.06352751687069244,0.25078325642272353,948.3525018792425,948.22847275818,948.43716068343,0.002727918458888882,0.20868792524993296,0.05196767528281396,-0.00012223230461093782,-0.4561481299460963,0.42,0.58,-0.5171197068888402,Stairs up
-1.2469384765588,-1.515625,-0.96032714843,0.01708242076827276,0.1300445945073844,0.251486816404,-0.09094238281,0.64245605468,0.03848269954434472,0.19518676325227916,-0.025114746093799996,-0.35961914062,0.19592285156,0.02185240406496764,0.14708460158805872,1.2951782546512,0.97637725599,1.54169824176,0.018069264070290834,0.13374816421016,948.2878330919392,948.17915884457,948.46934101877,0.007229061394712765,0.29018217420002657,0.08459769961863997,-0.0005434128258334222,-0.6477304530291468,0.52,0.48,0.6790285825407115,Stairs up
-1.1720190429652002,-1.47094726562,-1.01135253906,0.012421769138447463,0.1108943255855005,0.24203124999640002,-0.02197265625,0.58374023437,0.03724463060621877,0.1920213120988308,0.021430664062,-0.08996582031,0.12585449218,0.004328642926521153,0.06546263435927355,1.2126988927866,1.01453806595,1.49304911318,0.015639923321733324,0.12443280953396492,948.2156118559734,948.15418091475,948.35336553105,0.003057569402271757,0.19918461630004458,0.05501812163504893,3.08499315823367e-05,0.569854390936174,0.6,0.4,1.1711500344234937,Stairs up
-1.1280419921824,-1.27685546875,-0.96228027343,0.006497377602882201,0.08020226821514077,0.22575927734039997,0.01818847656,0.4892578125,0.018362572150850232,0.13482932332894698,0.046457519528800006,-0.09716796875,0.15856933593,0.005759028526992145,0.07550786874043144,1.1611600966913997,1.00281609446,1.29721299902,0.007701320107033837,0.08731727724776751,948.1483128169923,948.07664676954,948.21341596475,0.001463797294542548,0.13676919520992215,0.03806782528063723,1.0953020131352687e-05,-0.9180971409748051,0.62,0.38,0.2944099980094055,Stairs up
-1.1166259765584001,-1.27978515625,-0.88061523437,0.016377832552384432,0.1273344188617539,0.23777587890240004,0.07556152343,0.48486328125,0.014055383332135265,0.11796113554393206,0.045336914062,-0.17736816406,0.19897460937,0.010283756737113863,0.10090054097844434,1.1526379088760002,0.9198005175,1.31298427503,0.017355585665611264,0.13108024187098202,948.0861070328524,948.01777483368,948.13581573934,0.001364505110414367,0.11804090565999559,0.03675404820302416,-0.00042345810897644433,-1.0557066416359737,0.42,0.58,-0.2596727448280332,Stairs up
-1.0716137695272,-1.26684570312,-0.82275390625,0.014947064964364218,0.12164536289855268,0.2186108398404,-0.07690429687,0.40881347656,0.016002563520853656,0.12586714378917604,-0.0193261718754,-0.26293945312,0.27221679687,0.023274960203737323,0.1517966093221451,1.1112397543936001,0.86578923984,1.29840106683,0.015503860919420555,0.12389036407334651,948.0299770681808,947.96365016012,948.13581573934,0.002020361526815026,0.1721655792200636,0.044723125019914205,-0.0006499518379780305,-0.5660514844721241,0.62,0.38,0.6813401694960249,Stairs up
-0.4995654296835999,-1.232421875,0.0107421875,0.11299660600840117,0.3344647065810041,0.7972167968714,0.12365722656,1.2236328125,0.06492963102181332,0.2535356675333772,0.016452636718,-0.24145507812,0.2607421875,0.024972404066237776,0.15723447467262197,1.0214786348248,0.632105892,1.43350219953,0.043274729578751836,0.2069830482985607,947.9909319962724,947.83827677987,948.11356552131,0.007415536436963742,0.275288741440022,0.08568185964715112,-0.001665399523292811,-0.7927589004813793,0.32,0.68,-0.6848931484745726,Stairs up
-0.9605126953091999,-1.12268066406,-0.7265625,0.01422751506160155,0.11868125341007119,0.42608154296439993,0.23291015625,0.99975585937,0.0404149066375298,0.20002689211992097,0.0138696289062,-0.23498535156,0.14123535156,0.009927887440289168,0.09913933914388513,1.0754992284578,0.8826667277,1.27051942953,0.011665152874668855,0.10746395370505482,947.9410007155956,947.88028670212,948.04684987351,0.001988014510657377,0.1665631713900666,0.04436366041650309,0.00019547913874439908,-0.5933548585206223,0.5,0.5,0.39505664182044786,Stairs up
-1.0713989257788001,-1.17456054687,-0.89489746093,0.004529526287916955,0.06696440117732544,0.3517041015597999,0.14965820312,0.57141113281,0.017001352141543902,0.12973564899490217,0.0205541992186,-0.19323730468,0.19189453125,0.011526161907222696,0.10682181560032797,1.1392847423869998,0.94427833263,1.26447482298,0.006839044456761266,0.08228398393486823,947.9629041829081,947.88071882981,948.04951316872,0.002100387877431191,0.16879433890994733,0.04560026314240828,-0.0003380428000341849,-1.0193812104044708,0.46,0.54,-0.12278655230524067,Stairs up
-1.055527343746,-1.19592285156,-0.927734375,0.003826315138017657,0.06154715254694957,0.2681030273408,-0.04748535156,0.53076171875,0.023575541497420603,0.15277364328458753,-0.0038793945316,-0.30090332031,0.23950195312,0.026772169325123975,0.16280186618055928,1.110558466634,0.97420110923,1.2609573937,0.006388317428905825,0.07952631171264493,947.9655376715943,947.88722471213,948.06791870696,0.003153622763780479,0.18069399482999415,0.05587563454800915,0.0002518211379592669,-0.9576582086782,0.52,0.48,0.3981275969455302,Stairs up
-1.0526733398404,-1.19592285156,-0.8408203125,0.00812630837012945,0.08969417643541946,0.336745605465,0.134765625,0.59350585937,0.015315972126977068,0.12313737209193355,-0.0054809570314,-0.13024902343,0.10522460937,0.004445061689217463,0.06633710177815494,1.1124021456528002,0.88679309146,1.3331801083,0.011837110314783236,0.10825312564372172,947.9616426393305,947.90964479826,948.05520995134,0.001188757939104207,0.14556515307992868,0.03430554415416209,0.0004980302714405799,0.47721734237293667,0.44,0.56,0.8022516777494314,Stairs up
-1.1119653320271998,-1.33679199218,-0.96911621093,0.008325224145499995,0.09078530665281137,0.29680175780840007,-0.01904296875,0.611328125,0.031500971678744806,0.17659547548552132,-0.0084741210926,-0.21984863281,0.13403320312,0.005954252402768911,0.07677701399990249,1.1656565695818,0.98575028215,1.35628021861,0.011310504375089809,0.10581776472473282,947.9352858048032,947.8611701086,948.00734209917,0.001584424692544892,0.14617199056999652,0.03960530830102756,-0.0002393028200538229,-0.7750758151148549,0.56,0.44,0.2074890267346439,Stairs up
-1.0873828124962,-1.29907226562,-0.94006347656,0.010429924401372796,0.10161508331620393,0.2562915039043999,-0.09436035156,0.51025390625,0.028872064995832798,0.1690660946076252,-0.11037597656060001,-0.39624023437,0.2880859375,0.038309633128671465,0.19474736659935804,1.1518675893959998,0.96026325607,1.38382535145,0.010410237258842403,0.10151913556691654,947.8908106289682,947.80148540533,947.99449370164,0.003404881864297708,0.19300829630992666,0.05805887568369483,-0.00036063403969218316,-0.9533667919892386,0.62,0.38,0.31257627692357504,Stairs up
-1.0200976562464001,-1.23486328125,-0.82897949218,0.009179962259436271,0.09533185530997447,0.288481445308,0.05834960937,0.439453125,0.010528418488002912,0.10209375251758984,-0.0418457031248,-0.18310546875,0.08386230468,0.0060105371953896765,0.07713904214751295,1.0701273305863999,0.94434472664,1.25588130783,0.005920263164412925,0.07655756352424492,947.8418350558476,947.76113469522,947.91992211435,0.0018437029486444972,0.1587874191300216,0.04272313096155351,-0.00029651944954672794,-0.9368652808349922,0.48,0.52,-0.043850682001019756,Stairs up
-0.970952148434,-1.81787109375,0.26232910156,0.24681053375842654,0.4943100529231044,0.42326416015300006,-0.13696289062,1.22546386718,0.11321967833489377,0.3347946856680148,-0.050859374998,-0.45104980468,0.193359375,0.021777524345366592,0.14683238437726512,1.1593395984432002,0.50057987026,2.19848436591,0.1600087418193472,0.39800584719467846,947.7571559178494,947.65643846166,947.88843328167,0.003652656901107985,0.23199482001007254,0.060134269198992556,-0.0009773067961421106,-0.06695801376840338,0.62,0.38,0.623689734480385,Stairs up
0.5217260742143998,0.1171875,1.03356933593,0.04889553513792714,0.22001495355213443,-0.5919213867157999,-1.23059082031,-0.13696289062,0.06587889308290462,0.2553822706298845,-0.2850146484358,-0.83520507812,0.03735351562,0.060539505312287856,0.24481444046290443,0.9118482892270001,0.49233608425,1.38440131384,0.046359460629049595,0.21423320476237828,947.7151682138193,947.53762686332,947.93374959121,0.01140916394517162,0.39612272788997416,0.10627827767573157,0.00020965517904770762,-0.564345321905102,0.62,0.38,0.5995596538454766,Stairs up
-1.3231518554654003,-2.34338378906,0.14624023437,0.2643807589463954,0.511602337130052,0.34126953124859993,-0.66345214843,1.05480957031,0.24377096749057858,0.4912568145233945,0.17462158203000008,-0.46008300781,0.75500488281,0.08547671229409008,0.29089851352516255,1.5162307128345998,0.71849206774,2.38366370709,0.18830808312311012,0.4317696171477088,947.5649951225615,947.43307664551,947.87412340906,0.011464033158753134,0.44104676354993444,0.10653352912189477,-0.00016579612620197057,1.7927124719940197,0.58,0.42,1.2222307216982915,Stairs up
-1.6647509765592003,-2.84240722656,-0.52062988281,0.496751793563303,0.7012733244803128,0.0165014648444,-0.61218261718,0.5576171875,0.09486204246494662,0.306452968724888,0.132788085936,-0.29528808593,0.50158691406,0.052497962507235506,0.22797583837363808,1.7297120583678,0.71549838999,2.85066670234,0.4394622866130332,0.6595965916732005,947.595561295164,947.52734391201,947.69339177918,0.0014017938655075713,0.16604786717005027,0.037252864679813494,0.00034492647322675966,0.2068631825968743,0.66,0.34,0.8584424098667582,Stairs up
-1.0564733886678999,-1.80932617187,0.00354003906,0.1059866946919724,0.323924108002249,0.4355993652306999,0.21325683593,0.64477539062,0.013132364537789676,0.11402210703373175,-0.2788403320267,-0.52172851562,-0.07861328125,0.013028012568133516,0.11356818411180211,1.2016444925311003,0.64823176096,1.88398742817,0.07122310441456485,0.265538835898667,947.4993310772766,947.4517316204,947.52780207765,0.00021578694932654975,0.07607045725001171,0.014616055549746801,0.00019497919525467223,1.1398963202201484,0.6,0.4,-0.013138268495200469,Stairs up
-0.5087475585901999,-1.65771484375,-0.05541992187,0.1020967262617766,0.3179241403214906,0.7953308105435,0.09765625,1.595703125,0.10660156980173453,0.3248623617837517,0.0562255859363,-0.69873046875,0.51293945312,0.1077463861654375,0.3266020855778222,1.0685519492209001,0.74676069438,1.70236487005,0.06668026293635736,0.25693084732471067,947.4616314895247,947.39820449414,947.62557836402,0.0029576667681522353,0.22737386988001163,0.05411182957977593,-0.0011799902480172943,1.2934463893966583,0.56,0.44,1.1711482690860688,Stairs up
-0.03505493164060001,-0.94152832031,0.57824707031,0.19020206550293306,0.43393553075071384,0.7549792480434999,0.36853027343,1.15844726562,0.038312411156400494,0.19475442753590094,0.31336547851319996,-0.84619140625,1.10266113281,0.308988696422854,0.5530811960812132,1.0635073052226998,0.4214413498,1.61086088399,0.07121291860861455,0.2655198475114966,947.4133230514772,947.32341701028,947.55485478966,0.0028973190086574703,0.2314377793800304,0.05355693996645902,-0.0005931123512496764,1.9407123393355326,0.62,0.38,1.4535581629495367,Stairs up
0.4345666503864999,0.32409667968,0.61743164062,0.0074415376857178625,0.08583194224099024,0.7036474609331997,0.45629882812,0.98962402343,0.0224860936946064,0.14920198644006163,0.5940454101534,0.38500976562,0.8447265625,0.016970643846674932,0.1296184300483854,1.0254451728473999,0.73444001944,1.30038029559,0.03207006282145344,0.17818350707413666,947.3583894093472,947.30781453013,947.38639148067,0.00028362829787523746,0.0785769505399685,0.016756849790353946,-0.0004937110620716809,0.06625005332360834,0.58,0.42,-0.2253152328325051,Stairs up
0.4375769042940999,0.32336425781,0.580078125,0.004084685130277297,0.06359118082701817,0.6852709960908999,0.38696289062,0.95263671875,0.024445415331944362,0.15556658117547265,0.6410473632779998,0.42150878906,0.87390136718,0.013596992125474255,0.11602164541248117,1.0443152407527,0.79856253501,1.26952644934,0.023356673551124443,0.15206283837812973,947.2948653586983,947.27669373977,947.31194608853,0.00014494775889396,0.0352523487599683,0.011979076813553723,-0.00039556385230392024,-1.4037026355589735,0.46,0.54,0.007179048633678734,Stairs up
0.318929443356,0.17797851562,0.55407714843,0.007963978899484348,0.08879380108143532,0.7458959960907998,0.57434082031,1.04064941406,0.017205582357483894,0.13051255316600413,0.6296740722618999,0.42553710937,0.89575195312,0.01660508046707033,0.12821477942265325,1.0350387671303998,0.79415328714,1.29192156032,0.02486657570473059,0.15690095585331304,947.2388519108381,947.17665356713,947.28150414295,0.0007878400797794232,0.10485057582002355,0.027927794022830178,-0.0008739718720059614,-0.513550413487212,0.46,0.54,-0.34748400160990717,Stairs up
0.3598266601527999,0.21264648437,0.5771484375,0.010570140649643206,0.1022958417686016,0.7236804199183999,0.51440429687,0.96862792968,0.01426459228602007,0.11883579579890846,0.5750939941373998,0.43249511718,0.779296875,0.010145291853073581,0.10021895496632782,0.9996816906368999,0.81613106173,1.26202669312,0.01938224198975519,0.13852227102476206,947.1553295607669,947.10801826454,947.2030490847,0.0009457413829209474,0.09503082015999098,0.03059875763967776,-0.0008690279951381008,-1.5681860017764166,0.5,0.5,-0.09602782816195479,Stairs up
0.5485217285119,0.45068359375,0.76330566406,0.006890128506253112,0.08259072115674122,0.6710009765588998,0.50158691406,0.8525390625,0.0093340586893764,0.09612865390965712,0.517740478512,0.35656738281,0.66833496093,0.00842966697881108,0.09135299835814349,1.0128486490331,0.8106696438,1.25329105936,0.01789750512210857,0.13311096901039932,947.1166202481993,947.08188760194,947.13629811614,0.00024605816575240953,0.054410514199958016,0.015607613017206872,-0.0004873094787606962,-0.7301965385081748,0.38,0.62,-0.6791835771554442,Stairs up
0.4585461425749,0.20141601562,0.55505371093,0.014801619057478961,0.12105206676015148,-0.0018249511708999999,-0.11096191406,0.3828125,0.014529499252848846,0.11993416635938384,-0.8830859374968,-1.08642578125,-0.771484375,0.007305709135692293,0.08504500011367729,1.0118424665116001,0.92852994035,1.11912265649,0.0025797479347716853,0.05053662489149793,947.1280141706535,946.98426394572,947.28629946394,0.0082072140725065,0.3020355182200092,0.09013956917903165,-0.0029116344003819214,-1.1368776373029874,0.55,0.45,0.21296300086819386,Lift down
0.5469677734345,0.515625,0.56396484375,0.000154557589301198,0.012369802480564757,0.09848266601290004,-0.03332519531,0.16259765625,0.0028666350741990572,0.053272588856344,-0.7943786621051,-0.83776855468,-0.76416015625,0.0003664410399792414,0.019046696027905968,0.9709739364887003,0.92852994035,1.02155878441,0.00047819344793583694,0.021758021818549557,947.0583286183514,946.97139540122,947.15427633385,0.003066151098293926,0.18288093263004157,0.055095277359416085,0.0018093947483074412,-0.9305578104180294,0.65,0.35,0.22415786116600306,Lift down
0.2616931152306,0.07189941406,0.5546875,0.015582585965281347,0.124204509200063,-0.1458361816382,-0.35607910156,0.16296386718,0.023853597825244016,0.15367192927464526,-0.9468432617148,-1.08251953125,-0.81262207031,0.002596880877878213,0.05070416224630312,1.0132400138265,0.96348904474,1.0959252457,0.0012333829217291267,0.0349435128816757,947.2779480901049,947.11815163851,947.51885621303,0.008833441547387333,0.40070457451997754,0.09351527753214156,0.0030811775979370857,0.11038423165421163,0.61,0.39,0.6622723244576619,Lift down
0.15564453124600003,0.02844238281,0.31994628906,0.005111735854372524,0.07113802426149322,0.056330566407999993,-0.28735351562,0.83251953125,0.1364513025776664,0.3675415480621065,-0.9031701660119998,-1.13745117187,-0.37536621093,0.03226838384487203,0.178733600664294,1.0057930047441999,0.90194057358,1.14529314167,0.003624486113505513,0.059901930289185654,947.4466681639009,947.37691268576,947.61340246867,0.0026584538750729623,0.23648978290998457,0.05130174788759378,0.0008555616286806329,1.3591919780153123,0.56,0.44,1.0584287723698866,Lift down
0.22893798827890002,-0.07043457031,0.46008300781,0.017861319135456567,0.13297633603052086,0.6261230468723002,-0.6962890625,1.07202148437,0.31081735786366027,0.5547154083717376,-0.3651086425767999,-1.04260253906,0.11206054687,0.11017475448810575,0.33026202770410146,1.0025757140479,0.82841589155,1.12862626401,0.007125078746199863,0.08398707018784418,947.7256980746112,947.59099345079,947.94048606358,0.011457445747048817,0.3494926127899589,0.10650291681253772,0.003481099230796184,-0.6871572973149869,0.61,0.39,0.7041202173943688,Lift down
-0.031198730466300003,-0.12475585937,0.10803222656,0.002565475178326406,0.050396631103111864,-0.7528808593714001,-0.84802246093,0.068359375,0.02725245495017498,0.1642556860527916,-0.6148217773397999,-0.89013671875,-0.54260253906,0.008135937916001637,0.08974730378591672,0.9911629606253,0.89927045108,1.03766717655,0.0009889716474447661,0.03129028492951636,947.8702989411885,947.7785043788,947.97413715761,0.0038119450448448567,0.1956327788100225,0.06143147071653428,0.001969858179938065,-1.5515171668057537,0.45,0.55,-0.06776594305218504,Lift down
-0.033995361325,-0.12683105468,0.11401367187,0.002605020546605163,0.05078356369081547,-0.3751708984353,-0.67370605468,0.67553710937,0.1890349526571882,0.4326021302890409,-0.8223986816358999,-1.09533691406,-0.66381835937,0.01224379108866242,0.1100970171157048,1.0079272943509,0.89168532313,1.12598101572,0.00421815670229012,0.06462178529928757,948.1141979047104,947.97413715761,948.21126273562,0.0038279851203947266,0.23712557801002276,0.06156058210568496,0.0019026059552053976,-0.49104521458122186,0.41,0.59,-0.3833806542203385,Lift down
-0.4197692871051999,-0.89575195312,-0.04516601562,0.08089054816056969,0.28298700090103784,0.05767456054670002,-0.7421875,1.05517578125,0.3866516732338617,0.6186963362599807,0.03227539062519998,-0.76733398437,0.96350097656,0.48157514887037295,0.6904776588577426,1.0454841485802,0.72999514561,1.4154135904,0.02743777959963561,0.16481323309625126,948.324554863635,948.21126273562,948.57256739228,0.012080016720344283,0.3613046566599678,0.10935820295314312,0.0033842163703020327,-0.590217220412252,0.49,0.51,0.8084098430238836,Lift down
-0.32727783202719996,-0.34680175781,-0.26647949218,0.00017298587044027448,0.01308648202290714,-0.023494873043,-0.09265136718,-0.00061035156,0.00016119548015155054,0.012632637307784746,0.9567004394497001,0.93408203125,0.97595214843,0.00010105013093894021,0.010001981285202988,1.0115698980478998,0.9899977452,1.02806487356,9.670683675007127e-05,0.009784670070195038,948.5745811388022,948.48586540108,948.63844693308,0.002793913161306015,0.15258153199999924,0.05259252826868998,0.001646199376503527,-1.4667031338611534,0.37,0.63,-0.4536856926510529,Lift down
-0.33894165038729995,-0.3544921875,-0.32580566406,6.923768706256293e-05,0.008279209514919726,-0.0105871582,-0.03125,0.00256347656,8.130279905329617e-05,0.008971609167967763,1.0049731445288002,0.97021484375,1.02307128906,0.00019334320467140906,0.013835092071420956,1.0607127550039,1.0257027941,1.07515041524,0.00019540174929392624,0.013908548874738406,948.7542627396637,948.63844693308,948.83868189725,0.0036669278847454045,0.20023496417002207,0.060251627412858735,0.0020554899127833526,-1.1462099291821346,0.49,0.51,-0.3753712109552606,Lift down
-0.35066772460479995,-0.36462402343,-0.33923339843,5.315682352706439e-05,0.0072543266601245455,0.032042236325,-0.00756835937,0.0703125,0.0005158434295659607,0.022598340542400477,0.9534729003870999,0.92443847656,0.99682617187,0.0001736498165019009,0.013111571924711464,1.01671619177,0.99099499083,1.05396198467,0.0001298370927705997,0.011337491867379387,948.8475102750584,948.83202889836,948.87465691386,0.00013400569708970841,0.04262801549998585,0.011518057132989545,0.0001320713701765058,0.9467931282138964,0.65,0.35,1.2702061335308643,Lift down
-0.3615136718725999,-0.37365722656,-0.34741210937,5.573470182236132e-05,0.007428146121619963,0.0321215820277,0.0107421875,0.05395507812,0.00015703747366204392,0.012468644630649454,0.9468127441370001,0.92443847656,0.96789550781,0.00010062838292454528,0.00998108706981859,1.014094113324,0.99099499083,1.03739777199,0.00010272658478764361,0.010084608021126413,948.8639692827055,948.85570771216,948.87674670644,2.513697386322094e-05,0.021038994280047518,0.004988547296016018,0.0001513336658282882,-0.6581761260165035,0.57,0.43,0.28563140616233956,Lift down
-0.9559130859348,-0.96557617187,-0.93505859375,4.9435345810070415e-05,0.006995783898318309,0.3442089843703998,0.24755859375,0.46472167968,0.0022551992685933054,0.047250897091032806,-0.0346582031232,-0.08654785156,0.14392089843,0.003582128273887078,0.05955087733315276,1.0192998179639998,0.99319477465,1.07285623318,0.0003097173547186528,0.017510573410698643,948.9107250937101,948.88751154414,948.95303778733,0.0001641478764017182,0.06552624318999278,0.012747799717508156,1.9964759215979724e-05,2.9392019507426035,0.41,0.59,0.9724702623206071,Lift up
-0.9763867187468,-1.01806640625,-0.94519042968,0.0005121183877306246,0.0225165984076929,0.33636718749679984,0.314453125,0.35009765625,9.529291980931484e-05,0.009712877565954472,-0.059731445308799994,-0.07202148437,-0.05029296875,3.342522515259628e-05,0.005752475371617885,1.034457141554,1.003067542,1.07864227186,0.0005804094767661457,0.023970927850178937,948.9150033761825,948.90787664825,948.91754363382,5.760056470367828e-06,0.009666985569992903,0.0023879815547160643,2.666030443399417e-05,1.0949916757669067,0.48,0.52,-1.1898535911697583,Lift up
-0.9845458984344,-1.02075195312,-0.94030761718,0.0006853450428536934,0.026047871168776087,0.3475097656211999,0.25866699218,0.42785644531,0.0013188232075331539,0.03613357130782705,-0.0570263671844,-0.119140625,-0.03503417968,0.0003653315341777876,0.019017839489174626,1.0464591565588,0.9985794841,1.08145418168,0.0006209174948170051,0.024793311998779734,948.8649562898594,948.76520946939,948.91421087416,0.0013471833469942904,0.1490014047699333,0.036520015245401355,-0.0010574449063167307,-0.10389885454717884,0.43,0.57,-0.6931654749331814,Lift up
-0.8937890624966,-0.99084472656,-0.62707519531,0.01172850098276321,0.1077553524096858,0.43907592773139986,0.26708984375,0.8046875,0.02976473596796105,0.1716598048708009,-0.08964965820100002,-0.24816894531,0.15734863281,0.008121517900766139,0.08966773512115982,1.0190683743351001,0.82515475382,1.24340015575,0.007037445026844013,0.0834689797264563,948.6778040825509,948.52492301042,948.79835158001,0.004012175534269388,0.27342856959000983,0.06302423168057421,-0.0014816784424492592,-0.15002958760702967,0.47,0.53,-0.2773711099636376,Lift up
-0.6266601562459998,-0.67529296875,-0.58325195312,0.0007440718737382862,0.027140949780744654,0.7970507812459999,0.75268554687,0.83666992187,0.0004964851128807263,0.0221702562401051,-0.11428222655800001,-0.15515136718,-0.07080078125,0.0003411793949171402,0.018378454803600022,1.0209115942968001,0.99156110619,1.08105226842,0.0003623861293421494,0.01894102077631319,948.4504408560603,948.33283890078,948.56368210334,0.0057096449373724755,0.23084320256009505,0.07518343227067219,-0.00256071004722028,-1.3995480032912146,0.47,0.53,-0.22467839567729858,Lift up
-0.6053613281215998,-0.68188476562,-0.52380371093,0.0031926286582332378,0.056220124258586496,0.7978173828095998,0.72229003906,0.87133789062,0.0026138112039991936,0.050869176246123755,-0.11088867187120002,-0.17687988281,-0.0546875,0.0009691040925308058,0.03097439348244769,1.0108074050271998,0.97051259402,1.03346564954,0.000249888793299076,0.01572863329619218,948.2194300598529,948.12030026479,948.33283890078,0.005625235014506149,0.21253863598997214,0.07462561667658825,-0.0025519766015729404,-1.4796755468499136,0.47,0.53,-0.015138488452603885,Lift up
-0.5175488281207999,-0.59851074218,-0.36157226562,0.004177721196973689,0.06431130526590136,0.7731933593723999,0.54907226562,0.91552734375,0.006328919921442748,0.07915573714032559,-0.24376464843359996,-0.43798828125,-0.10998535156,0.012099412860280313,0.10944596261021924,0.9706510476299997,0.78240379011,1.1323183034,0.0053762641079132065,0.07295547592082499,948.058148963431,947.89649735595,948.20986440424,0.010672033054432584,0.31336704828993334,0.10278770706601183,-0.002628031172702504,-1.40492315441694,0.43,0.57,-0.17195292066752374,Lift up
-0.5375488281211999,-0.61059570312,-0.41394042968,0.0024434400327410775,0.0491833877687748,0.8476171874971999,0.69384765625,0.96301269531,0.0061825558633623575,0.07823509637450915,0.11041015624959999,-0.25756835937,0.42700195312,0.03820347679872638,0.1944773560873839,1.031747115876,0.95995305194,1.11670494995,0.001477887481759036,0.0382506027003686,947.9847317888291,947.89942485358,948.06647600863,0.0017935357084706389,0.16705115505010326,0.04213787312366314,1.2924213363821455e-05,0.0498149650983839,0.28,0.72,-0.7032353352329391,Lift up
-1.1358496093712,-1.8251953125,-0.50634765625,0.18310660102183948,0.42576464744224723,0.4598486328096,0.09631347656,0.88879394531,0.05906464345513587,0.24181397193004484,-0.0406640624992,-0.24670410156,0.2275390625,0.014721764843305831,0.12072508933470612,1.2584564586231999,0.53706656545,1.90623914215,0.1756364516766924,0.41698931300445274,948.0979306626317,948.02881121905,948.1544576207,0.0007082936009678794,0.12564640164998764,0.026480382643727048,0.0006404377144130221,1.3608589256160917,0.52,0.48,-0.7438632592370013,Stairs down
-0.5406835937472,-1.27478027343,0.79479980468,0.4194077620789422,0.6443707662969765,0.7061474609339998,0.19750976562,1.70812988281,0.16228547635736784,0.40082742120991943,-0.11693359374919998,-0.66137695312,0.23217773437,0.05842024740420432,0.2404912574921639,1.1500432397243998,0.39370508846,1.89755530719,0.11693873558534905,0.3402489503723642,948.1917753259695,948.09858368027,948.39266404857,0.00557628877963542,0.2940803683000013,0.07430024153284473,0.00040613319515882745,0.8782533542989075,0.56,0.44,1.2592359507547923,Stairs down
-0.2291796875008,-1.46643066406,0.66381835937,0.4220716484599148,0.6464139014403354,0.8121533203083999,0.24279785156,1.69689941406,0.16997672172488426,0.4102157414186289,-0.0317041015632,-0.45458984375,0.41381835937,0.043156124749399435,0.2066992102111313,1.0928422969388,0.41122517035,1.76472523643,0.14916127163029108,0.3842781010075752,948.1337855541976,948.04347531592,948.18972472015,0.0020944909567151993,0.14624940423004773,0.04553620589320159,0.0004903422593556161,-0.6051362822714914,0.28,0.72,-0.8531325716936429,Stairs down
-0.4765917968731999,-1.40991210937,0.55676269531,0.46344562886450635,0.6773560161214052,0.526567382808,0.24304199218,1.08947753906,0.07055994703306626,0.26429973053852246,-0.09317871093440001,-0.32556152343,0.1728515625,0.016529996851969254,0.12792457497857698,0.9708853293284,0.45867477688,1.55643237742,0.11667385452156774,0.33986337839836767,948.2402813291197,948.15985613956,948.5912449153,0.0068799222778511806,0.43138877573994705,0.0825295283827108,-0.0009042299684520439,10.239645921169261,0.64,0.36,2.974981534405498,Stairs down
-0.9650488281212,-1.41723632812,-0.66162109375,0.05567313170201158,0.23476882328152404,0.38586425780839995,0.26733398437,0.56579589843,0.006795869933083348,0.0820238455191691,-0.15389160155880002,-0.3955078125,0.12353515625,0.01502927592283605,0.121979437462253,1.0601080837276,0.74010054654,1.47962442946,0.05736084519447845,0.23830072753253118,948.3069724865869,948.27672167648,948.36064708616,0.0004194465371291533,0.08392540968009143,0.020377734706239107,0.00048415977918884735,1.4695002771023935,0.56,0.44,1.0830324665439122,Stairs down
-0.9197119140591999,-1.337890625,-0.71936035156,0.031135861945967354,0.17556908419909148,0.36046874999679995,0.25109863281,0.51928710937,0.006027140376474085,0.07724551101979547,-0.11437499999680004,-0.33203125,0.0283203125,0.008244319973378135,0.09034310584457651,1.0008236408364,0.77006119426,1.45298399292,0.03251985275584892,0.1794286884204709,948.3427812329086,948.3218385167,948.37459978019,0.00020206298296823692,0.05276126348996968,0.014143632954038173,5.133083167021081e-05,-0.7092564950287179,0.56,0.44,0.28560005867511246,Stairs down
-0.9845996093711998,-1.42590332031,-0.62133789062,0.03233212374681581,0.1789100402698173,0.3854785156212,0.18835449218,0.67041015625,0.015265849720340265,0.1229357198829407,-0.1484374999964,-0.55871582031,0.07824707031,0.019574484439533694,0.13920754144491726,1.0800995550052,0.68748804645,1.51738693132,0.04035298261658232,0.19987359202860316,948.3733102761844,948.34509954027,948.42005190621,0.0002950257093226294,0.07495236594002108,0.01709021510190563,4.272614211584306e-05,0.11172649134169044,0.6,0.4,0.732005541951509,Stairs down
-0.9438964843724,-1.50988769531,-0.61596679687,0.06916695411776472,0.26167782591688404,0.39700195312159986,0.24169921875,0.64111328125,0.009324678604117424,0.09608034043484781,-0.1496777343716,-0.33447265625,0.02465820312,0.007791008226537086,0.08782424576545884,1.0440423329032,0.71501955882,1.59713330372,0.06702017151993406,0.2575848788355689,948.4176732338403,948.37557903004,948.47072128681,0.0007364911838461214,0.09514225677003196,0.02700233826926217,0.0006069317965415126,-1.0421507655955067,0.52,0.48,0.13281224358546187,Stairs down
-1.0230468749951998,-1.47094726562,-0.64575195312,0.03915689569488009,0.19688912295485317,0.33017089843439995,0.17932128906,0.56787109375,0.011182326596185599,0.10521645940737476,-0.13724121093400002,-0.37915039062,0.04040527343,0.01095596891429541,0.10414609558285157,1.0909289520696002,0.71510227927,1.57852607767,0.04548398123363464,0.21220071022807227,948.4736663391694,948.44390495933,948.51796556352,0.0005506815558002694,0.07406060418998095,0.023348977284717777,0.00014398192440647894,-1.0845997674564822,0.6,0.4,0.46026431212490765,Stairs down
-0.9972460937468,-1.205078125,-0.80944824218,0.006710858152469595,0.08150919930256277,0.3534326171836,0.13525390625,0.64038085937,0.01852098224107537,0.1354096466972151,-0.16437011718480002,-0.44689941406,0.07043457031,0.01572922277893451,0.12478754165037938,1.0869019380732,0.93181317408,1.2693289845,0.005684395312129529,0.07501700713177135,948.4913076668497,948.43723926502,948.56723686384,0.0014230719749991597,0.12999759881995487,0.03753453416853828,-6.613399806656017e-05,-0.5877711112226827,0.6,0.4,0.5444425009925588,Stairs down
-0.9404101562459999,-1.14770507812,-0.75732421875,0.011689404863174309,0.10757560510888407,0.37909667968319993,0.21655273437,0.58215332031,0.008151962395967046,0.08983564310454607,-0.1663085937468,-0.31030273437,-0.05541992187,0.0053276546073231295,0.07262491350252955,1.0334441458336,0.80993611868,1.24949708,0.012782456528188277,0.11249280849417173,948.4758267118086,948.45512441544,948.5143793431,0.00030799667616685644,0.05925492766004936,0.017461864430958908,-0.00019149484745532868,-0.3999556735583498,0.68,0.32,0.9028203611235781,Stairs down
-0.9453173828092,-1.115234375,-0.76904296875,0.010678020968584908,0.10281653932563116,0.37337890624519987,0.236328125,0.50183105468,0.0059577702511761045,0.07679969107141216,-0.10023437499680002,-0.26281738281,0.02124023437,0.005474624392866182,0.07361982171220954,1.0275324374356,0.85595638712,1.17328572237,0.009242518460152976,0.09565611990642024,948.4836237316305,948.46027778984,948.49744316434,9.578389936544289e-05,0.03716537449997759,0.009737867342071799,8.640900135619118e-05,0.2713770513259459,0.52,0.48,-0.7847671990908753,Stairs down
-0.9750634765592,-1.17504882812,-0.79699707031,0.011337379638447135,0.1059434086768151,0.41865722655839993,0.2490234375,0.59228515625,0.009007098554442771,0.09443001413162207,0.11155273437200001,-0.09252929687,0.24499511718,0.004163535773028976,0.06420202812449687,1.073775642696,0.91472068141,1.25415447784,0.00983381029659263,0.09866849645974497,948.483110107189,948.46352293201,948.51613085033,0.00019035863880647878,0.05260791831994993,0.013727893225779912,-0.00013840655835225597,0.3052643849213048,0.6,0.4,0.8261691102656087,Stairs down
-0.2764111328116001,-1.29418945312,1.22143554687,0.7292151497780753,0.8496605194313165,0.4570361328088,0.22497558593,0.81286621093,0.02104281473629923,0.14433428764135098,-0.2014355468724,-0.87670898437,0.23864746093,0.06559141679096266,0.25482445452321295,1.0320514765872004,0.44928981384,1.51094403487,0.06911318964196149,0.26157610316223817,948.4989688471733,948.3727787207,948.74806567828,0.008570569556900061,0.37528695757998776,0.09211332075943772,-0.000545073066022984,1.9992570241471848,0.8,0.2,1.7271032664554253,Stairs down
-0.6261718749979999,-1.50146484375,0.77600097656,0.6069083707450006,0.7751382373728899,0.5141894531212,0.08728027343,1.00317382812,0.06166286574486788,0.24707536722105505,-0.10034179687400002,-0.71606445312,0.40808105468,0.10195197240076102,0.3176986822080844,1.1205132672512002,0.23202541742,1.70351493816,0.17557422389443914,0.41691543705587913,948.4473687741903,948.35348329022,948.55304242946,0.002790371743593609,0.1995591392400229,0.05255918593507393,0.0008639235848453131,-0.2932666561961357,0.36,0.64,0.019214523501646673,Stairs down
0.37055664062279986,-1.00561523437,1.1533203125,0.38598184512885253,0.6181601949960577,0.20311523437560003,-0.34313964843,1.1328125,0.2422192444917409,0.48969077186202264,-0.283002929686,-0.78796386718,0.22387695312,0.08141855263796259,0.2839090824746242,0.9439867170156003,0.45060137394,1.40525191173,0.07077899443613002,0.26470966074506747,948.5719544961477,948.49037490061,948.69418524427,0.002866741129704734,0.20381034365993855,0.053273574297278824,0.0006456639824901836,0.2048398130788569,0.6,0.4,0.8038623384802868,Stairs down
-0.9105712890587998,-1.3134765625,-0.271484375,0.04751418094410537,0.21688485224806348,0.4516162109331999,0.20776367187,0.84362792968,0.029096521367798063,0.16972199667138047,-0.14085449218360002,-0.41345214843,-0.02197265625,0.00977124989623721,0.09835414275603667,1.0425817697908,0.70344905803,1.53218592048,0.05199863474105428,0.2268890662716997,948.49204799795,948.32658791638,948.59184051733,0.005940858802872201,0.265252600949907,0.07669061360325316,0.0025256483060192686,-0.8695440022583041,0.4,0.6,-0.5570227451576707,Stairs down
-0.9642236328079999,-1.29321289062,-0.75451660156,0.036325672563951125,0.18963759078387285,0.352719726558,0.23950195312,0.48669433593,0.004233071442869677,0.06473593073742727,-0.1261132812476,-0.40771484375,0.06860351562,0.014706192979729889,0.12066122430148217,1.0429849663523998,0.82211654833,1.35717920562,0.0373107341964916,0.19219164095903518,948.6292756438869,948.57166680051,948.68232022605,0.0010873380254833424,0.110653425540022,0.032809520649172995,0.0008721522084761343,-1.1567611478361635,0.4,0.6,-0.17294887744158705,Stairs down
-0.9581054687459999,-1.26879882812,-0.73498535156,0.032397435169139024,0.17909064972088196,0.34304687499599995,0.24670410156,0.46520996093,0.00315728847428372,0.05590809949855998,-0.16583007812160006,-0.34582519531,0.01525878906,0.009238646632458034,0.09563608192587907,1.0367710078043997,0.79011075103,1.33170736408,0.032927450955160385,0.18054965091522274,948.6794585310412,948.63171991779,948.73528888967,0.0008594927365756634,0.10356897188000858,0.029170152711460163,0.0008064321983986166,-0.8969189290642934,0.56,0.44,0.20213348696276867,Stairs down
-0.9663671874956,-1.41345214843,-0.62145996093,0.05890769081851915,0.24149247174670677,0.3593505859335999,0.24267578125,0.60729980468,0.008196234702938223,0.0900792559688902,-0.1490332031216,-0.29602050781,0.04248046875,0.009445804923241295,0.09670236229797534,1.0488267067443997,0.71402450685,1.46381906401,0.0615717703787926,0.24689279591556468,948.7224749639118,948.68733507388,948.76674478297,0.0005244753530996504,0.07940970908998679,0.02278663203653962,0.0004959733704725894,-0.9846878262524728,0.68,0.32,0.5275230136950504,Stairs down
-1.0224804687456,-1.66650390625,-0.53967285156,0.10039991402891892,0.3152711767488898,0.33486328124759995,-0.18823242187,0.57385253906,0.032265914810551515,0.178726762580331,-0.12994140624759998,-0.30151367187,0.16467285156,0.012446318154078371,0.1110038511608385,1.1042209014716,0.58025119909,1.75766383072,0.09984012265648223,0.31439103268050983,948.8226111586378,948.76674478297,948.93302692999,0.001490358947357918,0.16628214701995603,0.03841165653658195,0.0008017473405805612,2.7674346012282403,0.52,0.48,1.6666895258477468,Stairs down
-0.3634765624996001,-2.23254394531,1.13488769531,1.1311542301417055,1.0582261988064219,0.4899023437468,-0.18566894531,1.31457519531,0.20007913825392007,0.44505993626856694,-0.255698242186,-0.97497558593,0.32971191406,0.12648905734607563,0.3538702682800787,1.1898740174172,0.28524138864,2.53401029163,0.4695415485988077,0.6817962548392442,948.8601246407611,948.75695595153,948.92160970176,0.0012241382269706901,0.16465375022994522,0.03481230881026111,-0.0005222694648929274,1.3968427801928929,0.56,0.44,-0.4875462240683781,Stairs down
0.32749511718399993,0.24487304687,0.47204589843,0.0036024345050627462,0.059719428664481704,0.8334667968712001,0.50476074218,1.22338867187,0.04574739966761772,0.21281429855848866,0.5708154296844,0.40075683593,0.80700683593,0.01450665107861636,0.1198398288042427,1.0662470104824002,0.73789104867,1.41891124498,0.05463175865511188,0.23256276801878834,948.96415282276,948.9310228886,949.00560519577,0.0004592233457611455,0.07458230717008973,0.021322080393421605,0.000587308082645804,-0.8051778544527584,0.48,0.52,0.1338077956539058,Stairs down
0.2546337890584,0.076171875,0.39111328125,0.005538123400337516,0.0740455411644357,0.7869824218716,0.58874511718,0.9814453125,0.016325986120618387,0.12713271120924072,0.6012988281211998,0.33129882812,0.75146484375,0.012620105502545253,0.11177613541145445,1.0307192571020003,0.74354681717,1.24872457882,0.017673904524741865,0.13227685163888067,949.0259943999563,948.98233966868,949.07244307171,0.0007738090597320208,0.0901034030300707,0.027677987086034646,0.0003626140894525378,-1.3657631750877501,0.56,0.44,0.35824579030661086,Stairs down
0.11854003906119999,-0.13024902343,0.28076171875,0.015761799185397555,0.12491669701662615,0.7322460937468,0.53881835937,1.11560058593,0.01915841642049972,0.13772012291707672,0.6274560546835999,0.37390136718,0.89929199218,0.014546900470044285,0.12000596429071282,0.9841418900556002,0.75493816059,1.31567536278,0.024620574122962435,0.15612292714951514,949.0326308656602,948.99489090723,949.0667386235,0.0005252678079391828,0.07184771626998554,0.022803840243691215,0.0005402997406082695,-1.149179070713308,0.44,0.56,-0.2872716896614772,Stairs down
-0.9758837890576001,-1.47387695312,-0.29943847656,0.06976330169547837,0.2628034791979048,0.4067138671836,0.20642089843,0.81652832031,0.028114546429332053,0.1668334527756311,-0.04370605468679999,-0.232421875,0.3515625,0.019243552804597,0.13802578482497765,1.0879988970648002,0.74030573357,1.53022419376,0.05240822790879746,0.2277809158593175,949.1091891969211,949.06059091333,949.16671950895,0.0008880107095557037,0.10612859562002086,0.029650136634763534,0.0008502750338519812,-0.7090026040223063,0.4,0.6,0.0858042206313231,Stairs down
-0.921757812496,-1.39392089843,-0.77258300781,0.02784195148563101,0.16602268510891727,0.30722656249600006,0.2109375,0.44323730468,0.0034123538718867146,0.05812254582490213,-0.22094726562199996,-0.50415039062,0.01574707031,0.01668133759705426,0.12850884880460067,1.003734991788,0.80432636527,1.4794990917,0.03314714401401267,0.18115096625155644,949.1795605603229,949.15368338015,949.2125329122,0.0003791583065351642,0.058849532049976006,0.01937438317649913,0.0005204246358131581,-1.228674834027817,0.48,0.52,0.24118961701784053,Stairs down
-0.9661767578093999,-1.39416503906,-0.71752929687,0.03417005553376875,0.18392486231728178,0.2980590820270999,0.17907714843,0.45922851562,0.005218430450532976,0.07187660360665107,-0.16237548827740003,-0.31652832031,-0.00915527343,0.006003037359904324,0.07709090080097185,1.0312262734859,0.74781646367,1.46369623632,0.040251495809007526,0.19962209509700438,949.2392953845575,949.20969838372,949.27135426367,0.0004408348987465987,0.06165587994996713,0.020890824535166934,0.0005481584321612743,-1.4618315998226759,0.56,0.44,0.17408673565151153,Stairs down
-0.9575610351520999,-1.45458984375,-0.69653320312,0.044682363133592876,0.21032246551963238,0.32216186523060003,0.17395019531,0.57446289062,0.011453121411268927,0.10648281644075835,-0.1311145019514,-0.35461425781,0.00939941406,0.011207861459041547,0.10533652189269936,1.0258854302065996,0.7430312731,1.52893370972,0.052657992634425145,0.22832304462773986,949.2907508008706,949.24698293866,949.34115575454,0.0007426774885796422,0.0941728158799151,0.027115506886168397,0.00084042570742888,-1.2337456463629963,0.48,0.52,0.09957611607298714,Stairs down
-0.9847387695276,-1.61096191406,-0.65539550781,0.051005722892716085,0.22471240656401,0.2963977050747,0.1904296875,0.42492675781,0.005024723360903784,0.07052996616541615,-0.1498144531219,-0.49194335937,-0.00354003906,0.012089468035978344,0.10940097511274094,1.0457363687980004,0.73661634637,1.68190521834,0.054424824513829184,0.23212189958875248,949.3532641966033,949.31645386039,949.39934219493,0.0004792026539959953,0.08288833454002997,0.021780969387427074,0.000515814420947372,-0.7809194842171547,0.52,0.48,0.37018752525673376,Stairs down
-0.962329101558,-1.56030273437,-0.62390136718,0.06285627201378025,0.2494548241538785,0.3240185546839999,0.16418457031,0.46618652343,0.0076913940546208094,0.08726098850044389,-0.11665039062120001,-0.35485839843,-0.01818847656,0.005197803179379875,0.07173440699961264,1.0295322300624,0.65698720759,1.60440724496,0.06032731205710204,0.24438502191527822,949.3806271208795,949.35363309212,949.42098232212,0.00045482789779217956,0.06734922999999071,0.021219793090750387,0.0005840043759275573,-0.8931528594379912,0.44,0.56,0.3736555206652267,Stairs down
-0.9391259765595998,-1.49462890625,-0.44873046875,0.10000086760253563,0.31464401937190906,0.37131835937199986,0.18127441406,0.4931640625,0.009124119691307884,0.09504145671439808,-0.08322753905880001,-0.21899414062,0.02795410156,0.004149936666295243,0.06409709275491589,1.0235441986464,0.5659989833,1.58905153899,0.09218302550508377,0.3020946792812361,949.4424335515018,949.41385594696,949.48049978254,0.00046100242182382523,0.06664383558006648,0.02136334237907512,0.0006637582703926737,-1.253065484556979,0.56,0.44,0.3251760453425147,Stairs down
-0.7363916015591999,-1.26428222656,-0.06640625,0.136353291790997,0.36740952474464655,0.6702587890587999,0.27355957031,1.22644042968,0.07571939540624532,0.2737922596644815,0.11487304687439998,-0.1064453125,0.63293457031,0.03870552414516971,0.1957510380654928,1.1119514395967998,0.95246486785,1.37992027323,0.01671684571892685,0.1286455489386927,949.4762656409716,949.44044846688,949.52466091652,0.0004315643790258367,0.08421244964006291,0.020669996014406444,-8.794381825054305e-05,-0.2415892148914507,0.56,0.44,0.4664483337434613,Stairs down
-0.6232958984331999,-0.98010253906,-0.3876953125,0.022871056566394782,0.15047373857497803,0.7854541015583999,0.52075195312,0.98559570312,0.015464103679503561,0.12373141332219771,0.04701660156200001,-0.32629394531,0.33093261718,0.03137977036433963,0.17625541881229137,1.0293595180067998,0.81272973884,1.3503861407,0.01725580553066122,0.1307028977312845,949.4623132067517,949.27617832978,949.64415020007,0.010264092469856939,0.36797187029003453,0.10080402544124102,-0.0014658580694383604,-0.6266226973122859,0.44,0.56,0.014901646472955901,Stairs down
-0.8394360351521999,-1.36877441406,-0.33178710937,0.102181826643523,0.3180566119059432,0.5033642578088999,0.19323730468,1.02758789062,0.07914823965633351,0.27992277017022066,-0.05423217773169999,-0.21520996093,0.1162109375,0.005599898778528145,0.07445736894856589,1.0585574652571,0.75226328014,1.4579552694,0.026445161537809576,0.1618045423417757,949.4632363300442,949.42870387855,949.50802824608,0.00037419955624177185,0.07932436753003458,0.019247274110360514,0.0005881678031298764,-0.38324700206858964,0.44,0.56,0.10579072025999209,Stairs down
-0.9944128417937997,-1.14184570312,-0.83361816406,0.007496621829888306,0.08614903140250285,0.30912841796470003,0.2080078125,0.45874023437,0.0037951586161464068,0.061296060476876836,-0.1777624511689,-0.28662109375,-0.09716796875,0.0027126275093399157,0.05182182198887373,1.0593163465470001,0.90027948715,1.21079285896,0.007808090480646074,0.08792047301874356,949.489540055235,949.46669467542,949.51722845378,0.00018634317344301665,0.050533778360090764,0.013582331968722694,-0.00012148078724183984,-0.38836659662410034,0.52,0.48,0.31223440178572853,Stairs down
-0.9681677246059999,-1.19274902343,-0.82336425781,0.007955352421577586,0.08874569790903564,0.3007971191369,0.20983886718,0.42614746093,0.004107785542526363,0.06377074319075401,-0.1649719238253,-0.30383300781,-0.07678222656,0.003912165723264129,0.0622337855672583,1.030700999727,0.88411672851,1.25841651061,0.00860038920538615,0.09227342690792562,949.4903397718372,949.47493251634,949.50924692896,0.00014612856717195,0.034314412620005896,0.012027771260721186,9.444914310814345e-05,-1.4058415188501752,0.48,0.52,0.20267378859995905,Stairs down
-0.9791296386677999,-1.18432617187,-0.87707519531,0.005065330187144508,0.07081438332198525,0.33742431640179993,0.21240234375,0.48059082031,0.0063567626294094865,0.07932966029875202,-0.1397668456992,-0.29736328125,-0.03942871093,0.004530317992627509,0.06697025319275143,1.0510281001376,0.96290548905,1.23755239221,0.003250110299066403,0.05672397373312045,949.4870507193322,949.47714954159,949.51282738102,0.00010723319900046306,0.03567783942992264,0.010303439571835146,2.997342412182287e-05,0.9577476476315443,0.68,0.32,1.4457213325285054,Stairs down
-0.968842773435,-1.39880371093,-0.65380859375,0.036335668515437555,0.1896636808413334,0.286365966793,0.17346191406,0.63098144531,0.014405035639967038,0.1194193672884234,-0.15118164062160003,-0.38793945312,0.04357910156,0.009000285851821296,0.09439429534300833,1.0302839899387,0.67661979776,1.47389811357,0.04159207597478471,0.20291908538882403,949.5044281094346,949.48262838445,949.53895733994,0.0003741564157249769,0.0563289554900166,0.019246164593698326,0.00034973164791073455,-0.9472928138283949,0.64,0.36,0.7176891021053606,Stairs down
-0.9655444335900999,-1.41394042968,-0.69104003906,0.05079456068607312,0.2242467727286446,0.2796350097616,0.18383789062,0.42517089843,0.003955074589328458,0.06257414676553867,-0.19082275390260006,-0.37048339843,-0.03198242187,0.00569534168702386,0.07508920208760791,1.0273874922806,0.74656117362,1.48561713298,0.051717760835960615,0.226275458739124,949.5563272642721,949.52906752754,949.59899919653,0.00017971073152936592,0.06993166899007974,0.013338426601892455,0.0002301786362336878,2.248958184889898,0.56,0.44,0.9167883316317499,Stairs down
-0.9708691406217999,-1.40209960937,-0.70166015625,0.030455060535156116,0.17363902190983613,0.26828369140229996,0.18395996093,0.39526367187,0.0028705026706159604,0.05330851380323598,-0.217687988278,-0.50073242187,0.00390625,0.013088439901617035,0.11383125889930615,1.0362599950205003,0.74439757709,1.46392731037,0.03178637802028411,0.17739367023679642,949.6190274958312,949.55772213857,949.64510403846,0.0003394768179203548,0.08738189988991962,0.018332540733383116,0.00034027547018865436,2.6315177344674696,0.32,0.68,-1.4271646930955093,Stairs down
-1.0057177734342,-1.51245117187,-0.65673828125,0.07360967323021425,0.26995106315388373,0.2888916015598999,0.1572265625,0.47082519531,0.008338608524905727,0.09085825465887329,-0.20028198241820003,-0.34790039062,0.00170898437,0.009268511212867439,0.0957905324170336,1.0728007979715002,0.69926248978,1.55362730922,0.0751944875191448,0.2728416072448507,949.6700148970983,949.62290626925,949.72885486989,0.0008460625026645459,0.10594860063997658,0.02894135238094275,0.0008161269525058207,-0.7814436843384733,0.48,0.52,0.23089262423204998,Stairs down
-0.9522216796843997,-1.48803710937,-0.63513183593,0.07378174439840797,0.2702663999731078,0.2709973144502,0.18103027343,0.37377929687,0.002925411467339454,0.053815958159880974,-0.16130981444960002,-0.26318359375,-0.04748535156,0.0032597137144115855,0.05680771582511895,1.0072428719162998,0.68210647098,1.51959423042,0.07153083413475542,0.26611186706610407,949.7504433968465,949.68783460391,949.81652463672,0.0008409366240337252,0.12869003281002733,0.028853548443707716,0.0007055874785423232,0.5855817159558132,0.44,0.56,0.25506219475949293,Stairs down
-0.9616821289020998,-1.35583496093,-0.67749023437,0.04855883527885253,0.2192561217527666,0.30741699218440005,0.1953125,0.43310546875,0.0045447998336522735,0.0670772080167008,-0.1755529785129,-0.37866210937,-0.00537109375,0.007149848569189912,0.0841329310288071,1.0285675681608997,0.75025192639,1.44815516451,0.05238007977008149,0.22771973777514473,949.8099609401703,949.76701430409,949.84007903054,0.00040993006259416593,0.07306472644995665,0.020145241670633397,0.0006155015650911399,-0.8817456034762312,0.52,0.48,-0.20023317907625335,Stairs down
-0.9571435546826998,-1.3798828125,-0.73388671875,0.03858946720769917,0.19545734198443962,0.2914733886684,0.19860839843,0.38879394531,0.002898076981951646,0.05356394507625563,-0.17729980468340004,-0.310546875,-0.02783203125,0.00570409837394556,0.07514690539340994,1.01955434755,0.77508967634,1.44596563994,0.04014585842829167,0.1993599755317219,949.8779747004882,949.84007903054,949.91214695793,0.00036182206396781366,0.07206792738998047,0.0189262738891768,0.0005241525187259902,-0.7126424460507184,0.48,0.52,0.05059229466931309,Stairs down
-1.0036254882773,-1.36450195312,-0.8046875,0.032488669861329346,0.17934264178581752,0.2745568847617,0.16052246093,0.35363769531,0.00200392232248776,0.044540802633797276,-0.2351232910119,-0.61047363281,-0.03405761718,0.024255815375748085,0.15496211544113164,1.0776579644694002,0.84623107112,1.44785358671,0.03509373815037058,0.18639420798100695,949.9309799829907,949.90679241554,949.96866025002,0.00032469148053309774,0.06186783447992639,0.01792887519416003,0.00021480078444987205,-0.8187704009728272,0.56,0.44,0.5619348082849476,Stairs down
-0.9675781249955999,-1.10314941406,-0.84484863281,0.0029404584806634847,0.05395418330265828,0.2558032226527,0.14099121093,0.35107421875,0.0029683111352724638,0.05420911384554943,-0.20391845702780004,-0.31018066406,-0.10693359375,0.0034311448383895124,0.05828235916643747,1.0240921591184,0.87120271865,1.16445064474,0.0037446654038568805,0.06088693414697698,949.9568132109168,949.94221291053,949.97281090223,5.295234986150235e-05,0.030597991700005878,0.007240360927667027,-1.0492728040987223e-05,-0.45263869185131744,0.52,0.48,-0.038351896930125064,Stairs down
-0.9981054687467001,-1.44421386718,-0.67883300781,0.05340464743675197,0.2299360801666073,0.290917968747,0.12963867187,0.40979003906,0.006305108166584572,0.07900669012760075,-0.1768762206992,-0.34729003906,-0.02880859375,0.009278010074207043,0.0958396054534083,1.0604719457381,0.72720986925,1.49322035629,0.056394069753590514,0.2362840008465546,949.9829968748131,949.94308134861,950.03919275932,0.0006602596420736382,0.09611141071002294,0.025566717537707142,0.0003955773601031596,-0.1861951639884314,0.52,0.48,0.43727265415720296,Stairs down
-0.7310766601521999,-0.7822265625,-0.68920898437,0.0007770735748084621,0.027736309038161107,0.6949877929650998,0.65795898437,0.72863769531,0.0004888803730003227,0.021999808391672857,-0.20026977538660007,-0.22326660156,-0.17456054687,0.0001589781994036562,0.012545454053545438,1.028983562313,1.00528602925,1.07666719395,0.00019455519409746275,0.013878387592097583,950.067888177735,950.05881839304,950.07768644314,3.322031477560242e-05,0.01886805009996806,0.005734815744890711,-7.315276905525454e-05,-1.1118743231333312,0.6,0.4,0.31403267498175835,Lift up
-0.6877441406217,-0.73303222656,-0.57873535156,0.0013860891563666816,0.03704359951196718,0.7095056152298999,0.6435546875,0.81591796875,0.0016429676716971423,0.04033036070977014,-0.2585559081993,-0.29443359375,-0.1357421875,0.0015872786426928437,0.03964096184839509,1.0235388417442999,0.9804259667,1.0509580513,0.00018160629057076486,0.01340858783261896,950.0574092636049,950.02061564849,950.09953618786,0.0003256847418564075,0.07892053937007404,0.017956277298979414,-0.0002967263340744063,0.7761302957627283,0.65,0.35,0.9077622050016529,Lift up
-0.7214343261680999,-0.75024414062,-0.68395996093,0.00026775384640702283,0.016281164207235077,0.7319152831997999,0.68725585937,0.7666015625,0.00022615548787349154,0.014963085677585244,-0.28881591796430006,-0.3017578125,-0.26147460937,7.847884087873328e-05,0.008814422979976961,1.0676060880083,1.01500556836,1.10207304384,0.00036970542172966666,0.01913134515689814,950.0295442644981,949.98818465127,950.05041975984,0.0003181968524795572,0.06223510857000747,0.017748658652268955,-0.000572101980281629,-0.08993418030831579,0.37,0.63,-0.9194149075562893,Lift up
-0.6449340820274,-0.68859863281,-0.59191894531,0.0006753692422620227,0.025857601393775922,0.7047070312472999,0.61584472656,0.80017089843,0.0029371567204898703,0.053923882958156595,-0.37770507812119986,-0.517578125,-0.26147460937,0.004901095689012441,0.0696569072822094,1.0309158706154,0.98301265691,1.09332914429,0.0008626759977281462,0.029224120820836762,949.9334172965927,949.75088926659,950.07845279108,0.006888983329642826,0.3275635244900741,0.08258385735933141,-0.0020455580236856913,0.22982525981933,0.41,0.59,-0.6080407352002511,Lift up
-0.6226696777309,-0.65991210937,-0.58825683593,0.0003212257151321033,0.017832931839178386,0.691848144528,0.60803222656,0.75390625,0.0016402508213768918,0.040297001292442625,-0.4194384765591,-0.49584960937,-0.35913085937,0.0012628791067462435,0.03535887888039977,1.0223367324777,0.98656363366,1.0694304751,0.00032296544167199236,0.01788115732426938,949.7037440070901,949.58032454613,949.93009332528,0.006933737916819297,0.3497687791500539,0.08285167794107193,0.0009322011553638227,-0.34059318887012724,0.48,0.52,0.530418916187062,Lift up
-0.6452832031208,-0.671875,-0.63000488281,0.0001175351576334813,0.010787020258493376,0.6025366210898,0.57409667968,0.62292480468,0.00015003331384548822,0.012187410746628395,-0.4817810058558,-0.53784179687,-0.4267578125,0.000858320243110494,0.029150249410243287,1.0062290413911004,0.97243035232,1.02533017661,0.0001732077570389595,0.013094872258581598,949.4965673028776,949.25887803443,949.93009332528,0.04343735229703214,0.6712152908500002,0.20737159587094328,-0.0058510834548240135,-0.17014901330420207,0.61,0.39,1.0821440979241952,Lift up
-0.6916491699182,-0.75866699218,-0.61218261718,0.0006988718338073569,0.02630367114053252,0.6550097656211998,0.59851074218,0.74694824218,0.0005524467699397767,0.023386370009909167,-0.3708715820271999,-0.45593261718,-0.17272949218,0.002491461622516169,0.04966434340944223,1.0236465961315,0.97518727172,1.11895434175,0.0008233296140933137,0.0285498917327611,949.2403830522427,949.13454469628,949.29444544872,0.0020634769443872002,0.1599007524399667,0.04519781161675119,0.0004311920085209427,0.1270747227220146,0.33,0.67,-1.0866392764381496,Lift up
-0.5819934081997,-0.61218261718,-0.55004882812,0.00023638620973431455,0.015297788978704452,0.740961914059,0.62915039062,0.90808105468,0.0067415122794351615,0.08169514769336554,-0.34624633788910003,-0.5146484375,0.06030273437,0.04273591781267415,0.20569044371226244,1.0275202168329,0.96112823144,1.08276524764,0.0010568625390719297,0.03234646678821677,949.138538103551,948.84568215998,949.44219457405,0.02597147715727532,0.5965124140699345,0.16034887709523432,-0.0033757920963503668,-0.20671630327743218,0.49,0.51,0.12610323880691066,Lift up
-0.5824291992151999,-0.60266113281,-0.55126953125,0.0002179316258167886,0.014688509439647737,0.7300476074178,0.65905761718,0.79821777343,0.0010790741730062434,0.03268460541717126,-0.4169262695274,-0.45581054687,-0.38098144531,0.0007344133384498819,0.02696422083178713,1.0234079329849002,0.96947275395,1.06792427143,0.0006748515845019381,0.025847689812765064,948.8443641151518,948.73317919203,949.0167897402,0.004500608188982455,0.2836105481700315,0.06675029668168247,-0.0006597660414578601,0.47763265264094423,0.45,0.55,0.7760956169560105,Lift up
-0.5638537597627998,-0.62670898437,-0.53063964843,0.00043186217094428193,0.020677126232502403,0.6620275878864998,0.56701660156,0.74096679687,0.0025349656905687577,0.0500960680459362,-0.5151770019506999,-0.56652832031,-0.43432617187,0.0012080157812054992,0.03458230217023505,1.0124414671158002,0.95367840819,1.0434881767,0.0007215189212129104,0.026726461269700134,948.7441859121761,948.44796727218,949.04994395117,0.045970427033993656,0.6019766789900132,0.2133324231420384,-0.006135342239427096,-1.5387074748654106,0.53,0.47,0.16221754212289913,Lift up
-0.5763110351530001,-0.62341308593,-0.5205078125,0.000651598283705313,0.025398470443478677,0.649897460934,0.50500488281,0.72277832031,0.002983447855089853,0.05434715610350697,-0.4984643554653999,-0.54919433593,-0.43286132812,0.0004823325800145238,0.021851985132119656,1.0031404548960998,0.93772169511,1.04901754277,0.0007608740613853714,0.027445679455453783,948.5246917808347,948.35934762057,948.90461576478,0.028353747699493562,0.5452681442100129,0.1675416671234312,-0.0031741144331545916,0.22750972771932787,0.72,0.28,1.231225220302349,Lift up
-0.5165795898401,-0.64770507812,-0.419921875,0.006161119715130252,0.07809935030446123,0.7299999999955,0.65734863281,0.80261230468,0.001314205569382514,0.036070258020822206,-0.5198205566363999,-0.61254882812,-0.38195800781,0.005008953284461031,0.07041920016314032,1.0401245604607001,0.99689787775,1.09023948375,0.00047294772438364474,0.021638351303641605,948.5802312383623,948.32242024526,948.96902342857,0.03218240126273775,0.6466031833100487,0.17849531436458038,-0.00015207299650784155,-0.2502328966976961,0.63,0.37,0.6180100921408858,Lift up
-0.4874938964810998,-0.55407714843,-0.41149902343,0.0019791151463317553,0.04426425188420604,0.6534448242152999,0.57653808593,0.72009277343,0.0015535884373050711,0.039218013118107097,-0.6284729003870999,-0.66284179687,-0.59753417968,0.0003870669564282987,0.019575400043524416,1.0311567359436,1.01067006319,1.07087727424,0.00021715421612762407,0.014662287473868047,948.5886968623328,948.42473106417,948.67012989409,0.006000420522609334,0.24539882991996365,0.07707409628002938,0.00010651145971211836,-0.3123257784460294,0.33,0.67,-1.0372072701933113,Lift up
-0.5182434081998999,-0.55407714843,-0.48852539062,0.00034780826684882837,0.018556136025054893,0.6578027343712999,0.57421875,0.6962890625,0.0008807652165353767,0.02952892758584407,-0.5868237304652999,-0.62060546875,-0.53442382812,0.0002699363773882217,0.016347385528406047,1.0232533775573998,0.99722492838,1.0431220767,7.960424982268625e-05,0.008877398680044701,948.3637356883124,948.17892367787,948.44782899989,0.005507744144126777,0.26890532202003214,0.0738421742819475,0.0012579226954090878,-0.00449984424736849,0.28,0.72,-1.1756364331340008,Lift up
-0.5745373535124999,-0.625,-0.4892578125,0.0014418947259466125,0.0377819504351899,0.7442614746060999,0.65710449218,0.78759765625,0.0011189232255002823,0.03328263801511652,-0.35952514648069994,-0.53442382812,-0.27807617187,0.007674679869097388,0.08716612341045353,1.0115528305021,0.97558551746,1.03204586645,0.00017238188049713418,0.013063615950117442,948.4662589253578,948.42723270281,948.49923282275,0.000548319859259839,0.07200011993995759,0.023298855351009,0.0004932555476831163,-1.2820476292960732,0.51,0.49,-0.26475768033077185,Lift up
-0.5722802734343999,-0.59326171875,-0.55981445312,7.392941099053821e-05,0.008555122259829653,0.7108776855433999,0.70043945312,0.73193359375,4.241246618351339e-05,0.00647984116484951,-0.46370361327759985,-0.47570800781,-0.45178222656,2.9775897654744836e-05,0.005429377374819086,1.0236968221355,1.01374015504,1.05397317502,6.293846544944343e-05,0.007893610124331514,948.4689629022605,948.46151193524,948.47683965151,2.0620860011264195e-05,0.01532771627000784,0.004518257563613606,8.30933007169938e-05,-1.2879860647890038,0.56,0.44,-0.15944088766340433,Lift up
-0.6112158203093999,-0.62243652343,-0.59326171875,4.7714625938085195e-05,0.006872952762729011,0.7340100097628999,0.7001953125,0.7548828125,0.00021477344510061533,0.014581690939311845,-0.4770935058555,-0.48571777343,-0.46496582031,4.372884982100131e-05,0.006579632309087742,1.067631569175,1.03738607964,1.08856292031,0.00018229920333839397,0.013434143489817653,948.4524513718741,948.38142150074,948.47683031213,0.000608690410246474,0.09540881139002977,0.02454798374905787,-0.0007425571609540712,0.31291694838277007,0.33,0.67,-1.2288545924964291,Lift up
-0.5988500976514,-0.61682128906,-0.54333496093,0.0002633190456052704,0.016145768955030223,0.6943041992151998,0.67736816406,0.71435546875,0.00011484418853413022,0.010662820764168782,-0.45213378905799984,-0.49353027343,-0.43237304687,0.00027060125812502714,0.016367505782610155,1.022464283142,0.97378194541,1.0466979361,0.00031695986320522243,0.01771412613066674,948.3299627259723,948.24198679731,948.73926131777,0.008703275902693808,0.497274520459996,0.09282372080274992,0.0004003373432550271,4.4561174025785135,0.64,0.36,2.0467298720709364,Lift up
-0.6099462890593998,-0.66687011718,-0.55383300781,0.0008174984382268259,0.028448610754210086,0.6166357421844001,0.56518554687,0.68237304687,0.0011510170107564505,0.0337565821825742,-0.5138574218713998,-0.57971191406,-0.44763183593,0.0017282332073893778,0.04136364194936761,1.009811551705,0.97580239278,1.03837090615,0.00026664172101505503,0.016247316818628992,948.074026269996,947.83088945779,948.73926131777,0.07841305907252005,0.9083718599799795,0.2786196843042409,-0.007815992317377802,0.1921043057746754,0.69,0.31,1.264527560271252,Lift up
-0.6288452148399999,-0.71325683593,-0.57678222656,0.0012172311544321602,0.034713957465086556,0.6625341796841999,0.63208007812,0.70434570312,0.0003358831550221784,0.01823524947654834,-0.4613183593709999,-0.50146484375,-0.30895996093,0.0018284475201995121,0.04254601091756449,1.0247326663986003,0.99969507575,1.0995490564,0.00048806141155734726,0.02198137387521021,947.8882142465095,947.70808925363,948.06874479101,0.004590556349437756,0.360655537380012,0.0674140251427207,-0.0009819691785114978,2.0317306582698196,0.53,0.47,1.0305001059555783,Lift up
-0.6673706054654,-0.68041992187,-0.65637207031,4.39546625982968e-05,0.00659659881850593,0.7098437499969998,0.68774414062,0.74536132812,0.0002331697338778582,0.015193355012605991,-0.3361425781218,-0.39123535156,-0.30139160156,0.00022542864386117668,0.014939021300693193,1.0308395327976,1.01263504805,1.0644436687,0.00012211354223075018,0.01099510831271992,947.6548574703578,947.59318110555,947.70808925363,0.0015018863351114185,0.1149081480799623,0.03855992053622912,-0.0011787416101184584,-1.3748530734879527,0.41,0.59,-0.1486103510838091,Lift up
-0.5769836425744999,-0.65673828125,-0.53039550781,0.0006184798825383172,0.024744597061034032,0.6416540527316,0.58251953125,0.74072265625,0.0008397840656120752,0.02883376883024407,-0.5303955078086,-0.61267089843,-0.39123535156,0.0029311992904066677,0.053869168338694456,1.0144944143632002,0.93422483717,1.0644436687,0.0011071653750368247,0.03310730616172896,947.6243140946832,947.4833939531,947.87213827465,0.010342344408623702,0.38874432155000704,0.10118755340721242,-0.00016585780833941517,1.1376949711708777,0.6,0.4,1.309189459554427,Lift up
-0.16254272460820002,-0.79833984375,0.75427246093,0.29758461748758525,0.5427787498720905,0.6074450683546,0.36791992187,0.92260742187,0.013749442827454815,0.1166702549889228,-0.5237646484328998,-0.75903320312,-0.26245117187,0.01899194503086805,0.1371204783413454,0.9919822042621999,0.74098213091,1.25387509625,0.012861724306494234,0.11284106993213637,947.1064435747791,946.95537971009,947.53462988959,0.014398111376156417,0.5792501794999225,0.11939066237522453,-0.001495640532757994,4.236058654911467,0.52,0.48,1.9033844829747912,Lift up
0.7061047363246999,0.66333007812,0.74841308593,0.00042214390455211316,0.020443152044305496,0.5700988769489999,0.44775390625,0.62866210937,0.0019031685936472457,0.043406645893351095,-0.42502197265219993,-0.48486328125,-0.39404296875,0.0005097755218036188,0.022465034310803593,1.0031856643584003,0.9269867786,1.03915905324,0.0006204039077934443,0.024783056081030642,947.1390853628767,947.11495576627,947.20612182161,0.00019850331066865567,0.09116605534006794,0.014018497692761842,0.00033031926490872883,3.6649772045212314,0.43,0.57,0.5666052382720975,Lift up
0.7890527343703999,0.58532714843,1.03735351562,0.014384261189278066,0.11933322495175132,0.4626000976517999,0.05554199218,0.71411132812,0.032961788737586574,0.18064376781447708,-0.36541748046479994,-0.59350585937,-0.1669921875,0.012238819340196825,0.11007466169284763,1.0096123468044,0.84216121922,1.2013346802,0.009903972475600377,0.0990198603859063,947.1424997304837,947.09963179912,947.20612182161,0.000947621313665067,0.10649002249010664,0.03062915442072171,-0.0009004633751661423,-0.9248792539003805,0.57,0.43,0.4981477047828931,Lift up
0.640495605465,0.52551269531,0.79333496093,0.005832899345286232,0.07599059383787818,0.7023681640592,0.45568847656,0.95874023437,0.018314284507381297,0.1346519278076162,-0.02203124999940001,-0.42492675781,0.71447753906,0.08884213021168057,0.29656990560332275,1.0051131851098,0.83033760054,1.19054576254,0.005704990427463414,0.07515278120727654,947.1294906165418,947.10016802665,947.22139899482,0.0011372857770924776,0.12123096817003898,0.03355462590048581,0.0007263260010376417,2.6201053374244854,0.79,0.21,1.977649848527542,Lift up
0.7482226562457999,0.56188964843,0.89965820312,0.008204645677110324,0.09012546377322683,0.5318334960902,0.3720703125,0.70495605468,0.007355348202812261,0.08533343260870348,0.3193432617162,-0.15112304687,0.72827148437,0.05205084242517665,0.22700293830901153,1.0016926109335997,0.83798645823,1.17258067182,0.008293707911993544,0.0906133038404053,947.114468959515,947.08691194444,947.15947452087,0.0004264610292516372,0.07256257643007302,0.020547418790668594,-0.0004933590386719489,-0.4979448244847582,0.61,0.39,0.6707357337783734,Lift up
0.6681518554652,0.51635742187,0.78967285156,0.007450453711260009,0.08588334631433156,0.6838842773395999,0.4951171875,0.89135742187,0.013155003322507103,0.11412034564126605,0.1203027343734,-0.1259765625,0.39428710937,0.023890768782449306,0.15379161581381742,0.9840334508213999,0.8300577408,1.11406121621,0.004370490783547985,0.06577830855010262,947.1141364278642,947.07723304813,947.16468227089,0.000745035068804064,0.08744922276002853,0.027158510970154887,-0.0002999458820631746,-1.0125355446321185,0.6,0.4,0.4554890540239553,Lift up
0.05557373046819997,-1.61267089843,0.92211914062,0.5299323236103205,0.7243155392328797,0.1921386718752,-0.56225585937,0.92041015625,0.2822897211434286,0.5286462181194473,-0.2195581054662,-0.72436523437,0.21630859375,0.09204380011742348,0.3018664640470174,0.9439156265669999,0.37507459772,1.86155096123,0.09339186542701718,0.30406898357567974,947.1273194168616,946.98089940403,947.26402979878,0.005010265048622812,0.2831303947500601,0.07042842038649301,-0.00010048235845121125,-0.16114904061922708,0.4,0.6,-0.20369486553755767,Stairs down
-0.965966796871,-1.80688476562,-0.12707519531,0.1524698758371418,0.38851663681079396,0.48809814452739997,0.20715332031,0.93383789062,0.03559564355051628,0.1877223671143402,-0.08696533202960001,-0.36901855468,0.09619140625,0.013193870487203718,0.11428880864866726,1.1049486771274,0.26742387766,1.92782770721,0.15881801738869442,0.39652217745645385,947.2319922011925,947.18857526695,947.28820533821,0.0007838037262634384,0.09963007125998047,0.027856160701015566,0.0007883007844993884,-0.5324880450541034,0.54,0.46,0.18874646850561966,Stairs down
-0.9076464843713998,-1.37255859375,-0.44653320312,0.06456679536870942,0.252826279122686,0.44385009765279987,0.2958984375,0.59289550781,0.006154146152324214,0.07805513878535462,-0.142868652341,-0.38891601562,0.03466796875,0.010961879316963906,0.10417418357632693,1.0284943207988002,0.55572698468,1.46975716086,0.06495144072008868,0.25357824495190395,947.2721299611807,947.24053389503,947.32909167943,0.0006592002189158263,0.0885577843999954,0.025546197696069528,0.00047759689117481775,-0.351224056989194,0.48,0.52,0.7020754993418319,Stairs down
-1.0541699218716003,-1.67907714843,-0.44653320312,0.10746794611517417,0.3261798072444437,0.45640869140299983,0.11560058593,0.9326171875,0.04668176851497165,0.21497662856650704,-0.1172265624968,-0.28979492187,0.08569335937,0.008502644384537149,0.09174757730148397,1.1742265089055999,0.55572698468,1.77222848844,0.11671022821033454,0.33991635136932025,947.3438324940714,947.30106777721,947.38364964145,0.0006731135557874483,0.0825818642399554,0.025814383979277402,0.0007072961516128417,-1.2856219631507853,0.5,0.5,-0.07326146684892341,Stairs down
-1.0848876953096,-1.7607421875,-0.72265625,0.05710786641269883,0.23777465749859011,0.47578124999679994,0.15075683593,0.91882324218,0.05241938432038024,0.2278051590223023,-0.15565917968360002,-0.3759765625,-0.00073242187,0.011621040142105512,0.10726056936584132,1.2143287344846003,0.75187966124,1.85877667345,0.07365800209238837,0.27003966758879056,947.430741647822,947.35674879505,947.50267136081,0.0010192156388730137,0.14592256576008822,0.03176512997744986,0.0009691250142866053,0.10922522921667488,0.46,0.54,0.47241676495580076,Stairs down
-0.5840039062463999,-1.42883300781,0.06237792968,0.15944480917564788,0.3973038649244321,0.44547607421540003,0.14575195312,0.90100097656,0.05061660849085114,0.22385361825519512,-0.5769750976541999,-1.06127929687,0.14526367187,0.13416775012757573,0.36445311444176187,1.0816440938748002,0.71162953074,1.5031978871,0.04367948366290266,0.20794876490682418,947.5152473660569,947.41742350864,947.64804754336,0.004111104142043114,0.2306240347199946,0.06379649755764562,-0.00030520624406920173,-0.4846046446583667,0.62,0.38,0.656808894452588,Stairs down
-0.37095214843559987,-0.73693847656,0.1494140625,0.055288930949977444,0.23395735004585275,0.3954663085914,-0.12487792968,0.97241210937,0.10014323610705758,0.31486791476107406,-0.8159960937474,-1.4287109375,-0.38720703125,0.07585665478830027,0.27404030404379803,1.0710410802611998,0.74243695935,1.53477108712,0.04211682898151391,0.20419515344811384,947.5261890193235,947.45264871642,947.66599526804,0.0038877227963863017,0.21334655162002036,0.062039064857736526,-0.0002623928016187876,-0.09179608693430641,0.66,0.34,0.9235839702420332,Stairs down
-0.9422119140585999,-1.34912109375,-0.31372070312,0.051325055686352955,0.22541474026666808,0.40487548827779996,0.26281738281,0.68298339843,0.006932894274475865,0.08284663741957851,-0.24655761718299998,-0.48974609375,-0.12097167968,0.007183913028733081,0.08433311270459398,1.0712060389226001,0.75254427969,1.4682330226,0.03008401730241604,0.1725780320011556,947.5679855534804,947.49280873699,947.6164058157,0.0010556815143764513,0.12359707870996317,0.03232838844162645,0.0009772019522834923,0.2919640240317136,0.42,0.58,-0.8911750392864306,Stairs down
-0.9793115234336,-1.17712402343,-0.81420898437,0.010051760553197125,0.09975591685541843,0.3331469726531999,0.1083984375,0.60559082031,0.015152732537207272,0.12247940729704403,-0.2306567382772,-0.36511230468,-0.10095214843,0.004539908309172795,0.06704110102079967,1.0682185118078,0.88629565458,1.29629989879,0.011713802673461539,0.10768781104065085,947.5988390094492,947.57942146366,947.62159994725,0.00016903013605842565,0.04217848359007803,0.012935989900190917,5.9507714713875754e-05,-1.1189664218661715,0.52,0.48,0.1674010067202455,Stairs down
-0.9994458007782001,-1.19470214843,-0.8173828125,0.011763089359448605,0.1079141254231999,0.28129882812139995,0.14990234375,0.45837402343,0.009768489635090194,0.09834024984074065,-0.2506249999952,-0.44860839843,-0.10900878906,0.009473212824802523,0.0968425562268701,1.0770897826165997,0.86764882678,1.26516368488,0.011521387981554816,0.1067996914870978,947.6304450657669,947.5809945231,947.75654182208,0.0028493038124389573,0.17554729897995003,0.0531113055225963,0.001353515601539512,-0.0589065605008412,0.62,0.38,1.0739272457772262,Stairs down
-0.7924707031212,-1.14074707031,-0.43359375,0.051674197924517946,0.2261801404749603,0.41655761718399986,0.00146484375,0.74963378906,0.04608123420466173,0.21358937675506035,-0.36700683593459993,-1.01208496093,0.18249511718,0.08212220321885963,0.2851332691684207,1.0449216830537997,0.7309837158,1.29924808682,0.02266829964035612,0.149805262404071,947.6059804461681,947.53896418059,947.75654182208,0.0017935580782029322,0.21757764148992464,0.04213813590348893,0.0006756116334189708,2.4024975400212876,0.52,0.48,1.0363499438403752,Stairs down
-0.19338378906159995,-0.87707519531,0.37719726562,0.13931610036199732,0.37137977779946146,-0.0715307617183,-0.76501464843,0.34899902343,0.06972319338443139,0.262727922860489,-0.9149951171840999,-1.11791992187,-0.44226074218,0.02263363940557392,0.14969069113180744,1.0439830999113,0.80340719682,1.40206798615,0.019379288014508556,0.13851171479107272,947.639298810079,947.42827870399,947.79250314361,0.008333765088752087,0.3642244396199885,0.09083186356045199,-0.0003465670109567503,-0.4600854749344534,0.5,0.5,-0.28801981471441546,Stairs down
-0.20886718749820005,-0.93395996093,0.40002441406,0.12857389567821262,0.3567746581827674,0.317937011716,-0.2421875,0.73315429687,0.03562530737316715,0.18780057055141094,-0.901643066402,-1.27734375,-0.64318847656,0.024349960299627077,0.15526255407093756,1.0532373050839998,0.83038364846,1.54519535638,0.03537829850718397,0.1871483783582218,947.6435005520348,947.54997654424,947.81695565356,0.006638616724468302,0.266979109319891,0.08106929478676633,0.001751446957532715,-0.6470269544849399,0.58,0.42,0.6006269484293606,Stairs down
-0.3766113281223999,-0.8720703125,0.2607421875,0.10538957154998926,0.32301033394380646,0.25913818359100005,-0.1845703125,0.6376953125,0.03537721706744539,0.18714551797136617,-0.8707934570276001,-1.18713378906,-0.50183105468,0.030727321578150543,0.17441344088793453,1.0506749479464002,0.67472012952,1.29752335944,0.03346591749538016,0.18201993934848557,947.7505387606326,947.65564697369,947.82744744163,0.002835563011375028,0.17180046794010195,0.05298308580350221,0.0010436693524769087,-1.1060745662612712,0.44,0.56,-0.2925678839037815,Stairs down
-0.4412329101537999,-1.23876953125,0.26245117187,0.15676457959504222,0.3939504204834561,0.42727783202739994,0.140625,0.67260742187,0.013668039717935648,0.11632437113845186,-0.8320434570274,-1.14587402343,-0.43505859375,0.03794280763187674,0.19381274353240543,1.0989418061559997,0.68021412978,1.65576431962,0.06885628331890234,0.2610894875051719,947.8259664532686,947.73782716388,947.88629031447,0.0016532800188758122,0.14846315059003246,0.040456732674389984,0.0005055199724989098,-0.9488039204931691,0.58,0.42,0.019776543838388574,Stairs down
-0.07866210937399996,-0.84448242187,0.67663574218,0.1787031124306089,0.42061393379951506,0.010830078126,-0.33630371093,0.48010253906,0.0408079257144202,0.20099713047025322,-0.8855004882776001,-1.14587402343,-0.63525390625,0.01754795149707338,0.13180467359734496,1.0021679263302001,0.76908514966,1.46598711786,0.020973717134330175,0.14409711989830634,947.90423544027,947.78930412214,948.12597907785,0.009350459997995398,0.33667495571000927,0.0962130729060009,0.002587210688447604,0.14200321989945985,0.74,0.26,1.2097886233281976,Stairs down
0.0170581054678,-0.70336914062,0.67663574218,0.14828341645751925,0.38314564109871335,0.24530273437359995,-0.33361816406,0.91577148437,0.0850584996095593,0.29018600003009054,-0.8772216796842,-1.21057128906,-0.6083984375,0.02661852643973489,0.16233404194850057,1.0240913576856001,0.63719246215,1.35758521654,0.03896971207840752,0.19641795986524105,947.9011555806655,947.70311024335,948.15503018793,0.01051204485335783,0.4519199445800268,0.102014334310548,0.0013279417793243815,0.019327619846303712,0.56,0.44,0.08804513539335179,Stairs down
0.4618676757779999,-0.15209960937,0.91796875,0.05986523440947875,0.24344728806331767,0.25880615234219995,-0.76306152343,0.64733886718,0.08973703481149284,0.2980598336968232,-0.8072314453099999,-1.06408691406,-0.45861816406,0.02672035908466398,0.16264426056217704,1.0353409175008002,0.5327188857,1.3095605325,0.034902593219499393,0.1858858985703445,947.9991378627716,947.92404089427,948.06394142406,0.0011668445298692912,0.13990052978999756,0.033987881436926874,0.0003060370584555758,0.03953553627920936,0.48,0.52,-0.46003441210869184,Stairs down
-0.11323486328199998,-1.07885742187,1.08862304687,0.5781523662864086,0.7565519431100184,0.49060546874659994,0.27172851562,0.91918945312,0.027263274072133307,0.16428828726178862,-0.4429614257761999,-1.01098632812,-0.20422363281,0.03956470333593809,0.19791173866796963,1.0326394070691998,0.6344709211,1.23718320736,0.022138464826516213,0.148044183196271,947.9786519612255,947.86444186945,948.09614670727,0.00392149521831862,0.23170483781996154,0.0623079470544122,0.0002941395236693106,-0.5431870633920095,0.52,0.48,0.1482195653268187,Stairs down
-0.9532446289018001,-1.1748046875,-0.74304199218,0.01662522704340123,0.12829253592071216,0.2698583984330001,0.13037109375,0.47631835937,0.009863018652416736,0.0988149202595062,-0.26950195312139996,-0.47680664062,-0.10876464843,0.008813302661454627,0.09340861649141412,1.0342731561435996,0.81047327098,1.28735199929,0.01955328467380919,0.1391321380094157,948.0267402969877,947.99379632916,948.09007436049,0.0006387885042005307,0.09627803133002999,0.025147576804903597,-0.00021964520742633783,0.6774073918497097,0.52,0.48,1.030555440230071,Stairs down
-0.8732641601532001,-1.16296386718,-0.53051757812,0.03466633912888184,0.18525570365738547,0.6629589843721999,0.13403320312,1.8095703125,0.0928130498801833,0.30312525361866743,0.07732910156179999,-0.62243652343,0.50122070312,0.0734555445762095,0.26966829463332803,1.1548706848297998,0.79863426075,2.14134836504,0.07402422614578712,0.27071014736121224,948.0502050465395,948.00125307443,948.1011399144,0.0007179843004989831,0.0998868399700541,0.0266609162913429,0.00017417282334010464,-0.788457916412383,0.44,0.56,-0.10364834705278242,Stairs down
-0.9436987304644,-1.15222167968,-0.76953125,0.010415298944646259,0.10154381298336101,0.5077001953092,0.2314453125,1.8095703125,0.06758745441520554,0.2586727273429758,-0.10958740234219999,-0.62243652343,0.11645507812,0.01790773616250145,0.13314900976303368,1.1039559795457998,0.91920182218,2.14134836504,0.036938142225101084,0.19122960231839128,948.0216689056998,947.98772220362,948.05013459191,0.0002750922447879927,0.0624123882899994,0.016502767111612304,0.0003981236380740067,-0.6329402326577225,0.46,0.54,-0.5578936018271831,Stairs down
-0.462724609374,-1.27221679687,0.716796875,0.5136512534491531,0.7131021952810561,0.45538818358919997,0.00305175781,0.8193359375,0.03477633915176828,0.1855493890053282,0.1182788085932,-0.24304199218,0.79711914062,0.1120981106886348,0.33313230041793973,0.9998678168394,0.19291701916,1.49177677933,0.09057286216686457,0.2994447086612083,948.0447444403873,948.00515215966,948.1824292289,0.0011823765570382417,0.17727706923994901,0.03421334230191285,0.0001770076562618248,7.808197192552816,0.68,0.32,2.5776111215769184,Stairs down
0.5307641601523999,0.30908203125,0.81811523437,0.022626260007161683,0.1496662868086533,0.7666577148399999,0.3984375,1.11437988281,0.03678994901837948,0.19084561700022268,0.3626831054652,-0.10693359375,0.82104492187,0.06732888670189195,0.2581774541567738,1.047516785493,0.71392162444,1.40526076596,0.029494857878905528,0.17087980951568407,948.0612389165402,948.01735571864,948.16659117928,0.001647961180406535,0.14923546063994308,0.04039160269910653,0.0006953561905964408,1.1097291088794679,0.68,0.32,1.3819703728245158,Stairs down
0.38655029296720017,-0.35900878906,0.85070800781,0.14585981940166673,0.3800016068487738,0.6470874023399997,0.25085449218,0.91394042968,0.023735837147788038,0.15329213540266884,0.007338867186599964,-0.79809570312,0.70532226562,0.2609365146774609,0.50825893944985,0.9907220620062,0.7920708482,1.23708570991,0.013023979396505556,0.11355060370839294,948.0916707194957,948.03237239938,948.16186615171,0.0013291068600451842,0.12949375232994953,0.03627417526898072,0.0010590310142110642,-1.3115678535094508,0.58,0.42,0.33411361020412006,Stairs down
-0.4935449218707999,-1.07238769531,-0.07385253906,0.08114849235068736,0.28343783697167263,0.0442993164054,-0.37084960937,0.45532226562,0.06539282669147509,0.25443839809384183,-0.8196069335905999,-1.23681640625,-0.21569824218,0.052987621462896664,0.2290365587592245,1.0226320854327997,0.4477396789,1.53609855502,0.06975940795296783,0.2627961450886183,948.1381463646935,948.05298513076,948.25351386315,0.0041098902329913724,0.200528732390012,0.06378707808531019,0.0008653426726735723,-1.1302401203388839,0.52,0.48,0.3695624520106313,Stairs down
-0.24418212890479998,-1.04760742187,0.38366699218,0.11849288362784843,0.3425024887377754,0.2872021484332,0.08081054687,0.52270507812,0.011461387114109196,0.10652123376570563,-0.9891601562457999,-1.63220214843,-0.51281738281,0.058622270520863426,0.24090672015461667,1.1057326567902002,0.6005009909,2.00867761535,0.08544835192668955,0.2908502508292242,948.2020467438759,948.10698302557,948.370783861,0.003730524608310281,0.26380083542994726,0.06077186324465606,0.000671586047028336,-0.5637122788488447,0.54,0.46,0.47144394668393913,Stairs down
-0.5128808593726,-1.18334960937,0.2001953125,0.14510435662976032,0.37901624379894683,0.303381347652,0.05334472656,0.56030273437,0.015155071110316774,0.12248885826561372,-0.7585888671836,-1.0087890625,-0.49938964843,0.023943026716010306,0.15395972346315187,1.0442504833944,0.75754111631,1.37645136571,0.022672166941060983,0.14981804054135262,948.3007940917811,948.20751340347,948.370783861,0.002826145160945003,0.16327045752996128,0.05289502537418385,-0.00030855418890294255,-1.1246463241085887,0.48,0.52,-0.2699233311978179,Stairs down
-0.2975195312485999,-1.0927734375,0.42761230468,0.18577572856059155,0.42885658590604114,0.23406982421739997,-0.21862792968,0.61206054687,0.06323068144755013,0.25019667190647166,-0.7760498046841999,-1.08459472656,-0.49938964843,0.02410284858788884,0.15447271636768078,0.9943817887034,0.70526385832,1.37106867166,0.027417048222056817,0.16475095671903167,948.3760711814936,948.28187545984,948.45250420345,0.0029778561483292535,0.17062874360999558,0.05429620232434273,0.0011423462792914535,-1.2738515573684814,0.46,0.54,-0.207781150906145,Stairs down
-0.4112866210915999,-1.13586425781,0.67932128906,0.3175442651096054,0.5606860284138614,0.180895996092,-0.16662597656,0.75415039062,0.04686492997531465,0.21539795884724977,-0.6258056640579999,-1.03930664062,-0.42529296875,0.02825512368295818,0.16725002973431305,0.9782026245768001,0.66894319631,1.2479247808,0.02562633950567743,0.1592798672482516,948.3971085934231,948.3363066994,948.48102084094,0.0020389418395464604,0.14471414154002105,0.04492830311898053,-0.0003334719487139793,-1.0416981008426422,0.64,0.36,0.4286163437712697,Stairs down
-1.0468872070276,-1.61767578125,-0.77294921875,0.045287369628057406,0.21174157818382489,0.2629980468716,0.1279296875,0.46789550781,0.007409257262655346,0.08564557600967368,-0.2282324218718,-0.66650390625,0.16198730468,0.03766965290479614,0.1931138430453606,1.1222245152608,0.83977824998,1.74146269787,0.0477834238740259,0.21749848191489898,948.4614766586808,948.39727132816,948.51732758538,0.0012662102044503918,0.12005625722008517,0.03540548124804813,0.0010354084766607357,-0.7770749498535947,0.54,0.46,-0.18807575242421237,Stairs down
-0.9708935546833999,-1.22717285156,-0.70178222656,0.018126694337369683,0.13396054416878123,0.30308837890339996,0.16271972656,0.5458984375,0.010272388657043795,0.1008447557906377,-0.146276855465,-0.25805664062,-0.076171875,0.002568685195608524,0.050428150309647875,1.0323707481842002,0.74069442141,1.31013471486,0.020972229491979525,0.14409200948373135,948.5056238278389,948.45013185417,948.56879766821,0.0012952123064839292,0.11866581404001408,0.03580866073199457,-0.0004591589251864633,-1.1575315455168773,0.56,0.44,0.3238897960611064,Stairs down
-0.978144531246,-1.17932128906,-0.75561523437,0.014885544752850224,0.12139476638357076,0.32683593749699996,0.13806152343,0.51208496093,0.010810638413236876,0.10345304262854964,-0.20468994140219998,-0.44763183593,-0.07836914062,0.009036505276613668,0.09458403789143034,1.0622251983112,0.85355295933,1.24752258129,0.011666076554783958,0.1074682082721961,948.4713144712232,948.45036892978,948.50862315847,0.00023300661519528259,0.05825422868997521,0.015188039670850539,-0.00014963806513652061,0.5545804836462938,0.54,0.46,0.9752103276333997,Stairs down
-0.9554565429654,-1.19348144531,-0.78540039062,0.015753514989518845,0.1248838654095222,0.297514648434,0.17077636718,0.47302246093,0.006220208009034384,0.07847296304424882,-0.16252929687120002,-0.38610839843,-0.02124023437,0.010654855352496837,0.10270495021649088,1.0212701522720002,0.84020713219,1.26818937543,0.017310618701092892,0.1309103224122604,948.4713233858283,948.45036892978,948.49897251778,0.00011171141126883529,0.04860358799999176,0.010516382322650073,8.03308917479349e-05,0.36533677588864943,0.42,0.58,0.17115207977545263,Stairs down
-0.9675048828081998,-1.11291503906,-0.8388671875,0.006161132244156835,0.07809942971440488,0.37008056640339987,0.22729492187,0.66967773437,0.01506250630130943,0.12211421390770337,-0.14043212890380002,-0.279296875,0.005859375,0.007416327246365535,0.08568642817799024,1.0548050971808,0.93908571604,1.24108997779,0.008571999811026963,0.09212100636074648,948.4643778367323,948.45268430867,948.47652086217,4.7895264886885776e-05,0.023836553500018454,0.006885950351114719,-6.950741336686524e-05,-0.9626441984425345,0.48,0.52,0.25562082061744423,Stairs down
-0.2254052734366001,-1.11364746093,0.58740234375,0.44436635045852135,0.6632666786096948,0.41414306640200005,0.20373535156,0.74792480468,0.025487183687701174,0.15884681882500562,0.422324218749,-0.31384277343,1.00903320312,0.18518207135589598,0.4281708194661764,1.0112500351263998,0.74866805417,1.3169832182,0.026806442816887852,0.16290604159674058,948.4927939148246,948.37431984533,948.60515293777,0.003188107579777283,0.23083309243997974,0.05618030352338362,-0.0003794532072616187,-0.21636519269825882,0.56,0.44,-0.3699499640892101,Stairs down
0.37065917968399986,0.14721679687,0.6591796875,0.020342608991232285,0.14191258894587175,0.6011718749959999,0.08715820312,1.28552246093,0.09187636772767609,0.3015917837912686,0.4906103515599999,-0.49853515625,1.11022949218,0.18789232008168488,0.43129270441414613,0.9800473105480001,0.42669333313,1.48723456855,0.07688062702142957,0.27588370874557866,948.4888772836035,948.41093212237,948.6070708745,0.004187056393047781,0.19613875212996845,0.06438311757842503,0.001143087124634059,-1.2275365118996242,0.5,0.5,0.30334897236795405,Stairs down
0.4862329101521999,0.27197265625,0.67565917968,0.013932958570275523,0.11744628127179152,0.5189013671837999,0.36486816406,0.88977050781,0.02273623170268943,0.1500295617058936,0.6511889648399998,0.05993652343,0.92041015625,0.034355145036958995,0.18442232399194358,0.9971862309588001,0.73272463835,1.12014345439,0.00571904288514547,0.07524528195371465,948.5198505476219,948.47178778298,948.59347079076,0.0011253430003848948,0.12168300778000685,0.033377980322078296,-0.00018252572625950545,-0.36062541050597385,0.44,0.56,0.4554834496847394,Stairs down
0.0933984374966,-0.08984375,0.27197265625,0.007424353734204523,0.08573278367615553,0.8714477539019998,0.47119140625,1.41333007812,0.06269277000020558,0.24913017139680918,0.1479003906242,-0.68688964843,0.95886230468,0.252248600272486,0.4997260392152496,1.0317193599885999,0.73272463835,1.43225615775,0.04516788934128791,0.21146207803735173,948.5447709655107,948.47178778298,948.66127061697,0.002213679214446042,0.1894828339900414,0.0468139127001961,0.0006415375847694494,-0.21454188964477128,0.54,0.46,0.5729846982596393,Stairs down
-0.6072131347617999,-1.50036621093,-0.06799316406,0.16400814637273659,0.40294920884524543,0.6388146972612,0.158203125,1.0703125,0.05079452559685175,0.22424669527304797,-0.2926696777309,-0.54284667968,-0.01721191406,0.024856066274687685,0.15686779660574318,1.0147001570493002,0.68753247834,1.57078124874,0.06131291501913917,0.24637326532915008,948.6278212614146,948.57838438212,948.68279674349,0.0009033875571462155,0.10441236137000942,0.02990574663128733,0.00021200808478173368,-1.0258810911116978,0.5,0.5,0.34617707484456184,Stairs down
-0.9896337890587,-1.4208984375,-0.59167480468,0.0731945425216416,0.2691887759480792,0.4078552246058999,0.158203125,0.70617675781,0.020057533839616982,0.14091472066899474,-0.20777343749700003,-0.40930175781,-0.03686523437,0.011096344355416886,0.10481116787758218,1.1038090759556998,0.64332024062,1.50358546415,0.07454664885011605,0.27166373030203145,948.7280453907792,948.68279674349,948.78492245752,0.0008207444558043252,0.10212571402996673,0.028505034840292372,0.0008675857226969913,-1.010314991078316,0.42,0.58,0.07309909798947113,Stairs down
-0.9146557617145998,-1.47546386718,-0.56555175781,0.0535398005292813,0.23022685013696487,0.3556127929651998,0.21875,0.57116699218,0.011481723815435097,0.10661569573604417,-0.1984228515586,-0.39733886718,-0.07653808593,0.006089887378134659,0.07764656144578015,1.0064775689392,0.64317463374,1.61464863204,0.06043479778728764,0.24460263655450398,948.8075513126856,948.76705156786,948.85514929567,0.0007443169233364368,0.08809772781000902,0.027145418657723304,0.0008087363999952326,-1.1521208272006673,0.58,0.42,0.26902372284675863,Stairs down
-0.936508789058,-1.37097167968,-0.70434570312,0.01710565983640016,0.13013302132063237,0.3608398437455999,0.22583007812,0.66174316406,0.0070713981234494985,0.0836700910852558,-0.13339111327720002,-0.21569824218,-0.02368164062,0.0036158482293909082,0.05983050849773048,1.0160265203478003,0.74397248899,1.52913404257,0.020456950505112637,0.1423108604431212,948.8433124742556,948.82501293762,948.8766755085,0.00012690170675718707,0.051662570880012026,0.01120859891733196,1.7115937896327908e-05,0.12564006839263753,0.44,0.56,0.40324829767905845,Stairs down
-0.9303735351519999,-1.37097167968,-0.72692871093,0.03010792256004779,0.17264658506453961,0.39209960937119986,0.265625,0.66613769531,0.009088598622122853,0.09485627357166011,-0.08072021484199998,-0.20239257812,0.06591796875,0.007802886679572388,0.08789117027766023,1.020910537086,0.81025177512,1.52913404257,0.030428142136180083,0.17356226754343318,948.8843493413739,948.83410176977,948.93162227463,0.000684287910601248,0.09752050485997188,0.02602777423244707,0.0007005796379326429,-0.41831002435593145,0.5,0.5,-0.16804867170251692,Stairs down
-0.9891772460903999,-1.35803222656,-0.75256347656,0.01619942357436785,0.1266389724319657,0.3827441406207999,0.22143554687,0.76525878906,0.015301764709794342,0.12308024643579651,-0.11126708984060002,-0.33935546875,0.06323242187,0.012388490215472869,0.11074567853111986,1.076442761219,0.82941504529,1.45887604276,0.022289727452601767,0.14854908339695586,948.9357769826196,948.89858982453,949.04314181621,0.0015062055007065028,0.1445519916800322,0.03861532656471311,-0.000686357019726144,2.050907996735405,0.68,0.32,1.607274171196135,Stairs down
-0.9588281249962001,-1.26916503906,-0.74536132812,0.01986838111989625,0.14024869806417914,0.3873461914026,0.18774414062,0.67626953125,0.01949936152125893,0.13894015944300028,-0.15153320312080001,-0.36022949218,0.00390625,0.009036750961892352,0.09458532366214871,1.0574910355018,0.80753046421,1.35461618836,0.0222059751793099,0.14826973874502106,948.918465869996,948.89567003784,948.9375065634,0.000148387987754334,0.04183652556002926,0.012120400483349988,-0.00020691047373512877,-0.9777132997872862,0.44,0.56,-0.43745036431288675,Stairs down
-0.9595654296830999,-1.07922363281,-0.77416992187,0.0057321302577651,0.07533132784696848,0.3946435546833,0.22229003906,0.69653320312,0.014711029204372457,0.12068106277427595,-0.10572998046620002,-0.29162597656,0.02111816406,0.007888174725022441,0.08837020412883641,1.0539201988738,0.87838557609,1.23812759962,0.00895113366351436,0.09413619031424214,948.9139768158437,948.89009532969,948.94961077078,0.00020803192866794475,0.05951544109007045,0.014351014228313806,4.455552598752553e-05,-0.22586975315762947,0.54,0.46,0.26353896032242186,Stairs down
-0.9396691894491,-1.13391113281,-0.75939941406,0.012187087732687866,0.10984178100960029,0.38730834960539995,0.23400878906,0.57458496093,0.011549186241485451,0.10692845448743096,-0.0956042480435,-0.28344726562,0.01245117187,0.0065082124069236165,0.08026911163613548,1.0263283608995002,0.80874393745,1.25992351991,0.018907325907782525,0.1368146653276055,948.9118121456179,948.87585971537,948.94868446419,0.0002620138667351674,0.07282474882003953,0.016105704829898496,-0.0002555674609206013,0.6294248328464773,0.54,0.46,0.34212157680754224,Stairs down
-0.9526647949171999,-1.13012695312,-0.75659179687,0.011883219340668053,0.10846375960320283,0.3743725585899,0.21520996093,0.6298828125,0.013705517613726624,0.11648374323307677,-0.1407946777313,-0.29125976562,-0.00561523437,0.00532840445033732,0.07263002413488479,1.0401182341162,0.82453997169,1.25220262061,0.0164749438649751,0.1277113715623059,948.9230464628167,948.88232227096,948.97594672541,0.000638410091708499,0.09362445445003686,0.025140127103724316,-0.0004419669254002841,-0.4549910675320761,0.48,0.52,0.31446527374854255,Stairs down
-0.9353015136683002,-1.04833984375,-0.77551269531,0.0053410531580652815,0.07271617857454164,0.3966052246056999,0.22473144531,0.63745117187,0.013996949248311857,0.11771567336522668,-0.0925280761683,-0.22045898437,-0.02722167968,0.002948240949415601,0.05402553599846507,1.0264252490378998,0.86911597913,1.2194508347,0.009253191510692682,0.09571133472889068,948.9197945998127,948.89418752327,948.93951263896,0.00014918594585113258,0.04532511568993414,0.012152945585026753,0.0002178075736021295,-0.5930790562623836,0.54,0.46,-0.2870510851721203,Stairs down
-0.9291845703093999,-1.07885742187,-0.74951171875,0.007604591557459058,0.08676719219776832,0.37911376952629994,0.22937011718,0.49951171875,0.006095535376055472,0.07768255931864576,-0.1401062011681,-0.2431640625,-0.04370117187,0.0023785111202978344,0.04852551915327497,1.017153982884,0.85090226642,1.17985683766,0.008137970025618172,0.0897585111583408,948.9268110436732,948.90476825509,948.94455253645,0.00010424418605226391,0.039784281360084606,0.010158825925850943,3.183510572716065e-05,-0.10103660811510906,0.36,0.64,-0.49459244887704906,Stairs down
-0.9564477539033999,-1.40771484375,-0.63684082031,0.05476345094169186,0.23284290075558442,0.3493383789028,0.21203613281,0.68664550781,0.01035479541380619,0.10124844423332208,-0.16448242187079998,-0.48852539062,0.04418945312,0.012304543340910903,0.11036982335539818,1.0375090406448,0.67692747645,1.50772992337,0.06475518020563585,0.25319484276655296,948.9511899767613,948.92131509593,948.9871137677,0.0003607696874112448,0.06579867176992593,0.01889872986571141,0.0002783154510771453,-0.6382040797304085,0.58,0.42,0.5209385553442203,Stairs down
-1.0301281738249,-1.5537109375,-0.72509765625,0.056890886749322786,0.23732251869940527,0.4119079589806999,0.21203613281,0.65258789062,0.012819758080075322,0.11265682624357286,-0.1113415527329,-0.35131835937,0.50964355468,0.03887901248711494,0.19618925139324986,1.1350956757456,0.8282595651,1.69325305732,0.061711741079635334,0.2471732664930392,949.0153672803374,948.95598417357,949.07345637968,0.0009739802973353322,0.11747220611005105,0.031052222051923737,0.0007446876405032353,-0.9246087313596099,0.5,0.5,-0.21455615017976076,Stairs down
-0.5751672363263002,-1.11694335937,0.08166503906,0.1491624685401566,0.3842796427795194,0.3261413574196,-0.42517089843,0.61633300781,0.054990974752103454,0.2333260915641078,-0.5194091796842001,-0.93151855468,0.01440429687,0.11891016454336484,0.3431050318749802,1.0091280527353,0.87377695198,1.23422349531,0.008550480445944645,0.09200530224658358,949.0939079873968,949.02426858117,949.18189430577,0.0025165665329466673,0.1576257246000523,0.049913934603647514,0.0005436649110030523,-1.214414288586083,0.54,0.46,0.3886762398705596,Stairs down
-0.6205761718721999,-1.052734375,0.02233886718,0.07558403927810507,0.2735474344338181,0.11494628906000001,-0.38781738281,0.43701171875,0.031300660190935505,0.17603310367378674,-0.7978002929646999,-1.0283203125,-0.63452148437,0.012393368368327789,0.11076748026674846,1.0585577074116002,0.78269223604,1.40948247267,0.03268041329194161,0.1798710903925981,949.0786646235382,948.97885923848,949.14392774338,0.0022989365376451182,0.1650685048999776,0.04770688810086723,0.0004279662391197564,-0.9913609686013629,0.46,0.54,-0.46973882034042036,Stairs down
-0.27799926757629995,-0.86645507812,0.18469238281,0.10690844499953155,0.32532961830970175,0.268403320308,0.03100585937,0.4306640625,0.011020448809898203,0.10445211497044576,-0.9053942871056,-1.13305664062,-0.58923339843,0.021081386339483362,0.1444665098771633,1.0341616531196,0.61917192398,1.44398722846,0.03756828567060716,0.19285383795481253,949.1718099058943,949.0403277276,949.32895082556,0.0060575425728047715,0.28862309795999863,0.07744008746816292,0.0010242422059763751,-0.5581386846221221,0.5,0.5,0.18780649551142448,Stairs down
-0.41774658202899984,-1.05590820312,0.17749023437,0.13876840995204345,0.37064906023423694,0.371142578122,0.169921875,0.6142578125,0.01571168923587553,0.12471797121312057,-0.8517480468712,-1.10021972656,-0.58923339843,0.018936707660662137,0.1369209282179153,1.0723643945985,0.61917192398,1.63428805723,0.06005151456650858,0.24382575627042255,949.2012737617371,949.13223613977,949.26420767075,0.001651541585285923,0.1319715309799676,0.04043545683472692,0.0004546838706955098,-1.0870679308169513,0.34,0.66,-0.3177750409442857,Stairs down
-0.2093200683586,-0.90161132812,0.37902832031,0.17450481152442157,0.41564379390191475,0.2175195312481,-0.26123046875,0.6142578125,0.049214344336768974,0.22073106010120389,-0.8670202636681,-1.01965332031,-0.61389160156,0.010655160099230458,0.10270641897290624,1.0285108435111998,0.77873693632,1.34603264903,0.01722201281209001,0.13057485471548155,949.2740864298813,949.190599298,949.34252485599,0.0021263233587676413,0.15192555798989815,0.04588093422305135,-5.7462605054848685e-05,-1.188820329655921,0.46,0.54,-0.16220533534036485,Stairs down
0.05532592773259999,-0.52612304687,0.68054199218,0.14886499319598745,0.3838962662803945,0.21536376953140002,-0.47351074218,0.96118164062,0.2200801807843868,0.46677551240027887,-0.7334020996062001,-0.98095703125,-0.15759277343,0.03997881709192685,0.1989447886249036,0.9845667263960999,0.66362314836,1.33836300717,0.023014407729447166,0.15094457145638823,949.3653905209273,949.26741537173,949.52665516375,0.004685655306261559,0.25923979202002556,0.06810872743781772,-0.0005068533178389999,-0.2583194815278964,0.56,0.44,0.8592704173406092,Stairs down
-0.6242858886681999,-0.99182128906,-0.20654296875,0.04902218218219668,0.22029970576552008,0.43694946288689995,0.0908203125,0.89428710937,0.03729978911025902,0.1921634492278811,-0.7368347167928999,-1.16931152343,-0.40844726562,0.03577733683285998,0.18820085936183018,1.1073331730179,0.95047028376,1.43257046904,0.018459255312647492,0.13518381101123395,949.3909817412931,949.32427574214,949.46570394105,0.0020511699086134126,0.14142819891003455,0.045062825139212906,0.00042001501563289367,-1.1653987779710142,0.54,0.46,0.054351046459849714,Stairs down
-0.13666137695140002,-0.50708007812,0.22094726562,0.03693928003641846,0.19123254753324362,0.552886962886,0.2763671875,0.86950683593,0.03362381650148743,0.18244883758597244,-0.8714160156205,-1.24328613281,-0.48974609375,0.026648554392232043,0.16242557941503463,1.0749198506911997,0.7574314949,1.44000578769,0.02476065351118818,0.15656642991419426,949.4424386367867,949.36405515047,949.51730336093,0.0022253938713983853,0.15324821045999215,0.046937617458541726,-0.0002437299585718808,-1.1121748164143017,0.5,0.5,-0.04177841836338858,Stairs down
0.3077465820272,0.01147460937,0.71459960937,0.03759845152659714,0.1929312494422072,0.6483129882777999,0.1083984375,0.95751953125,0.06145645391433017,0.2466614874178514,-0.5050085449194,-0.83520507812,0.45971679687,0.1312047093953011,0.36040624620190487,0.9854965062262999,0.57638424337,1.27796421671,0.02707573218606231,0.16372224914226435,949.4597925323756,949.32763089546,949.62879056987,0.0035841191746115177,0.30115967441008706,0.059567423839422526,-0.00038285434470752415,1.265313613114449,0.4,0.6,0.28301157846974,Stairs down
0.4727331542939999,-0.74584960937,1.09106445312,0.1982818497695436,0.44305646510557567,0.6060351562467998,-0.34765625,1.08654785156,0.12456789267134878,0.3511726267017908,-0.44465332030899984,-1.01940917968,0.4873046875,0.1468512494144929,0.38129088229375213,1.0941810450737,0.3553507263,1.46229532961,0.05681176119164314,0.2371574236234799,949.441789670841,949.3561326297,949.62808290639,0.004777310915406497,0.27195027668994953,0.06877163518669913,-4.7225901457295355e-05,1.8484362070749931,0.62,0.38,1.5133684715709952,Stairs down
-0.4062329101560999,-1.37963867187,0.91650390625,0.6080853333997642,0.7758894767077116,0.45130859374659993,-0.15270996093,1.12548828125,0.0954903343954027,0.30746614618759033,-0.0537646484365,-0.42016601562,0.39697265625,0.042933789863821334,0.2061660785997132,1.0021089946182,0.13973990692,1.74108441674,0.10749210857709461,0.32621647335982845,949.4451959308396,949.39598305596,949.51473144151,0.0012310194480286845,0.11874838555002043,0.03491001652174341,0.0005137784123697607,-0.8572081056961993,0.44,0.56,0.3332893858248669,Stairs down
-0.9781933593712998,-1.13891601562,-0.80969238281,0.006599875869123234,0.0808324013649972,0.33500854491749993,0.20056152343,0.54284667968,0.009132972237624921,0.0950875518417036,-0.21091064452729996,-0.35021972656,-0.03381347656,0.00489978223742442,0.06964757293007542,1.0614500208900999,0.90193881407,1.23041782576,0.007400435004906162,0.08559457140997377,949.4852272355405,949.45783602973,949.54166929174,0.0005464690339231834,0.08383326201010277,0.0232595000716686,0.00031384918620057443,0.2932601282419487,0.58,0.42,1.0028857553678956,Stairs down
-0.8297827148393999,-1.02307128906,-0.62329101562,0.016979356962199016,0.12965170030731193,0.5071862792926,0.22509765625,0.9111328125,0.03228143629871673,0.17876974558277348,-0.24394409179270007,-0.37475585937,-0.12646484375,0.005758201502454959,0.0755024468969742,1.0256000237435001,0.86252430487,1.19052345213,0.007979183623418177,0.08887852264289722,949.5229100380297,949.4704952931,949.59915866799,0.001687556643703317,0.12866337488992485,0.04087396576387327,0.0010994832035795194,-1.0692726208594114,0.68,0.32,0.6355116893480599,Stairs down
-0.6251318359327999,-1.12817382812,-0.2392578125,0.047366396248666676,0.21654729803481734,0.20751464843410003,-0.01538085937,0.4345703125,0.01826888501033704,0.13448492911933912,-0.7280175781214999,-0.99182128906,-0.37475585937,0.015319582693790532,0.12315188535646795,1.0171245515745,0.84234959452,1.27996366755,0.009560300571276442,0.09728667722542321,949.5146897639762,949.4239496289,949.5812490968,0.001633431944715759,0.15729946789997484,0.040213152391582054,0.0006586412908978632,-0.7315064486218659,0.52,0.48,-0.1182775515424724,Stairs down
-0.7567810058562999,-1.29296875,-0.38732910156,0.0365099035055751,0.19011786993999105,-0.034827880858899984,-0.3544921875,0.23645019531,0.023863450954609653,0.15370366438398128,-0.6799914550734999,-0.93957519531,-0.51000976562,0.01219520890794231,0.10987837284408106,1.0412061206637002,0.79310128556,1.59524183948,0.02429448799250009,0.15508559930752785,949.5352460330561,949.45945434475,949.58296118821,0.0012884139501878455,0.12350684345994978,0.03571456020569156,0.0003704818816186842,-0.649867554935287,0.36,0.64,-0.6081075153449891,Stairs down
-0.2526281738263,-0.77648925781,0.19140625,0.09190693300483814,0.3016419461460719,0.36615600585679997,0.02917480468,1.03283691406,0.09092533840541835,0.3000268071712329,-0.8792382812448,-1.05358886718,-0.52770996093,0.01611289414492124,0.1263002977172739,1.0699197139980001,0.82804598521,1.5183793534,0.023412817721238623,0.1522454910466193,949.5854931950581,949.52646640768,949.63642324709,0.0008253591034691185,0.1099568394099606,0.028585057502730816,-0.0005740982587626375,-0.4398322360698699,0.52,0.48,-0.17226273799951225,Stairs down
-0.3061560058589,-0.86584472656,0.15270996093,0.11101727908563822,0.33152240692716656,0.27050048827800005,-0.13757324218,0.54174804687,0.025491166541911445,0.15885922974914718,-0.8444799804644998,-1.01342773437,-0.67407226562,0.009330075792489987,0.09610814239472681,0.9997115729823001,0.75604345362,1.30091207149,0.025257937921285778,0.15813082729838898,949.6687811201841,949.57144265002,949.75236202076,0.002595126669302136,0.18091937073995723,0.050687033870696306,0.0006473214497616929,-1.0409209301561608,0.48,0.52,0.0656314116898924,Stairs down
-0.41341430663809986,-1.09423828125,0.17211914062,0.13198987212170557,0.3614830195188821,0.2708752441361,-0.03894042968,0.58374023437,0.021918672652364298,0.14730745373483534,-0.8319335937461,-1.17700195312,-0.56140136718,0.02624077568158823,0.1611780627901091,1.0326597773313997,0.60689256672,1.45533349785,0.048848386624371985,0.21990885102270954,949.7304135413066,949.63519905885,949.80167164319,0.0015765333285413603,0.16647258433999923,0.0395065563578496,0.0005382136887779861,-0.13759168295166946,0.37,0.63,-0.43286111264855165,Stairs down
-0.5206665039036001,-1.0654296875,0.17810058593,0.11029811745351567,0.3304468736105405,0.2558435058567,-0.03796386718,0.65979003906,0.026778808041732553,0.16282204998499197,-0.8539648437459999,-1.06970214843,-0.60131835937,0.015050825109326812,0.1220668540523329,1.0904965651742,0.80619199159,1.5102464569,0.02750421876128662,0.16501265579849855,949.7638512794515,949.70427153743,949.85523507918,0.0011709965132727961,0.15096354175000215,0.034048297286943266,0.0005041164149066123,-0.10777435641778021,0.36,0.64,-0.027262988306504456,Stairs down
-0.24667480468609995,-0.70483398437,0.470703125,0.15710997133291668,0.3943841675569489,0.4656005859340999,0.20239257812,0.64807128906,0.015516496065962043,0.12394083711716014,-0.8363476562449997,-1.10327148437,-0.56958007812,0.02790785543827028,0.1662190629377015,1.0592688633636,0.66373759904,1.38072349063,0.0541295168871726,0.23149129944406308,949.8379919110998,949.75158788986,949.95104252024,0.003956985343264778,0.1994546303799325,0.06258926017961972,-0.0005758753957411497,-1.2075197180684047,0.55,0.45,0.2292053378484589,Stairs down
-0.2996557617171,-0.92333984375,0.19299316406,0.11528776618448662,0.3378385539316698,0.38292846679319986,0.05993652343,0.65576171875,0.03057436340257091,0.17397879114577502,-0.7899243164023,-1.37438964843,-0.32873535156,0.06322225591732009,0.250180001914915,1.0021355167593997,0.52191313073,1.67329671162,0.06376379752982816,0.25124919811718777,949.9009175604584,949.78102566538,950.01152323903,0.00468814740353701,0.23049757365004098,0.06812683707249031,0.00089422681398494,-0.893487264538317,0.52,0.48,-0.14304593956868386,Stairs down
-0.7357849121056997,-0.96899414062,-0.51391601562,0.01807719721208004,0.13377752143001917,0.5760791015577,0.44604492187,0.75500488281,0.0068374953848436525,0.08227466457540386,-0.3745544433563,-0.61584472656,-0.19873046875,0.010755903303834455,0.10319081485673087,1.0139774408926001,0.78743333988,1.26015804595,0.020910341896133958,0.14387924964070606,949.9828270485388,949.93455228376,950.0422042522,0.000928939002722601,0.10765196843999547,0.030325725262479297,0.00015667352777900582,-0.8500995250376966,0.51,0.49,0.43021261491361323,Stairs up
-0.7548071289016,-0.91003417968,-0.55859375,0.007421894741699528,0.08571858488264102,0.6327575683555999,0.40942382812,0.9306640625,0.01616447061463197,0.12650227629764474,-0.2929040527304,-0.56091308593,-0.12036132812,0.01614644474900804,0.12643172189572505,1.0380473262763996,0.82665160299,1.32946315558,0.017880764318425623,0.13304870038914837,949.9793935485603,949.87992620211,950.14587225276,0.004371887300478243,0.2659460506499727,0.06578881688762506,-0.0005164374395624878,0.7806152558362296,0.56,0.44,1.0388206426973419,Stairs up
-0.7644189453088999,-0.99157714843,-0.61328125,0.011508569356104918,0.10674026261230515,0.6017541503872,0.39855957031,0.82775878906,0.014799980579939077,0.12104536659508981,-0.29964965819920003,-0.53210449218,-0.15087890625,0.013141315950786724,0.11406096085549543,1.0291890692896002,0.83634843262,1.29184966047,0.016221743433262582,0.1267261851352354,949.88725338831,949.85035331382,949.95639028493,0.0008394552624181483,0.10603697110991561,0.028828123591277437,-0.0004976201874320831,0.2429833308097411,0.56,0.44,0.9360758297429063,Stairs up
-0.7378405761670999,-1.02038574218,-0.61669921875,0.010211014354740254,0.1005430465581427,0.6388171386684999,0.42565917968,0.86010742187,0.012851157782932674,0.11279470823182862,-0.22601074218439998,-0.39599609375,-0.06103515625,0.007950788940968052,0.08872024037139649,1.0084191408215,0.82319147716,1.32183496175,0.017546036336610046,0.13179748090629026,949.8570734968193,949.801958098,949.90758604817,0.0007294284161419546,0.10562795016994642,0.026872553506887564,-0.000624417157479463,-0.32972160509711435,0.59,0.41,-0.15009905673061028,Stairs up
-0.7345654296836998,-0.92810058593,-0.49145507812,0.016907755268819265,0.129378041862331,0.6438085937463,0.41162109375,0.87182617187,0.017908512245450463,0.1331518949282959,-0.3499877929644999,-0.54797363281,-0.14172363281,0.011211885195881744,0.10535542864002276,1.0469257748436,0.803640833,1.36903572496,0.026345074996359956,0.1614980626707217,949.8186672250063,949.74289807642,949.92397107609,0.002391123100324603,0.1810729996699365,0.04865400157562949,-0.0008416707454079596,-0.2462205056582678,0.59,0.41,0.8429303352630203,Stairs up
-0.7436076249175247,-0.97546386718,-0.60473632812,0.010660324013845977,0.10273644071765699,0.604947836088812,0.42321777343,0.76220703125,0.008862338331665044,0.0936727943833702,-0.3154514426014851,-0.55554199218,-0.14013671875,0.010814495800476982,0.10347667169285392,1.015100043717228,0.78827956986,1.31776956433,0.018212813239011517,0.1342851010181582,949.7881684193907,949.74868224647,949.82076624851,0.00039099427813803136,0.07208400204001464,0.01967544275642653,-0.0004553576310721725,-0.8170692908284178,0.41,0.59,-0.4419084482547908,Stairs up
-0.7494845920093938,-0.99291992187,-0.56323242187,0.014222566435348204,0.11865455805877187,0.6174624664582828,0.44421386718,0.79016113281,0.010611686275883752,0.10249145098798387,-0.34736278803272724,-0.55200195312,-0.23083496093,0.006913452099605295,0.08272617028555312,1.0364854859202022,0.81643521563,1.30385602508,0.020984783569168587,0.1441277768453011,949.7570789755961,949.68432316556,949.80761567104,0.0013455884493704087,0.12329250547998072,0.03649652924390915,-0.0004805598595999936,-1.2118212883389476,0.56,0.44,-0.20372902593448308,Stairs up
-0.7381274414025001,-1.00085449218,-0.60583496093,0.012150391370105354,0.10967628484045354,0.6160644531207999,0.43420410156,0.74011230468,0.008346850221687544,0.09090314471716954,-0.3505871581995999,-0.55200195312,-0.24011230468,0.007487572652972741,0.08609702042720765,1.0302214890422998,0.85381881775,1.2976574261,0.013765187135562346,0.11673703467283518,949.699270390955,949.66512573877,949.76035675523,0.000842269214129029,0.09523101645993393,0.028876400779663292,-0.00034518618475693706,-0.6725437827315388,0.6,0.4,0.6732279731206247,Stairs up
-0.7523388671835,-0.97692871093,-0.59045410156,0.009799731114994645,0.09849737968009453,0.6172045898391998,0.45141601562,0.80517578125,0.008611181474795778,0.09233130379263481,-0.27771362304450004,-0.50354003906,-0.13806152343,0.01134946474382375,0.10599985894512083,1.0189443530375002,0.83219592833,1.28637082526,0.015449810295341787,0.12367421797767054,949.6502559471572,949.60857200461,949.68174937716,0.0005133300656251054,0.07317737255004886,0.022543219933471224,-0.0002927372824328426,-0.9557299211257257,0.35,0.65,-0.5588758818085263,Stairs up
-0.7614685058556,-0.97155761718,-0.64086914062,0.00790472023878272,0.08846283420959841,0.6103271484332999,0.39672851562,0.83581542968,0.012808788304227853,0.11260861610545427,-0.29355468749610003,-0.54162597656,-0.1494140625,0.011846797032749263,0.10829741022952381,1.0262883619543999,0.84953159546,1.29739265566,0.01765128153168585,0.1321921658660943,949.5961660270352,949.5535440673,949.6455128224,0.0006858892391051302,0.09196875509996971,0.02605821073508461,-0.0007936324124663462,-1.0697918437936975,0.55,0.45,0.33938661818499016,Stairs up
-0.7897985839803999,-1.04931640625,-0.63024902343,0.012211827453924518,0.10995321359280624,0.5656982421835999,0.32849121093,0.72521972656,0.011590724039555685,0.10712057131643822,-0.26695556640230006,-0.42602539062,-0.15771484375,0.006315310645534814,0.07907058580205073,1.0134397121382999,0.82038997102,1.29342832781,0.01799819422336157,0.13348487660078934,949.5517955303964,949.51484594835,949.58557924995,0.0004988809939154962,0.07073330160005753,0.02222368520242179,-0.0004991400570226104,-1.2240345865209574,0.55,0.45,-0.0018073316412462329,Stairs up
-0.6992773437455,-1.01940917968,-0.44909667968,0.023191597269255907,0.15152452374636705,0.6064270019501999,0.40502929687,0.80004882812,0.009979608496956241,0.0993972454949667,-0.3857104492150999,-0.63061523437,-0.19702148437,0.025006560550661906,0.1573419681622017,1.0224721244568,0.80904708354,1.31730687832,0.017840208253366314,0.1328977282380427,949.487485691228,949.43607606322,949.53928513416,0.0008668407177700345,0.10320907094001086,0.029294578177409113,-0.0007752910335915796,-0.9098210736974495,0.4,0.6,-0.22800280394446287,Stairs up
-0.7810892539406928,-0.99768066406,-0.59460449218,0.013823016563196984,0.11698784130441214,0.6220691038788116,0.45336914062,0.82727050781,0.009943558125209499,0.09922251284190937,-0.33321811184524736,-0.49340820312,-0.10485839843,0.011488293444738801,0.10665152584509949,1.0600947921355444,0.82411317917,1.36709426016,0.020561405424707194,0.14268085769708366,949.4352454608771,949.38386946387,949.47792408047,0.0008401538257001456,0.09405461659991943,0.02884155805413853,-0.0007818290883326246,-1.2358529602368575,0.44,0.56,-0.23064631924928608,Stairs up
-0.7789746093712,-1.02233886718,-0.64025878906,0.011135623768097392,0.1049965119916677,0.6027929687459999,0.39489746093,0.90026855468,0.018956962161640604,0.13699413323213588,-0.227578124996,-0.29895019531,-0.14208984375,0.0025976363094366225,0.05071153661980927,1.0167920762967997,0.84546298522,1.31223229107,0.020656365443487274,0.1430028034307454,949.4035015349115,949.36392914406,949.43667293082,0.00033006807415392387,0.0727437867600429,0.018076708589020975,6.692006285645815e-05,0.19680164605394035,0.52,0.48,-0.24554577730497013,Stairs up
-0.7384277343715999,-1.0068359375,-0.59008789062,0.011534471704536052,0.10686031530690283,0.6333154296832,0.45324707031,0.86950683593,0.012157115454556954,0.10970662833216316,-0.32280761718319995,-0.50073242187,-0.21105957031,0.00504748276987053,0.07068951790875239,1.0296974051076,0.85044642463,1.28051139895,0.018932972954069174,0.13690742574648201,949.3412580698175,949.32515602737,949.36294284716,0.00017844676300962352,0.03778681978997156,0.013291436919292333,-7.223011527007802e-05,-1.5007855777214394,0.52,0.48,0.19492553008811936,Stairs up
-0.7891650390592,-1.04174804687,-0.58715820312,0.01732017738644622,0.13094646086313963,0.5684667968707999,0.37963867187,0.77551269531,0.014344131488771675,0.11916664874822971,-0.28727050780920005,-0.40759277343,-0.18774414062,0.003208219065829598,0.056357225580854334,1.0178698386540004,0.77126882897,1.32815151188,0.027197067574019924,0.16408868607640115,949.3078521919603,949.28027970476,949.37690683948,0.00043390692060629466,0.09662713471993811,0.020726018705970323,6.483736568551226e-05,2.801305096436633,0.6,0.4,1.5697552708508593,Stairs up
-0.7802870008642424,-1.05261230468,-0.61572265625,0.01355666131644034,0.115843538203678,0.586544152459495,0.42700195312,0.81469726562,0.011432735729633561,0.1063825810485267,-0.32691539417272725,-0.46179199218,-0.22143554687,0.004641825779020017,0.0677859767941645,1.033639253341111,0.83440461838,1.32141208569,0.020888326140392353,0.14379615066842039,949.2446109600639,949.18495950304,949.30810758205,0.0009852377008562614,0.12314807900997948,0.03122956619756375,-0.0008949104057906646,-0.5924202390605604,0.35,0.65,-0.30089990629074087,Stairs up
-0.7960144042934999,-0.99475097656,-0.63452148437,0.009603700666409499,0.0975072492676591,0.5721411132782999,0.3271484375,0.81896972656,0.021533637931970825,0.146007881816877,-0.25712768554240006,-0.51110839843,-0.07458496093,0.010338143536241204,0.10116700104717344,1.0216001669132,0.77909749092,1.33291356798,0.024740260904189206,0.15650194342290868,949.2153447592561,949.18427140972,949.24857786442,0.0003262252776198784,0.06430645469993124,0.017971172049804644,-0.0005075130393747894,-0.8520444748822333,0.51,0.49,0.15255366045055482,Stairs up
-0.8402514648413001,-1.12426757812,-0.63452148437,0.014393833014537607,0.119372922743779,0.5864331054655,0.38952636718,0.83825683593,0.019475857964450997,0.13885639842947997,-0.1999853515603,-0.32043457031,0.01745605468,0.00740649606230113,0.0856296157977958,1.0498854533532,0.7958508249,1.33670451358,0.02881253757360853,0.16889171737498687,949.1772176520473,949.15129339463,949.20553883325,0.0002806796434092595,0.05424543862000064,0.01666951849859998,-0.000285230145336478,-1.290354992610125,0.47,0.53,-0.04327817681624852,Stairs up
-0.7968408203083999,-1.04772949218,-0.54797363281,0.01588111757025638,0.12538862147162244,0.5390588378860999,0.35375976562,0.70092773437,0.012964839723091232,0.11329250339656335,-0.25269897460569996,-0.3623046875,-0.15771484375,0.003912210733903408,0.06223414357540701,1.0024664135202002,0.75106068947,1.29948147281,0.02392651282367748,0.15390662005073305,949.1440116562663,948.99884219689,949.24411795377,0.003313135674288448,0.24527575688000525,0.05727132194690082,-0.0010784614954384398,1.0879757584050074,0.31,0.69,-0.8936653910393708,Stairs up
-0.7061767578095999,-1.51733398437,-0.07958984375,0.11746427145844876,0.3410126518823961,0.5978027343711999,0.107421875,0.82312011718,0.03463142207145905,0.18516238238568994,-0.30846191405959994,-0.52270507812,0.03051757812,0.025509453686327274,0.15891620165818213,1.0373077722023998,0.50353127951,1.54401013445,0.05153955191348552,0.22588527263713026,949.0540390184599,948.96761348305,949.27127409674,0.003609948594797098,0.3036606136899991,0.0597816787055125,-2.931936488845003e-05,4.553496207534452,0.6,0.4,1.8104836186951,Stairs up
-0.9411718749951998,-1.32507324218,-0.72924804687,0.025798560296967688,0.15981418802471203,0.2632324218712,0.14892578125,0.33618164062,0.0020882710061265047,0.045468541829106854,-0.21561523437160005,-0.34338378906,-0.05541992187,0.0074881624934633175,0.08610041154680205,1.0050301461824003,0.77626109807,1.3715743122,0.026789277399054942,0.16285387506923005,949.0246282961807,949.00443662669,949.05335068697,0.00011297949188510467,0.048914060280026206,0.01057590170936992,-0.00025780530080236577,0.46861693898471923,0.39,0.61,0.253526390319329,Stairs up
-0.9760101620482177,-1.34228515625,-0.7734375,0.02576128858162235,0.15970668839606553,0.29579328782138614,0.13159179687,0.43090820312,0.006727223703142522,0.0816126064273399,-0.22227795288930693,-0.30810546875,-0.0693359375,0.004914389701145828,0.06975480182304375,1.0505943149792076,0.89971021815,1.37369295333,0.023008966993200985,0.15093427522869965,948.9930012789654,948.96170316444,949.03386843848,0.0003880664712562064,0.07216527404000317,0.019601638425563842,-0.0003570735562541047,-0.5745004314185778,0.48,0.52,0.21216519259713937,Stairs up
-0.9584863281203999,-1.07446289062,-0.84558105468,0.0033043188518865744,0.05719506677474648,0.31135742187079996,0.17907714843,0.47082519531,0.007826248660107716,0.08802264579928644,-0.19505371093399998,-0.36193847656,-0.03833007812,0.007511419864585006,0.0862340168723408,1.0340050759491999,0.94535078806,1.15859694322,0.0030045514284326794,0.05453903110753209,948.9832551145696,948.96803787792,949.00910417389,8.819887305635528e-05,0.0410662959700403,0.009344350396137322,0.00016977606232419123,0.5151637257283821,0.52,0.48,0.6076195224453034,Stairs up
