avg_accX,min_accX,max_accX,var_accX,std_accX,avg_accY,min_accY,max_accY,var_accY,std_accY,avg_accZ,min_accZ,max_accZ,var_accZ,std_accZ,avg_magnitude,min_magnitude,max_magnitude,var_magnitude,std_magnitude,avg_pressure,min_pressure,max_pressure,var_pressure,range_pressure,std_pressure,slope_pressure,kurtosis_pressure,Pressure_below_avg,Pressure_above_avg,skew_pressure,Label
0.7268638610794792,0.71423339843,0.73559570312,2.3134743895287664e-05,0.004784742101692813,0.6904614766401043,0.67456054687,0.70129394531,4.423644818453087e-05,0.0066163170910466,-0.13437525431010416,-0.16333007812,-0.109375,0.00020832031016370156,0.014357935329734204,1.0116184180009375,1.00452415212,1.02346635006,2.610019483068163e-05,0.00508215680604164,974.1517167478161,974.14482139349,974.1564631351,6.238506225614338e-06,0.011641741609992096,0.0024846572773250214,-2.1175841132316565e-05,0.011164491725399017,0.56,0.44,-0.22755035141804214,Lift down
0.6955718994106249,0.67504882812,0.73168945312,0.0003374360893958082,0.01827350897149391,0.6621475219683334,0.63696289062,0.681640625,0.00016656276819523503,0.012838525591354639,-0.12064488728479167,-0.13842773437,-0.1044921875,8.320102403054477e-05,0.009073827565966485,0.9680666206758334,0.93683378866,1.00884711217,0.0004905336696580257,0.022032338594266867,974.155226301668,974.14704041844,974.1721124185,3.209489283706191e-05,0.025072000059935817,0.005635651784547715,0.00014998630689158377,0.7873589888544381,0.7,0.3,1.132952587495883,Lift down
0.7149225870724999,0.67504882812,0.76257324218,0.00048058000964715003,0.021807658468528716,0.6725311279270834,0.55883789062,0.75964355468,0.0021078879111908265,0.04567199081985868,-0.19235738118166665,-0.5400390625,-0.08850097656,0.014250038145951464,0.11875015894135807,1.0078823373348957,0.95195505379,1.0697179173,0.0012632434704503447,0.035356536655897455,974.2380327426869,974.1721124185,974.33336661272,0.002231829211453025,0.1612541942200778,0.046995542240731616,0.0016545399437615127,-1.1382685703672772,0.49,0.51,0.19608284527919792,Lift down
0.8023045316627658,0.66320800781,0.8837890625,0.004325346513720942,0.06541660484240137,0.5852414394904255,0.44311523437,0.81762695312,0.008748945955807944,0.09303693923738597,-0.36190990691138286,-0.53503417968,-0.27416992187,0.0039568785139110114,0.06256823524469395,1.0632985204076597,0.9129771285,1.19695727934,0.0034619589075283144,0.05852460642711086,974.4514107395821,974.33336661272,974.54258542324,0.002924325167250022,0.2092188105199284,0.05378861705830737,0.0018468230228877735,-0.287249034225062,0.41,0.59,-0.49385711229532686,Lift down
0.8271068816455318,0.75231933593,0.9375,0.0018084954681586655,0.042299599935077585,0.4704849567775531,0.40551757812,0.55187988281,0.0022059246008843156,0.046716777691704986,-0.3917496052160637,-0.46606445312,-0.27587890625,0.0044992998315254865,0.06671907478151018,1.0325918205227662,0.9646115429,1.118193327,0.0011188243957654493,0.03327043745694449,974.5608826727198,974.54258542324,974.58522416546,9.857317390500069e-05,0.04263874221999231,0.009875450527382397,0.0003091809891764793,0.04395760779315738,0.65,0.35,1.1070518853248585,Lift down
0.26619746767195407,-0.85534667968,1.29663085937,0.6289022735707405,0.7884627523260433,0.11496778466045979,-0.48095703125,0.75988769531,0.1278107712173139,0.3554457509845588,-0.3096067932797702,-0.69396972656,0.07238769531,0.06588276254334277,0.25519696199339964,0.9781995533354021,0.62984777545,1.3137779996,0.03662231283981074,0.19026656751835097,974.5370107188411,974.42987868463,974.69582421071,0.006195717948131229,0.2659455260800314,0.07825920264928678,-0.002226108636328545,-0.3428828364371874,0.71,0.29,0.9765578639881928,Stairs up
0.9537984913754022,0.55078125,1.22277832031,0.030434345042282544,0.17344891174154214,0.26830212822908056,0.12915039062,0.64562988281,0.01621888744034213,0.1266193644225676,-0.11993478358068967,-0.29077148437,-0.00378417968,0.007229208902337353,0.08453469433988671,1.008777164875402,0.58933435637,1.28724917982,0.03210267737138117,0.1781394989320339,974.5018119614344,974.47136038021,974.52730052135,0.0001915385403521622,0.05594014114001311,0.013759976305732552,-0.0003441353394999842,-0.6475822238663325,0.57,0.43,0.0858999874908088,Stairs up
0.9491233387172412,0.61047363281,1.22216796875,0.03134959569704811,0.17603765368983496,0.2582600911414943,0.06726074218,0.60046386718,0.01115944831398827,0.1050294187032273,-0.10747659617206896,-0.24267578125,0.02673339843,0.006013854907756509,0.07710207609851914,0.9949324300827587,0.63806712832,1.2785567494,0.03363361281681065,0.18233765262842097,974.4576494609938,974.40247444213,974.48847013891,0.0004518587841158084,0.08599569677994623,0.02113445066681508,-0.0006499966879637258,-0.10699012387200035,0.55,0.45,-0.46379456320419965,Stairs up
0.9326889935635294,0.68933105468,1.13842773437,0.020691996633482902,0.1429984663518156,0.3324893726982353,0.22644042968,0.45837402343,0.004887988846155652,0.06950167692239094,-0.10928308823164705,-0.23376464843,0.00842285156,0.004068907494311964,0.06341165503579671,1.001040612276706,0.74465926311,1.21472071058,0.019852063775636107,0.14006609184295118,974.380654017603,974.34089488025,974.44495948254,0.0006872517057027603,0.10406460229000913,0.026060821006215863,-0.000967662399007504,0.7468388683146818,0.59,0.41,0.9625328676316856,Stairs up
0.9760344749233721,0.7041015625,1.31335449218,0.032541925921464696,0.17934193997502593,0.3355712890588372,0.20080566406,0.57385253906,0.01116105423260069,0.1050298744749398,-0.15316559547302327,-0.30029296875,-0.025390625,0.006338387175134481,0.079149763099326,1.049090861400349,0.75403428843,1.43347530239,0.03802104660200165,0.19385288599594053,974.3076265641914,974.26390390248,974.3608220481,0.0007240356997063963,0.09691814561995216,0.026751012690034156,-0.0009446138190984218,-1.1073810782273639,0.6,0.4,0.34090986604975315,Stairs up
0.9384636374051761,0.52624511718,1.33178710937,0.06142348761482951,0.24637544185403848,0.28799115348929405,0.14733886718,0.65295410156,0.01676758072810772,0.1287257358591627,-0.14549057904035295,-0.35791015625,0.02282714843,0.007375292888958526,0.08537285714630687,1.00183540651,0.56686075325,1.4769500244,0.0664881416597664,0.25633167620970104,974.2203150319804,974.17338907948,974.3037171069,0.0009988817843974403,0.13032802741997784,0.03141862877327342,-0.0011094604810297705,0.5150762447286867,0.46,0.54,0.703505403339109,Stairs up
0.781324114114643,-0.39855957031,1.25366210937,0.17659652018261207,0.4177250060226567,0.4684288388171427,0.14111328125,0.90148925781,0.05160547802950263,0.22581215002869084,-0.10798281714821427,-0.35534667968,0.24633789062,0.02352104241449843,0.15245009020922887,1.0133262078924996,0.62731387256,1.44316983043,0.06421402396139204,0.2518919833880884,974.1484937320076,974.11178273181,974.18879853993,0.0003221123776529402,0.0770158081199952,0.01784033930423985,-0.0006177923540672258,-0.07386531448220923,0.55,0.45,0.20118117782059786,Stairs up
-0.7152797153992856,-0.97961425781,-0.39855957031,0.029294558061668842,0.17013469170877363,0.4741210937460712,0.14831542968,0.74890136718,0.029090126236116946,0.1695400106449699,-0.34564790271273815,-0.93640136718,0.15197753906,0.09409204355318945,0.3049129386850552,0.9969517079173807,0.81025643717,1.17602917918,0.012789431372376222,0.11241519575658263,974.1080248712649,974.07418944989,974.17008550539,0.0009371331361497072,0.09589605550002034,0.03042986673140029,-0.0010419109550812036,-0.5189247172979279,0.63,0.37,0.9394805862363137,Stairs up
-0.8334277925008334,-1.12194824218,-0.60791015625,0.022460540500895916,0.14897366584057897,0.5583728608594047,0.24035644531,0.78112792968,0.013855627672992296,0.11700717808965522,-0.10721987769750002,-0.50891113281,0.24047851562,0.06284788340304255,0.24919810255078406,1.0480496220716666,0.87253350647,1.30915769125,0.01766404227783804,0.13211266426896678,974.0953314644869,974.02578160235,974.18831912326,0.0012703913953953068,0.1625375209100639,0.035429757102007735,0.0010945710240952186,0.6213173598935064,0.65,0.35,0.7785120062796117,Stairs up
-0.815990034351807,-1.02709960937,-0.66027832031,0.015048059034724247,0.12192931197478,0.515133777292771,0.21020507812,0.73120117187,0.019326982329391753,0.138181500645361,-0.14516660391445782,-0.5400390625,0.06823730468,0.03439402244347199,0.1843356629382932,1.0059153719604823,0.83880468453,1.25302723648,0.008452510360405405,0.0913820162076962,974.0608767726338,974.00841846733,974.15396140083,0.002671958927616539,0.14554293349999625,0.05137865949380341,-0.001550980557961961,-1.0851193252174065,0.67,0.33,0.7862667869278244,Stairs up
0.21005764254883116,0.17321777343,0.24169921875,0.000653066265617625,0.025388676325178293,0.9819779829510389,0.94653320312,0.99780273437,0.00018017735495843039,0.013335568578415379,0.19209111200883117,0.13232421875,0.26916503906,0.0025235905285836556,0.049908081766533934,1.0239714912159736,0.99708427098,1.03978023263,0.000100901999470016,0.009979558301472232,974.0790346393761,974.06845589147,974.08817408215,3.0358723013560365e-05,0.019718190680009684,0.005473979711646192,-3.394632906851104e-05,-0.8432810035580762,0.49,0.51,-0.23447985888580625,Lift down
0.22229473407038464,0.20190429687,0.23596191406,9.343238709701142e-05,0.009603881297703709,0.9776439177646151,0.94152832031,0.99499511718,0.0002254966498820893,0.014919975442047258,0.14853766025320514,0.13061523437,0.17126464843,0.00013059909604078417,0.011354503452623805,1.0136763418278203,0.98341692364,1.03000713359,0.0001722627164470534,0.013040483889884899,974.0719470164416,974.06599662466,974.07955977618,1.6404512116736764e-05,0.013563151519974781,0.004024201518168528,-5.99922723003083e-05,-0.804772184466183,0.64,0.36,0.5850089780203506,Lift down
0.22465852018623375,0.2001953125,0.24157714843,0.00018539917300315324,0.013527431076726276,0.9176691228645452,0.90466308593,0.93725585937,7.156578547397746e-05,0.008404543990520909,0.2862485414940259,0.21020507812,0.30773925781,0.0006392484025971373,0.025118647959049886,0.9875943160741556,0.972228182,1.00138765406,6.923753518645345e-05,0.008266701060144743,974.1021018559512,974.07204730152,974.14488231703,0.000459493166286759,0.07283501551000882,0.021296143373126252,0.0009428572740520703,-1.0417911129327277,0.56,0.44,0.3639766597203198,Lift down
0.24192569129947375,0.22680664062,0.26025390625,9.024727502406889e-05,0.009437150569902726,0.9398000616744736,0.91198730468,0.96228027343,0.000248667817378346,0.015665116418745233,0.2503180252843421,0.22741699218,0.29870605468,0.0002872503117220632,0.016836588204184932,1.0023260165975,0.96866597303,1.03328211289,0.0003767498882575653,0.01928192554922239,974.2362912583998,974.15252698783,974.33018376076,0.003023990111184709,0.17765677292993587,0.05462783876025565,0.002478887806143645,-1.2474839711672105,0.53,0.47,0.13073623233913234,Lift down
0.24841147974539468,0.22998046875,0.26342773437,0.00012084026868047956,0.010920176974079224,0.9394499126193419,0.92919921875,0.95458984375,3.378708111017359e-05,0.0057742977281623415,0.2990995708219737,0.29187011718,0.31323242187,2.8857627989299426e-05,0.005336470964772625,1.0168059501801316,1.01023816796,1.02679244359,2.1974375841895597e-05,0.004656741276650457,974.4662134638174,974.33018376076,974.5737667393,0.0055675016791134286,0.2435829785400756,0.07412317504041811,0.0033602562687385824,-1.2649436523207958,0.49,0.51,-0.12504448967338574,Lift down
0.24711726261653844,0.20983886718,0.2685546875,0.0002369687706913916,0.015319602632554115,0.9488677978485577,0.93090820312,0.96923828125,0.0001039214757706581,0.010145059428673883,0.28974327673788464,0.25183105468,0.31567382812,0.00026792886545695915,0.01628964782817685,1.0226603113858657,0.99730773699,1.04078434849,0.0001383889536447991,0.011707189698171963,974.7102247431724,974.5737667393,974.81972077038,0.004997662075821681,0.24595403107991842,0.07035344790971466,0.0023312143499821755,-1.1827394273552454,0.56,0.44,0.05915051400382345,Lift down
0.23791249592687502,0.20739746093,0.271484375,0.00029055601021217814,0.016956691455168996,0.9518419901488541,0.90844726562,0.97692871093,0.00022304089279429027,0.014856565893941184,0.2821680704725,0.25964355468,0.30822753906,0.00022709902312110405,0.01499111097607265,1.0211181997776044,0.97885559176,1.05739417855,0.00027784658676019593,0.01658168723265048,974.9452664425089,974.82844556154,975.07535545152,0.005562655047536602,0.24690988997997465,0.07419373776893008,0.002668878681534471,-1.175157886039052,0.5,0.5,0.08106923212619345,Lift down
0.2735651827370115,0.19494628906,0.34155273437,0.0022443213809057007,0.04710121636883729,0.9343009159452872,0.88403320312,0.98205566406,0.0007595773831170673,0.027401580403299375,0.3004290701286207,0.17614746093,0.41589355468,0.004723042397020488,0.06832828516344146,1.0224584603509195,0.99163088617,1.05257427293,0.00023324044757497514,0.015184186606144082,975.2004904361813,975.07535545152,975.32620729215,0.0055589169427189755,0.2508518406300482,0.07412841119082635,0.0029327912262265983,-1.2875387711127027,0.49,0.51,-0.02403012784155532,Lift down
0.205473847439011,0.166015625,0.26672363281,0.0006998533476080311,0.02630898423505686,0.9963392320531869,0.96557617187,1.02893066406,0.00041446834620005043,0.020246326802387166,0.2375313895057143,0.1708984375,0.28588867187,0.0012849922217811553,0.03564928369736493,1.0455248338565934,0.99565904893,1.0842765002,0.0005897790157626468,0.024151561599145988,975.4631309886769,975.32620729215,975.58013040123,0.005803653626728029,0.2539231090800058,0.0757619773583524,0.002867807621298975,-1.1823420838291827,0.47,0.53,-0.18962431269085325,Lift down
0.2431102079470589,0.20556640625,0.26501464843,0.00017322247969056535,0.013096725548233646,0.9775929170450979,0.92810058593,1.01831054687,0.0008261494629118508,0.02860157265559884,0.2853261910193137,0.20739746093,0.30908203125,0.0007137671428262678,0.026585135428275248,1.0474873806446077,1.0059672844,1.08037071334,0.0006746653094064148,0.025846681481921825,975.6524829719368,975.58013040123,975.70391009564,0.0013006474481954222,0.12377969441001824,0.035887267973821566,0.0011937052064978856,-0.9323193837375015,0.5,0.5,-0.38971889380780006,Lift down
0.25889369419307695,0.22778320312,0.2890625,0.000331298699497764,0.018101327422273154,0.9364966088565935,0.91613769531,0.9619140625,8.514947434147263e-05,0.009176805862184603,0.310719919724945,0.28344726562,0.34338378906,0.0002615180498730606,0.016082419754165755,1.0203790626672529,0.99261511951,1.04276151419,9.686072505496944e-05,0.009787559526405793,975.7092617365581,975.70157751832,975.71649475988,1.6534013355751832e-05,0.01491724155994234,0.004043800304329211,7.436966818754931e-05,-0.5702943442619919,0.49,0.51,-0.03482858531869452,Lift down
0.9584770698012987,0.69604492187,1.1484375,0.014555789163678135,0.11986139053412165,0.32175990512974023,0.06262207031,0.65344238281,0.0207645080257169,0.1431601868199325,-0.10394524908363637,-0.20544433593,0.00012207031,0.0034282362814669854,0.05816969771588146,1.025726251908052,0.73097930242,1.23968951053,0.019395192214698292,0.13835933868561381,975.6755176768422,975.65034810311,975.71707870171,0.00031242146509012837,0.06673059859997466,0.017560297362675302,-0.0007015084297659098,-0.7931922663282558,0.48,0.52,0.3203145560990665,Stairs up
0.8814648920901978,0.52136230468,1.21606445312,0.041148883974916096,0.20184516165143804,0.44372800316792077,0.18444824218,0.66162109375,0.01795695661929162,0.13333853520117755,-0.19451481280673275,-0.33666992187,0.00158691406,0.008485710788841326,0.09166075414449712,1.0213944392287129,0.666696441,1.35994334233,0.035740503169761045,0.18811336157153646,975.6217859569899,975.59247337165,975.66624068717,0.0004747710898504935,0.07376731551994453,0.021681106659729978,-0.0005381774763968128,-0.993545681204191,0.55,0.45,0.44580110570552983,Stairs up
0.9721339904113402,0.63012695312,1.31433105468,0.03817068715362413,0.19436351230343357,0.37692795585999994,0.26147460937,0.54272460937,0.00729318364775487,0.0849587911135083,-0.14395991059484536,-0.28161621093,-0.08032226562,0.0032825415786404237,0.05699737663971105,1.0552610673053608,0.69830869344,1.42112574905,0.04295441598685914,0.2061833818620375,975.5456078138405,975.49315973371,975.59247337165,0.0009139903683180456,0.0993136379400994,0.03007603343530135,-0.0009439266322910472,-0.9770870452750811,0.59,0.41,-0.21367287360637788,Stairs up
0.9055245139342047,0.63354492187,1.15942382812,0.025744666778582437,0.1595371860946771,0.3896304043823864,0.23510742187,0.66821289062,0.014790280981798395,0.1209223288189788,-0.12015186656170455,-0.22387695312,-0.04174804687,0.00248226247609868,0.049538418908572315,0.9994141879347729,0.69524924386,1.29969980918,0.030266565897620966,0.17298158181952308,975.4549171506372,975.41155518369,975.49663361746,0.0006838923293963047,0.0850784337700361,0.026002323466435936,-0.0009636553358527261,-1.2591708032396418,0.43,0.57,-0.28388931604906403,Stairs up
0.9173944646613638,0.62536621093,1.24206542968,0.03364115616329597,0.18237014639957927,0.42585754394227276,0.25817871093,0.74389648437,0.015621252892981182,0.12427283957309795,-0.11446311256670455,-0.22131347656,-0.04223632812,0.0027908893650370513,0.05252784702575987,1.0220294295502272,0.68868394257,1.35690257066,0.043480784288048496,0.20733230444528755,975.3702020688241,975.33664585136,975.427508203,0.0007576684603955144,0.09086235163999845,0.027368934789782806,-0.0009828218806456719,-0.6661241020803197,0.51,0.49,0.5183975485023699,Stairs up
0.90909282977375,0.57775878906,1.220703125,0.036970077982582845,0.1913494093628709,0.3700620211048077,0.23303222656,0.59350585937,0.012608788800494456,0.1117477089100423,-0.15265714204807693,-0.22424316406,-0.07067871093,0.0017057430872737956,0.04110160229765531,0.99811814652875,0.6662472297,1.3502564542,0.041652030109038674,0.20310472623631556,975.2983547853936,975.24794636631,975.32941356204,0.0005678452076946966,0.08146719573005612,0.023714661237738757,-0.0007253842940095807,-0.6263661290957718,0.51,0.49,-0.6127870041136033,Stairs up
0.9365698772886953,0.55737304687,1.27954101562,0.04169283065223074,0.203075472941364,0.3857873004368477,0.15051269531,0.66931152343,0.017749493828412205,0.13250118696701776,-0.10868371051032612,-0.26965332031,0.02893066406,0.006021976561666256,0.07717849632307967,1.0264311600424998,0.64222792384,1.43412731853,0.049537381197273765,0.22135702248099387,975.2206602799707,975.16768487333,975.26283268217,0.0007222858911856732,0.09514780884001084,0.026728916131894105,-0.000814607018823731,-0.890639358397403,0.41,0.59,-0.2748185292406865,Stairs up
0.8480106951207229,0.58312988281,1.2353515625,0.03477842546586073,0.18536290969763408,0.4485083890210843,0.3212890625,0.71459960937,0.012636235626790279,0.1117317852003532,-0.11453136765421688,-0.24523925781,-0.01049804687,0.004127607691094485,0.06385826084343958,0.9714650089824096,0.6687833381,1.31022979038,0.04107119584042452,0.20143575192998914,975.1481395175725,975.10336408612,975.19628123088,0.0005797051178419595,0.09291714476000834,0.023931584127086437,-0.0008355221805458868,-0.6120640183583124,0.59,0.41,0.3853636693226423,Stairs up
0.9182801857942307,0.64477539062,1.22290039062,0.028958338672148972,0.16907713600585367,0.4408287635173076,0.21057128906,0.73071289062,0.019599180590291386,0.1390967614441904,-0.16104986728371795,-0.26672363281,-0.04736328125,0.004408653484413539,0.06597069262858635,1.0402429263992308,0.74900367243,1.34523512034,0.034124829256925115,0.18354108925779777,975.0995218280787,975.06423830896,975.12879369385,0.0002157960243273676,0.06455538489001356,0.014595527007643914,-0.00024164590622915763,0.07771796526725883,0.55,0.45,0.15538703188895608,Stairs up
0.8545782627160258,0.59753417968,1.142578125,0.028450607908582736,0.16758835438400654,0.5230869390991023,0.29809570312,0.8603515625,0.02979402432165491,0.17149941589073842,-0.18986472105038463,-0.41394042968,-0.05126953125,0.007374895125423043,0.08532493883922578,1.0265347311560258,0.70221350186,1.4295772291,0.05163930472487048,0.22578144821176718,975.0909229544292,975.0720783185,975.17692112153,0.0004693739824360673,0.10484280303001015,0.02152571409446457,0.0003396152960873346,7.111744277312379,0.68,0.32,2.497671868180221,Stairs up
0.9462738037078846,0.64196777343,1.21545410156,0.033463766472814994,0.18204944242567586,0.34913165752288466,-0.06604003906,0.80822753906,0.04504461256876405,0.2112143254944238,-0.17311683067576927,-0.29150390625,-0.05639648437,0.0034420714338387567,0.05838642473322689,1.0441218369716347,0.71566439774,1.4295772291,0.03864005687652291,0.19562340828258465,975.0807388207462,975.04398408597,975.14191225913,0.0006056791107941234,0.09792817315997127,0.024491943026030697,-0.00012202495619491078,1.1928211095555223,0.62,0.38,1.300920426004012,Stairs up
0.9595769246379167,0.70300292968,1.34008789062,0.03212689003815731,0.17830377150692345,0.28112157185427084,0.12426757812,0.49035644531,0.010864730373794616,0.10368971067115382,-0.12173334757125,-0.22326660156,-0.00610351562,0.00443207048878319,0.06622615108745461,1.015111299019375,0.75721884608,1.35220357541,0.031442491040319646,0.17639434540818758,975.0609426937987,975.03306966058,975.08663680056,0.00021172919909386782,0.053567139979918466,0.014474933043137253,-0.0003569015009614857,-0.910981608474418,0.5,0.5,-0.08866078660785573,Stairs up
0.9550128315733721,0.51550292968,1.28894042968,0.05236154538703987,0.2274921761470508,0.3233656772302326,0.11572265625,0.60620117187,0.014493177040103727,0.11968563709018687,-0.13967398709686044,-0.43347167968,0.02526855468,0.01207592421274291,0.10924974365800097,1.0308115987517439,0.58851500397,1.43169011112,0.05217062381363655,0.22707705443970527,975.0019594081186,974.96294564865,975.04505688468,0.0005747931576368148,0.0821112360299594,0.023835048065169593,-0.000889252665486833,-0.837165051978821,0.58,0.42,0.10313882244170387,Stairs up
0.9488619290821976,0.61572265625,1.25280761718,0.037605391684666645,0.19285265261903395,0.33450753347890116,0.17016601562,0.61474609375,0.017438708505866523,0.13132811712067374,-0.10680615770648351,-0.34558105468,0.01672363281,0.009381874042101059,0.09632640616754522,1.0221450488381318,0.66070984872,1.38190298827,0.043052404718406545,0.20634752571778667,974.9273175406261,974.90126461471,974.99319910891,0.0006794301909954499,0.09193449419990429,0.025922266975716746,-0.0008206728485174406,0.03598946312691975,0.67,0.33,1.1303053140595265,Stairs up
0.8840834673674509,0.79541015625,1.09606933593,0.0070715928291932946,0.08367952848654571,0.4168820848609803,0.14624023437,0.61157226562,0.01331505164941148,0.11482382996294117,-0.11296889360892161,-0.23950195312,0.0400390625,0.004746784837219694,0.06855835274401248,0.9922548465588236,0.87226648463,1.22773491048,0.008557460172169464,0.092051960890656,974.8699847416623,974.83483272543,974.89381376956,0.00023724010475451702,0.05898104412995053,0.015326911671128362,-0.000429239382964387,-0.692070234418082,0.34,0.66,-0.6516727712693736,Stairs up
0.9618939410163736,0.77807617187,1.18969726562,0.015744518658596253,0.12478582439540258,0.2958112444162637,0.03955078125,0.54333496093,0.017356703773084504,0.13101897101026658,-0.08102651742505494,-0.24548339843,0.10375976562,0.007636202400133804,0.0869039014546782,1.0193556269194504,0.79993461885,1.24767709307,0.020741336074627033,0.1432250303004897,974.813054360611,974.77434876172,974.85885308534,0.0005165033690383026,0.08450432361996718,0.02260149348693753,-0.0007956028203911507,-1.0200344692140275,0.51,0.49,0.04339253593991589,Stairs up
0.9720994902784146,0.72119140625,1.26586914062,0.021021143557600014,0.14409992417888703,0.21300078601121952,-0.10595703125,0.59814453125,0.03244826072877847,0.17903226031105693,-0.10908471083951218,-0.29248046875,0.06945800781,0.008728088655538214,0.09285283275152606,1.020868185782561,0.77366611685,1.2756161337,0.021778959229587655,0.14667434051602957,974.7392962695569,974.71024244435,974.79579515961,0.0005068311158069846,0.08555271525995067,0.02237521505016311,-0.000701164572698116,-0.1392759836444366,0.59,0.41,0.6619420536700285,Stairs up
0.95640055338141,0.6337890625,1.18688964843,0.023442566942961904,0.1521250183662238,0.247885679585641,-0.02221679687,0.52294921875,0.01764469274180972,0.13197908445014817,-0.12403439252487179,-0.26550292968,0.01037597656,0.005195974601387362,0.07161954720881177,1.0070231116373078,0.67155311325,1.24986949477,0.023428537157406136,0.15207949005836965,974.6773575416761,974.61138985593,974.73162335924,0.0009950252172399995,0.12023350330991889,0.03134116276856429,-0.0010100535315546878,0.1367272330531133,0.47,0.53,-0.45338840262709246,Stairs up
0.9759246227753923,0.68530273437,1.31689453125,0.029408234448886843,0.17064559304265126,0.2558593749961765,0.09057617187,0.453125,0.009130961824142775,0.09508650056960109,-0.09416767194784316,-0.33508300781,0.08935546875,0.009794301749256298,0.0984798415062043,1.0215399104481375,0.72946527474,1.34770155015,0.031383977161303894,0.1762846876807594,974.6338272846568,974.57581565946,974.700653899,0.0008622724835154679,0.12483823954005402,0.029220178502471484,-0.0009128930898778218,-0.23471506587197277,0.55,0.45,-0.07930868432709706,Stairs up
0.883610361626495,0.58801269531,1.21240234375,0.04009276040572219,0.19919697030542174,0.36258532336969074,0.20922851562,0.67529296875,0.01648020594239154,0.12771181195197887,-0.14914097736474227,-0.29809570312,-0.04138183593,0.005002762741582748,0.07036467770094726,0.9747204364861856,0.67414018343,1.35947387708,0.04581170307948922,0.2129305461429421,974.575069208834,974.54020725305,974.62575893261,0.00041931206060238967,0.08555167956001242,0.0203712850810623,-0.0005579467728029554,-0.1411734690713855,0.59,0.41,0.42037798774908497,Stairs up
0.9106431281379308,0.61657714843,1.25244140625,0.03692458587133556,0.19105016447016954,0.3194692326658621,-0.15893554687,0.66723632812,0.04464589843563265,0.21007790742780658,-0.20085056348425281,-0.37060546875,-0.05517578125,0.00686123208778202,0.08235512947680215,1.009572869225977,0.72001357547,1.34010404165,0.040313703812365334,0.19962546908267012,974.53350192675,974.5074490764,974.58653440708,0.0003434448877240188,0.07908533067995904,0.018425451021247388,-0.0003167944374186465,1.0925415272846957,0.64,0.36,1.0256945838462812,Stairs up
0.36941324869722225,-0.93041992187,1.24328613281,0.5728281116991422,0.7526375986505623,0.5340562608468887,0.18957519531,0.99353027343,0.042591522414321174,0.2052273940690771,0.019665527344777778,-0.22521972656,0.73791503906,0.044108018127384394,0.20884905802296577,1.0041886852863335,0.4322993228,1.55266099192,0.06661377565312737,0.25665857201799214,974.5329793799219,974.50879742488,974.54944794372,0.0001574337635730232,0.040650518840038785,0.01247735947760274,0.00027312163462446754,-0.8670300730370393,0.44,0.56,-0.4784643978298328,Stairs up
-0.8098023669515841,-1.048828125,-0.57202148437,0.018155522794908563,0.1340737302512085,0.5798545308596039,0.18957519531,0.96044921875,0.038295750340627877,0.19472181309671283,0.2321620223512871,0.03186035156,0.39343261718,0.008554058570697945,0.09202915256310423,1.0440558600780196,0.82707069869,1.26605269775,0.0185811696247686,0.13563626966370665,974.5066304804359,974.49391186137,974.54092529024,7.821961325644322e-05,0.047013428870059215,0.00880029327011565,-0.0001518326802676255,6.586624483587009,0.68,0.32,2.2381033011506775,Stairs up
-0.46979925605359546,-0.9580078125,0.06701660156,0.0546282569518111,0.23241010372163923,0.7265282105826966,0.39904785156,1.21569824218,0.04088992862154311,0.2010733478641589,0.2142443710486517,-0.55346679687,0.81494140625,0.21103079299727423,0.4567927982047078,1.033516705828989,0.77395831981,1.30622908607,0.029737184758619507,0.17147320224214146,974.5031017853086,974.47629926187,974.57134337996,0.00041945949327341323,0.09504411808995883,0.020365325071284898,0.00019924659031530492,2.465929827625989,0.64,0.36,1.3496879333674154,Stairs up
0.7169581283725925,0.06701660156,1.08349609375,0.11264932596183627,0.3335544836193247,0.60574303144,0.25524902343,1.1318359375,0.059679694671864236,0.24278160621820305,-0.11598789544469137,-0.40368652343,0.12426757812,0.020119598056417304,0.14096527216642885,1.0319169238341976,0.63019862574,1.24121748039,0.019872278764175307,0.14009618834682458,974.4569231538053,974.43732238281,974.49777509407,0.000291598920057955,0.060452711260040815,0.016970531323166428,-0.00028236842401630803,1.311385912213784,0.75,0.25,1.5232146023884325,Stairs up
0.9531426680676315,0.69897460937,1.35876464843,0.023630895894065234,0.15270875237966502,0.33817813270565794,0.07958984375,0.62243652343,0.02291980652153057,0.15039358403845385,-0.03479967619065789,-0.22644042968,0.21203613281,0.011153405809940144,0.1049125848996948,1.0300874718918422,0.80584933838,1.37293597298,0.020186670577470204,0.14114197281788485,974.4364002192189,974.4161914218,974.49044601621,0.00027208477864297737,0.07425459440992199,0.01638611350400381,-0.0006118489182350803,2.3650093469316813,0.57,0.43,1.449257455873479,Stairs up
0.9888700597384705,0.73718261718,1.36535644531,0.03484621366443673,0.18557008974929393,0.2761058134157648,0.05786132812,0.50927734375,0.012802308923318564,0.11247974717352764,0.05262235753494119,-0.05065917968,0.25134277343,0.005313086797262177,0.07246088526760472,1.0375250306031767,0.75945367758,1.40605888657,0.03313772585851126,0.1809637263657439,974.3842527005336,974.34476323876,974.42730586319,0.0005371164169453212,0.08254262442994786,0.023039040784619835,-0.0008131492182503155,-1.0801444249863754,0.51,0.49,-0.0887570130944552,Stairs up
0.9553564453087999,0.6962890625,1.26696777343,0.02424365434956475,0.1549232642506254,0.2753344726537,0.03137207031,0.5283203125,0.013733084280025485,0.11660082948772375,0.07385131835759999,-0.0458984375,0.201171875,0.003717035504983866,0.06066189207347581,1.0042411725322,0.71684094535,1.28961990904,0.02404971547659628,0.15430236006565265,974.326201910584,974.29217117197,974.35558707738,0.0003688737728108676,0.06341590541001096,0.01910981515040789,-0.00047783445114265785,-1.232596099336577,0.56,0.44,-0.07475608542494862,Stairs up
0.9374533663937078,0.69543457031,1.18054199218,0.023964031347248546,0.15393106433746886,0.30692591291865173,-0.033203125,0.54833984375,0.028909037039689313,0.169068673617539,0.013999681793146068,-0.08044433593,0.17028808593,0.003444111006577512,0.05835591769562975,1.001664378461573,0.73231315314,1.22178559183,0.02586177806782669,0.1599099630785515,974.2804885925758,974.24119774088,974.3262799985,0.00035078983827470996,0.08508225762000166,0.01862386585587672,-0.0004990320804415329,0.4971573097453845,0.57,0.43,0.7926849129965133,Stairs up
0.9465629763682928,0.70129394531,1.17590332031,0.023685101580079547,0.15295835667881455,0.2934555425830488,0.05078125,0.57116699218,0.020456854757701114,0.14215266764712003,0.018295660251341463,-0.07006835937,0.17321777343,0.005219956382273381,0.07180736993938373,1.0019994147312197,0.73948150032,1.28383425283,0.02752513835994903,0.16489228587452254,974.194123757223,974.13110162468,974.24791990313,0.0013638112768834657,0.11681827844995496,0.036703943004034636,-0.0011725466886581316,-1.3717133675350912,0.56,0.44,-0.07743649248143071,Stairs up
0.9240917968714001,0.52709960937,1.21325683593,0.04468961879452579,0.2103395412341211,0.4116320800752999,0.134765625,0.68615722656,0.025956106334965572,0.16030142005489506,0.0276513671864,-0.23059082031,0.19738769531,0.008422530503865794,0.09131432088575776,1.0251198473454999,0.57198772257,1.35660249967,0.052078876921361095,0.22706406178025507,974.1188945080413,974.06356007153,974.18892684489,0.001144814265628492,0.12536677336004232,0.033665503456389995,-0.00024833692843922604,-0.45540664291029964,0.59,0.41,0.6894311183382328,Stairs up
0.9434567715221275,0.67993164062,1.54943847656,0.051786540201652215,0.22635286514910544,0.3603450693948936,0.11767578125,0.66369628906,0.023302394333250053,0.15183707228866802,-0.010666867520531914,-0.30651855468,0.11779785156,0.011983235390068408,0.10888413182146647,1.0252193892480856,0.73797932258,1.67541418968,0.055737052351203666,0.2348278198718485,974.0870368416558,974.01419415021,974.31616411091,0.003736169768677092,0.3019699607000348,0.06079821775164361,-0.0005488946405671773,6.070076521640724,0.52,0.48,2.24534759808135,Stairs up
0.9087143841872941,0.67150878906,1.2294921875,0.025981608421494336,0.1602371443831454,0.39949592141129403,0.11376953125,0.712890625,0.024206214855319406,0.15466556131544454,0.036524873618,-0.08813476562,0.12780761718,0.002882548774098613,0.053372618781354596,1.0013141004311767,0.71307498168,1.38458106528,0.036943607332226895,0.191073223288168,974.0749800395124,974.04926679426,974.11686078614,0.00026642684505564276,0.0675939918800168,0.016226287671072516,-0.00023603018443189242,-0.06374465527218431,0.44,0.56,0.15464941675246072,Stairs up
1.022697151478052,0.68798828125,1.43383789062,0.033795536088707244,0.1826379835155331,0.27468515370987007,-0.01843261718,0.69604492187,0.026887632758548285,0.16290623905401225,0.09929230925064933,-0.11279296875,0.3955078125,0.010509728310781931,0.10184909588562792,1.0804536907049351,0.77016844727,1.51433630358,0.03455729230945668,0.18468485673015467,974.0718075384368,974.04463414991,974.09366815418,0.0001764430618775001,0.049034004269969955,0.013196650845628549,-0.0003705626668348268,-0.26772004105738745,0.35,0.65,-0.5709099238875092,Stairs up
0.9433369252829885,0.62133789062,1.3076171875,0.03633883787072544,0.18952875792108148,0.32133255881505746,0.07055664062,0.65051269531,0.022548882412784545,0.1492973538155173,0.05573562095747127,-0.10681152343,0.16064453125,0.004325674561084378,0.06539078041918857,1.0094778664755173,0.65254043994,1.37762489976,0.04014834381304138,0.19921563341464826,974.0399515311962,973.99043210788,974.06107676697,0.0003696478637084666,0.07064465909002138,0.019115413615426402,-0.0004994815933159792,1.619819708760076,0.37,0.63,-1.4910414525732836,Stairs up
0.969210205075,0.58850097656,1.3076171875,0.046133344780211104,0.21371011050581812,0.2586145019494,0.07543945312,0.60375976562,0.021827263138308444,0.14699996771062693,-0.0086511230461,-0.22668457031,0.22265625,0.009446764128783064,0.09670727215414171,1.0155094953633,0.60107949918,1.39839155771,0.052220694264018534,0.22737301361722403,973.9784089561766,973.94631321189,974.07617567335,0.0012007673918893384,0.12986246145999303,0.034478394944812106,-0.0008726450274893118,2.3983687066844332,0.59,0.41,1.6994052041626784,Stairs up
0.9690343683380682,0.61108398437,1.32727050781,0.040256874904496164,0.19949789577072002,0.25820784134999997,0.00610351562,0.51220703125,0.019992309395687267,0.14058849192464284,0.027561534535454544,-0.14562988281,0.27600097656,0.01032727012934392,0.10104412297093292,1.0125208006906818,0.61948592127,1.35448436005,0.04664507463889335,0.21474407319537897,973.9281881985432,973.86836908129,974.01791895852,0.0013423104984704886,0.14954987723001523,0.03642879314606481,-0.0009937004370728028,0.6111603392857616,0.51,0.49,0.7911990058544583,Stairs up
0.9541611089898782,0.69653320312,1.29479980468,0.02306427567229113,0.1509403988922482,0.3235562952504878,0.13317871093,0.55822753906,0.011162669581485554,0.1050073305281025,-0.02539657964975609,-0.18505859375,0.09790039062,0.006486094255882176,0.080043710217884,1.016797374602561,0.77210527375,1.33449226976,0.022369521435182185,0.14864966328010878,973.8345559758274,973.79459922621,973.89544740351,0.0005216569242784936,0.1008481773000085,0.022700115736934454,-0.000651231863738873,0.9537789198661395,0.52,0.48,0.6056851238894765,Stairs up
0.8958703613246999,0.52563476562,1.2177734375,0.04245039623667547,0.2050021762672502,0.3031555175739,0.17443847656,0.54760742187,0.007453119024830796,0.08589870682718388,-0.0066931152335,-0.11047363281,0.11804199218,0.005310581505177506,0.07250845254262243,0.9544676477710002,0.56509301105,1.23658880465,0.038570944528886326,0.19541042726425184,973.7626106487686,973.71415532858,973.82355852981,0.0003736918568732642,0.10940320123006586,0.019234212703007406,-0.0004969913505310171,0.783315382582908,0.43,0.57,0.18581819909884212,Stairs up
0.9348144531218084,0.55236816406,1.19030761718,0.02948684878216231,0.1708015190257423,0.3444798246302127,0.16040039062,0.61047363281,0.014160646539599808,0.11836385159180407,-0.053200579702978715,-0.21691894531,0.19750976562,0.012835898694582787,0.11269137757970052,1.010118652347234,0.57728585351,1.33796672743,0.03124997458622527,0.17583380803495652,973.6974901373301,973.67740765361,973.73051419105,0.00019284016833785513,0.05310653744004412,0.013812627454084351,-0.00039278070636012416,-0.8368980455659858,0.61,0.39,0.26252449820636886,Stairs up
0.9210786365295237,0.55236816406,1.31726074218,0.04936771883869623,0.22086196571646355,0.3560500371988095,0.16040039062,0.56945800781,0.012148667394281476,0.10956295177427637,0.015622093564166667,-0.11657714843,0.13647460937,0.003846274433075809,0.06164807743741624,0.9925806779047617,0.57728585351,1.38209436379,0.05542954055061975,0.23402919704146805,973.6548329702289,973.56757942247,973.71394904436,0.001292533113298922,0.1463696218900168,0.03573717692167468,-0.0008504205954445275,0.6224793514669384,0.49,0.51,-0.8641402916050676,Stairs up
0.9283796037916883,0.66003417968,1.16003417968,0.027050840955766715,0.16339991227954975,0.3256455458555845,0.07275390625,0.61840820312,0.018803759334668227,0.13623345649283156,0.04835094104987013,-0.12390136718,0.21398925781,0.007890644505042663,0.08825060114458014,0.9955274403153244,0.69569070581,1.29792062132,0.03266815571953941,0.1795658485262384,973.6107861341135,973.58233505994,973.68160876401,0.0006015589382225536,0.0992737040700149,0.024366913724955065,-0.00011455068198989738,2.8642149542948534,0.77,0.23,1.8411094665503291,Stairs up
-0.21471858929835444,-0.98083496093,1.02490234375,0.3527830269725255,0.590184224658847,0.49635179736544294,0.01770019531,1.37927246093,0.13608805758301792,0.3665588955989563,-0.42599294155227846,-1.03369140625,0.66723632812,0.2442869756864431,0.4911158065954307,1.0633169127169622,0.56365350493,1.74027053076,0.06803509087011521,0.25917925686330495,973.6938216100872,973.41131114328,974.34114245963,0.08290851172181617,0.9298313163499188,0.28611018312862346,-0.006306232873314753,-0.13802791050655872,0.7,0.3,1.059497581634499,Stairs up
-0.6619327878461164,-0.96057128906,-0.4228515625,0.024963708405183097,0.15723022070887613,0.6772295016653398,0.07702636718,1.12878417968,0.06783272239801015,0.2591797682645023,-0.20756101144844655,-0.68823242187,-0.01574707031,0.032790505288048374,0.18020030762397732,1.0242177267813593,0.77428676718,1.28992241007,0.015371316704261439,0.12337779629963426,973.5485001448588,973.40465742678,973.62014714756,0.0036446276192227635,0.2154897207800559,0.0600769746663025,0.0006621686334615936,0.5308575461441074,0.49,0.51,-1.001649768442785,Stairs up
-0.4111182171316303,-0.68395996093,-0.21655273437,0.012994828080843169,0.11337362986836778,0.8331285559584781,0.41040039062,1.15698242187,0.04527420771457178,0.21161780823255996,0.31819882599934785,-0.23449707031,0.88586425781,0.09840129657340557,0.31198031550536176,1.033290945057174,0.54021976476,1.33766077113,0.05221666132057264,0.2272643590951169,973.5983008517393,973.28962550957,973.80837371657,0.02031291177550897,0.5187482070000442,0.14174667282236278,0.0007648456947115275,-0.770668514819195,0.57,0.43,-0.2835219926409348,Stairs up
-0.5295939617798795,-0.74560546875,-0.13684082031,0.015326989566903848,0.12305416304213926,0.5775028826209637,0.02014160156,0.96044921875,0.05276055038564201,0.2283087407522701,0.6508818476998796,0.12976074218,1.05224609375,0.05809370263947177,0.2395699866662879,1.05556345076253,0.57886887711,1.35936895456,0.048659571423473956,0.21925626907070547,973.5073242709125,973.24040326608,974.06550120236,0.06677576335434984,0.8250979362800308,0.25684866377892707,0.0004004394171898498,0.19714826415542408,0.69,0.31,1.2563616691460464,Stairs up
0.3500805926570968,-0.45581054687,1.009765625,0.20886631328803884,0.45455521001481036,0.6217461042468816,0.09851074218,0.99072265625,0.04518263511552119,0.2114161780217701,0.22858912970376347,-0.51770019531,1.13098144531,0.31464256771546717,0.5579061877226061,1.030498099198172,0.40688236244,1.3539713468,0.0627020666191241,0.24905391153127066,973.3750229355298,973.29239821374,973.4769565965,0.002733803641924187,0.18455838276008762,0.052003922004392904,0.0013136404173292207,-0.6859779412533178,0.4,0.6,0.025703567612482967,Stairs up
0.962275290972653,0.75854492187,1.23095703125,0.01925617607548009,0.13805681614057724,0.33114063496091833,0.13684082031,0.63732910156,0.013697845484131539,0.11643913238520799,0.0678349709,-0.2578125,0.29467773437,0.016236598100705064,0.12677112655588768,1.0340130276031634,0.8222303768,1.31728203163,0.019416676436878024,0.1386309744807462,973.3672764350965,973.35514001961,973.38385832428,8.153860072203131e-05,0.028718304670064754,0.008983683775826673,-8.469628346428937e-05,-0.9206006597293177,0.67,0.33,0.4268541313936241,Stairs up
0.9342939004088505,0.70678710937,1.1826171875,0.012307211569692415,0.1102984558719746,0.2469328080063219,0.05285644531,0.48229980468,0.013198790094543373,0.11422381478295851,0.16407372485287358,0.02453613281,0.32751464843,0.005373257063145225,0.07288000746231284,0.9884056472609195,0.74782474297,1.24901543227,0.0145468981051601,0.1199153550627001,973.3493019671885,973.29904329122,973.38040145612,0.0005178983182140704,0.08135816490005254,0.022626211878741982,-0.0007186894099000414,-0.5892277658477165,0.4,0.6,-0.6748620777841219,Stairs up
0.9594867412821793,0.57275390625,1.20202636718,0.03103886989069645,0.1750455245395567,0.22208658853846158,0.02673339843,0.63000488281,0.023129819920558504,0.15110686208022067,0.13394243288974358,0.03735351562,0.33178710937,0.006186151440962536,0.07814628466602902,1.00623718396,0.60286089495,1.32399602721,0.0353994649794884,0.18693749138383017,973.2895595130843,973.27072527308,973.31740065994,0.00020365149296534878,0.046675386859988066,0.014178877825444084,-0.00031155858933830366,-1.165317093573003,0.6,0.4,0.2903336752722859,Stairs up
0.9497937654152632,0.6083984375,1.26733398437,0.03683963013301856,0.19066960470296282,0.23956620065407894,0.00952148437,0.46411132812,0.010634169766838663,0.1024414295118576,0.1351045307331579,-0.00463867187,0.27453613281,0.004546445051186287,0.06698226187414054,0.9973918390434211,0.67601586828,1.30136414947,0.03475599876876899,0.18519903616243716,973.228791141439,973.20315216208,973.25029354504,0.00022553237466834002,0.047141382960035116,0.014918607288306237,-0.000544222911429671,-1.1235007427271897,0.47,0.53,-0.31408775192964705,Stairs up
0.9191350653597028,0.56652832031,1.31701660156,0.04838044508551611,0.2188639549531597,0.32734060759247524,-0.05151367187,0.5576171875,0.02251751910022918,0.14931367441250498,0.06250362584752474,-0.03479003906,0.19213867187,0.002551586763531512,0.05026254597858153,0.9877674543206935,0.64666811127,1.41085761531,0.05343468514039845,0.23001223630902695,973.174817393575,973.13189191978,973.2587002734,0.0010003722609459509,0.12680835362004927,0.03147169498287312,-0.0005240218395553807,-0.2334414863106069,0.5,0.5,0.5102193363311688,Stairs up
0.9432963709635483,0.71020507812,1.22961425781,0.024082736027413683,0.15434954446509155,0.35105584256956995,0.08142089843,0.63977050781,0.018857441825189926,0.13658211315366744,0.03430044522881721,-0.08276367187,0.14477539062,0.0046689806726833635,0.06796158164307761,1.0175719610739786,0.74956800019,1.32780197366,0.026150492836930533,0.16083937559537395,973.1482897691883,973.12868537462,973.17211020592,0.00013242518880128305,0.04342483130005803,0.011445578274599275,-0.0002004566244379704,-0.611514621849889,0.45,0.55,0.08409206007507275,Stairs up
0.9631089154374117,0.69763183593,1.28601074218,0.032341085762563546,0.17877528464709835,0.31167710247776476,0.01318359375,0.61975097656,0.02273056342202896,0.14987709974785546,-0.011213235294,-0.1552734375,0.10339355468,0.003996141663603621,0.06284208965547779,1.0218618056410587,0.72484180804,1.37138090903,0.03948296717916243,0.1975309132336936,973.150542655994,973.11518281611,973.22957548464,0.0009561826637608217,0.11439266853005847,0.030739769939800637,-0.00040449152238810645,1.046416751847481,0.75,0.25,1.4005869375986626,Stairs up
0.9533913352243182,0.6884765625,1.18273925781,0.021589899044350734,0.14609777302369503,0.4091644287073864,0.15197753906,0.96166992187,0.03077864571988051,0.17443878118742573,-0.03008617054125,-0.11657714843,0.10534667968,0.0030758373861592913,0.05514421718176167,1.0480914991417045,0.74520714493,1.50404824911,0.03398042847042434,0.1832874442994006,973.1288031878556,973.11059908056,973.14711935808,0.00012562668805326388,0.03652027752002596,0.011144465534634607,0.00010261784356431393,-1.1971907932517374,0.55,0.45,0.22129776707522142,Stairs up
0.9359069207662626,0.48901367187,1.18200683593,0.034769091488707944,0.18552058792591608,0.3361483487176767,0.06616210937,0.67724609375,0.029356863674637954,0.1704709057233124,0.0004685527135353534,-0.330078125,0.12280273437,0.01188639861737846,0.10847273383150112,1.013132467248687,0.49955510671,1.30125678022,0.038109799731406935,0.19422886566978795,973.1110606432917,973.05388758256,973.16246374064,0.0005647100420884777,0.10857615807992715,0.023643305611720206,-0.0005537051222462039,0.8734849048820212,0.53,0.47,-0.46006466900047677,Stairs up
0.9767476628301124,0.65478515625,1.20422363281,0.03092395111630938,0.17486134790572508,0.26578135972213485,0.08435058593,0.51098632812,0.01678214052493824,0.12881605935695106,0.06252605995247192,-0.06188964843,0.2392578125,0.005040710443516127,0.07059796914587249,1.0233331981560674,0.68123079894,1.29642840244,0.033909549304114946,0.18310800947025394,973.0604053866548,973.04178051528,973.10266249468,0.0002523808954597129,0.060881979399937336,0.015796998292754518,-0.00042196131616359085,1.8994921692721736,0.66,0.34,1.481581942857989,Stairs up
0.9423255449419753,0.61975097656,1.29223632812,0.034532841699673675,0.18467947996641468,0.3333966290467901,0.13903808593,0.59497070312,0.01562863406224781,0.12424044415050152,0.03137056327061728,-0.06555175781,0.17626953125,0.0038657350440489736,0.06179004709537264,1.0082521782471605,0.63530820692,1.34517875941,0.03736389304366046,0.19210052163773997,972.9843239623794,972.95850664696,973.02178322746,0.00034270031892931225,0.06327658049997353,0.018397539259215685,-0.0005727759392899724,-0.28388758529096414,0.58,0.42,0.624445738784146,Stairs up
0.9314494885857892,0.59680175781,1.41259765625,0.04338539017657349,0.2069167218460444,0.31745990953513153,0.16516113281,0.58666992187,0.008338313039904763,0.09071162215859034,0.06651225842539472,-0.04724121093,0.24523925781,0.0037321119873501307,0.06068776854255288,0.9913490671546052,0.64941160732,1.47707784328,0.04535273141190914,0.21155610354221163,972.9155328224913,972.88176346829,972.95850664696,0.000516694547322015,0.07674317866997171,0.022580875422738855,-0.0008115350573077172,-0.7950476043254091,0.58,0.42,0.38314969536208227,Stairs up
0.7884590063155056,0.34631347656,1.22277832031,0.058350227894739294,0.24019701779288635,0.42410518345853937,0.04992675781,0.79504394531,0.03456330257513168,0.18486468256755903,-0.2610699942929214,-0.90686035156,0.15893554687,0.13560014136504892,0.3661646409350029,1.0332098112395505,0.76654547224,1.3486545293,0.028433418255932617,0.1676721254303034,972.9235754101318,972.82563189899,973.1873812777,0.012810895719171954,0.36174937870998747,0.11254755915008523,0.0031974860961716607,0.08806134794704423,0.65,0.35,1.1082423686677851,Stairs up
0.5923125597853062,0.28784179687,1.16235351562,0.05391022947953125,0.23099810626298878,0.5702850964568367,0.15625,0.88110351562,0.04029336127100201,0.1997052941795453,-0.527053521600306,-0.8427734375,-0.23217773437,0.03247332373692508,0.1792817985480677,1.0233897061610204,0.63036256011,1.51643173632,0.032231368098935446,0.17861264397494883,972.9730479290153,972.57627655268,974.21249124412,0.19725210659251982,1.6362146914399318,0.4418589480757824,0.007972440402867981,2.8368647587377405,0.77,0.23,2.017586047400884,Stairs up
-0.4015662783621427,-0.44689941406,-0.36364746093,0.0002777539749332718,0.016566453452492177,0.13635689871345238,0.05676269531,0.26281738281,0.002669760062861127,0.05136124224519811,-0.9250967843155949,-0.97705078125,-0.87438964843,0.0005979577525363,0.024307184284964985,1.0191706216734524,0.98971949025,1.06848214261,0.00045263633490564463,0.02114823413690015,972.5977470154259,972.49843332066,972.68231346784,0.0015276204573999464,0.18388014718004797,0.03885144140921617,-0.0008827371691186027,0.020523183002329137,0.42,0.58,-0.4115967917412532,Lift down
0.08190138796436171,-0.46057128906,0.64208984375,0.15327534938322487,0.3894159223247029,0.444374896105319,0.06140136718,1.28723144531,0.14705353918069514,0.3814303866077125,-0.7100141809307445,-0.96545410156,-0.41625976562,0.028953017265164242,0.169248357283592,0.9958577676031917,0.6047680769,1.59706960227,0.04279853991442897,0.20577472220444867,972.6617862662272,972.48583535118,973.00133559407,0.029661280028949768,0.5155002428900843,0.17130596748720373,0.004952224287017913,-0.5969322990979875,0.63,0.37,0.9403005541492111,Lift down
0.5162303177314432,0.44592285156,0.60485839843,0.00157334125203141,0.039460375557309,0.5979117167335051,0.52600097656,0.7841796875,0.0028789742175084464,0.05337877921923837,-0.6392004268647422,-0.70166015625,-0.43127441406,0.003118956375195129,0.05555899734300582,1.0197509049217526,0.97654508956,1.04199118645,0.00017243474444001927,0.013063577866047537,972.8398333410231,972.70632147177,972.95807109124,0.005746996461707075,0.25174961946993335,0.07541716698142346,0.0017371865170142775,-0.8502273429782741,0.45,0.55,-0.5477151306981539,Lift down
0.5050886287203488,0.47583007812,0.52111816406,0.00018125080419650178,0.013384440096837999,0.5841504473979068,0.57116699218,0.60388183593,8.82488533942991e-05,0.00933930960704408,-0.666738110916279,-0.685546875,-0.65173339843,7.76943792737464e-05,0.008763044919372227,1.0203767029273259,1.0054540762,1.03533494234,6.122960061790642e-05,0.007779307714552639,973.0081655363126,972.89472967034,973.07584564498,0.0029008423117146947,0.18111597463996532,0.05354541611716051,0.002081737945784306,-1.4658945914898498,0.48,0.52,-0.2560169565295986,Lift down
0.5146190788136707,0.48645019531,0.56201171875,0.00021771445304037912,0.014661465611867364,0.5914337544459493,0.57861328125,0.59802246093,2.4782913872377862e-05,0.004946635836792662,-0.6487419031793669,-0.66198730468,-0.62731933593,4.5846621727366836e-05,0.006728022350102303,1.0177195098216454,1.00650624335,1.02762227217,2.474575354340217e-05,0.00494292587004669,973.1739542380109,973.07584564498,973.29158144939,0.003791029562951024,0.21573580441008744,0.06118040410919416,0.0025242139617519515,-0.7799376847467379,0.48,0.52,0.14114705217401852,Lift down
0.5383526837338272,0.51953125,0.57019042968,0.00018981587553925183,0.013692058635150408,0.5927282262692593,0.5810546875,0.61352539062,6.612853870829942e-05,0.008081592478951861,-0.6410936897160494,-0.666015625,-0.61535644531,0.00018085109325331278,0.013364818132207246,1.0259417590765432,1.01679825139,1.03574543146,2.672113961654563e-05,0.005137241380740804,973.4422934873901,973.29158144939,973.57180846625,0.0075759149917863505,0.28022701685995344,0.08650078136683471,0.0036523537199681312,-1.325601566132441,0.47,0.53,-0.2669385820574379,Lift down
0.5387764724992155,0.52124023437,0.55444335937,9.16198619314247e-05,0.00952479018093945,0.6006721047757843,0.59106445312,0.60913085937,2.6193759293279006e-05,0.005092833958767966,-0.6192997951094117,-0.63659667968,-0.59643554687,0.00010326970602798373,0.010112233083234888,1.0172450870344119,1.00128399105,1.03007571234,5.11512308220842e-05,0.007116863646787519,973.6517945635478,973.57180846625,973.76770552685,0.00311146673839533,0.1958970606000321,0.05550641550783755,0.0018700016343212013,-1.1631005626253161,0.52,0.48,0.1397078765596542,Lift down
0.5456461588513333,0.5361328125,0.5517578125,1.6706981012739202e-05,0.0040646460965716846,0.5995510525127777,0.58544921875,0.60876464843,5.387765227303819e-05,0.007299247337378468,-0.6193684895799999,-0.6357421875,-0.59814453125,0.00010359829730152601,0.010121620676022533,1.0202778550915557,1.01217418714,1.02749868319,1.4022909829947392e-05,0.0037238554913860116,973.8778696356638,973.76770552685,973.99060183372,0.0041700573660466995,0.22289630686998407,0.06421622377026578,0.0024617145577732788,-1.1583929289938928,0.52,0.48,-0.0016887510092657527,Lift down
0.5459072618566264,0.53466796875,0.55969238281,3.771294294714969e-05,0.006103979860759497,0.6035391566222892,0.59594726562,0.61376953125,1.8174131407315645e-05,0.004237353651593561,-0.6095897260878312,-0.62963867187,-0.59167480468,0.00012041431751683069,0.010907040964761678,1.0168619836614459,1.00696241766,1.02955768183,4.0254740922988176e-05,0.006306325716643405,974.0921467358017,973.99060183372,974.20268132011,0.004061925562139522,0.21207948638993912,0.06334813888304115,0.002634328880176101,-1.19336830036066,0.48,0.52,0.04751383931588059,Lift down
0.5561332702607291,0.54821777343,0.56481933593,1.9328006981399435e-05,0.004373405260817158,0.6002566019655208,0.58654785156,0.61047363281,3.3570942062451714e-05,0.005763787361561942,-0.5982233683237499,-0.60900878906,-0.57189941406,7.0244067332729e-05,0.008337407168779338,1.0136796071912502,1.00379535047,1.02371955945,3.9324777178345095e-05,0.006238200388151805,974.3198098690265,974.20268132011,974.40836524847,0.003241420735038947,0.20568392836003113,0.056636171619519136,0.002016055383508678,-0.9708014565242293,0.5,0.5,-0.3784487521493265,Lift down
0.5724182128870834,0.56457519531,0.57873535156,1.558410494440661e-05,0.003927056215271482,0.6018308003714583,0.59692382812,0.6083984375,9.071393951993875e-06,0.0029961475706303154,-0.5828208923302083,-0.59228515625,-0.57006835937,3.655331798277273e-05,0.006014362331435105,1.014682285123229,1.00295949146,1.0240522533,2.3794600145203786e-05,0.004852498297477762,974.535936521405,974.40836524847,974.65920473941,0.005741962571447783,0.2508394909400522,0.07538004020514008,0.0026947872455265706,-1.1530305065894664,0.55,0.45,0.1515164347857714,Lift down
0.5765281499786046,0.56164550781,0.58642578125,3.85765521373688e-05,0.006174786439840001,0.6033467137502324,0.59326171875,0.61010742187,1.5391731471271017e-05,0.0039003535544245285,-0.5795146143677906,-0.59680175781,-0.56555175781,6.873122684706872e-05,0.008242088724036735,1.0160451121003489,1.00500437869,1.02611938011,2.3023644972783375e-05,0.0047703174077596,974.747655271662,974.65920473941,974.85630445272,0.004392723688908023,0.19709971330996723,0.06589116410019526,0.0026233009745056136,-1.4181006968655854,0.51,0.49,0.10564684431109535,Lift down
0.580463359877922,0.56689453125,0.60107421875,9.461377206792337e-05,0.009663592591853558,0.594970703122727,0.58776855468,0.60107421875,1.6232462310927543e-05,0.004002705474061803,-0.5826416015587013,-0.6015625,-0.57116699218,6.506317540556256e-05,0.008013625839880112,1.0151535244166234,1.00258536217,1.0273248939,3.650645072652513e-05,0.006002694476385584,974.9711306417611,974.85630445272,975.07739357442,0.005210848721643438,0.2210891216999471,0.07171593520008016,0.0031879303172607392,-1.385692778621267,0.52,0.48,0.07036590299170183,Lift down
0.5654654947871999,0.52429199218,0.603515625,0.0004220418725908185,0.020406240408829376,0.6213736979138665,0.595703125,0.65014648437,0.0003223100116569009,0.01783290623636004,-0.5741520182251999,-0.59094238281,-0.55297851562,7.97442863812554e-05,0.008870232760728736,1.0179512944974667,0.99434700942,1.03491775356,9.65964962756155e-05,0.009762609435593572,975.1997696014087,975.07739357442,975.27085887117,0.0039056722644414633,0.19346529675010515,0.06207734396902714,0.002705278502022331,-1.1466282420464253,0.39,0.61,-0.6452469508713142,Lift down
0.5402578221662375,0.52111816406,0.57507324218,0.00016161570455358498,0.012649725256421794,0.6737181408540595,0.62927246093,0.77734375,0.0012017996623872795,0.03449493666944454,-0.6003587175084157,-0.70275878906,-0.57360839843,0.0006751310914072298,0.02585433474595069,1.0521836972648515,1.01686197659,1.15234711856,0.0011443981348620473,0.033661067426025766,975.4446748369595,975.24954992209,976.26385696299,0.07003792029936404,1.0143070409000075,0.26333339238297293,0.006997963026594769,2.8403312118080777,0.79,0.21,2.00242871250444,Lift down
0.5119791666629999,0.29211425781,0.57849121093,0.007287346312158165,0.08489037517633333,0.5685818142327778,-0.27099609375,0.77734375,0.05625197879968135,0.2358536767002334,-0.5405287000833332,-0.63610839843,-0.30224609375,0.0045403042850898625,0.06700639118546808,0.9590707170490002,0.50012230867,1.12389274917,0.025455714483625567,0.1586596143055481,975.4845831775173,975.17186658073,976.19522533365,0.046660178137937325,1.0233587529199895,0.2148062655375361,-0.0013309911198684991,5.2697413753229725,0.64,0.36,2.2310435672692805,Lift down
0.5427528939553657,0.51940917968,0.58410644531,0.0003937943845775705,0.019722880470000866,0.64261236423,0.60876464843,0.67541503906,0.00023693003564444743,0.015298387005362905,-0.578559689399878,-0.60864257812,-0.53564453125,0.00043169660976407823,0.02065023043363142,1.0213816929140245,1.00089629805,1.04451905801,9.27013233230292e-05,0.009569264307148457,975.5900512920884,975.52794209575,975.62514229823,0.0007193609417920486,0.09720020248005312,0.02665686116893642,0.0005897432489688234,-0.1814555604023429,0.34,0.66,-0.9429604497910673,Lift down
0.9699356532293069,0.70788574218,1.1474609375,0.014900349181067769,0.12146119121494826,0.2802976098355446,0.07604980468,0.52978515625,0.013886536663655696,0.11725632691517887,-0.02614480197881188,-0.18151855468,0.13439941406,0.008390278933777891,0.0911438800201452,1.020813860140891,0.77098357931,1.26922383621,0.014921345230701212,0.12154673644038383,975.4217021263794,975.22182803322,975.51844499968,0.006951889702659415,0.2966169664599647,0.08296420379623959,0.0024688622801196593,-0.611969408218139,0.39,0.61,-0.7761482910836524,Stairs Up
0.9420247395782222,0.59069824218,1.31713867187,0.047313773498211,0.2163054897680279,0.3456814236078889,0.15942382812,0.55859375,0.011676158321664427,0.10745428436875605,-0.0758449978278889,-0.31872558593,0.05541992187,0.009786787269643027,0.09837705621164528,1.0130985196432223,0.65066651916,1.41247695739,0.05491278518218624,0.23302927525228753,975.4540818519861,975.42368254296,975.49340716203,0.0003414207007685211,0.0697246190700298,0.01837463298753607,-0.0006341321069082738,-0.7519925371955969,0.49,0.51,0.35532605301966774,Stairs Up
0.8937065310556098,0.61047363281,1.265625,0.032276637599010755,0.17855816998198515,0.47977354467914624,0.28540039062,0.73547363281,0.019945306796166448,0.14036406715193425,-0.07415920350353658,-0.17175292968,0.06616210937,0.004140399209813985,0.06395237709830316,1.0236483509636585,0.68722756363,1.4036819852,0.04273380072362619,0.20545718973149238,975.4111912539861,975.35708190362,975.4646462587,0.0010580811454093326,0.10756435507994411,0.03232920841602497,-0.0010243435284128385,-1.214026656169267,0.4,0.6,-0.4226728282469325,Stairs Up
0.8965462239546665,0.65454101562,1.1923828125,0.02711635883311119,0.1635689682733343,0.44209309895520005,0.22314453125,0.65283203125,0.009839185497859494,0.09852916501162502,0.014594726562933334,-0.15783691406,0.13134765625,0.00680460971696735,0.08193827913379548,1.0076617950432,0.74481023863,1.29387191852,0.02761706555524871,0.16507222060211119,975.3167575702558,975.28187811985,975.35968553082,0.00046593800409569947,0.07780741096996735,0.02144121025908807,-0.0009383957137776212,-0.8186383505374506,0.39,0.61,-0.03725984918254037,Stairs Up
0.8794904436339285,0.61889648437,1.16052246093,0.018584699900431982,0.13551182041816826,0.473593575610119,0.33264160156,0.7119140625,0.009473771273638711,0.09675220040022794,-0.1309552873854762,-0.3017578125,0.01452636718,0.007909071399017696,0.08840201234770975,1.016025811767738,0.7364621736,1.27930794631,0.021848061944485495,0.14692843825807142,975.2502782713602,975.20090334682,975.29250643069,0.0005117318965826579,0.0916030838699271,0.02248643702756773,-0.0006863093982000894,-0.47723466279032634,0.38,0.62,-0.6614784139909767,Stairs Up
0.8097313949707216,0.40466308593,1.15832519531,0.04327110621674182,0.20694205067655708,0.5703427029597937,0.279296875,0.92993164062,0.03305047751393945,0.1808583726058343,-0.17499093910639177,-0.43969726562,-0.0126953125,0.013699073994111577,0.11643816568102562,1.0191706819443298,0.63254422517,1.4441822891,0.06260672047134548,0.2489202490023531,975.1599841153557,975.101857661,975.27295648976,0.0018659536185353638,0.17109882875990934,0.04297344509453171,-0.001339235518655584,-0.31407962106068776,0.65,0.35,0.9431962238000938,Stairs Up
0.8811770352412499,0.63464355468,1.13830566406,0.018502895017021865,0.13525026745398283,0.4702994606672727,0.32055664062,0.69055175781,0.010453673394960197,0.10166061996582378,-0.05018477006318181,-0.19799804687,0.06481933593,0.006698178638691897,0.0813760589629599,1.0073455539088636,0.74149262876,1.26338620619,0.02091524906240867,0.14379699502287444,975.0820305319739,975.04214234376,975.11296648597,0.0004199225220763484,0.0708241422099718,0.020375246630030562,-0.0007454593270500507,-0.8147376918328209,0.58,0.42,-0.13059899202429495,Stairs Up
0.8791915893516251,0.51293945312,1.15356445312,0.03419790424262491,0.18376732690985112,0.4687866210899999,0.24047851562,0.76525878906,0.019955471120136046,0.14037815973695603,-0.042797851562125,-0.2587890625,0.11267089843,0.007736328507726866,0.08740494494809936,1.009856480992625,0.63120415067,1.25339218249,0.037894061075298795,0.19344349384731852,975.0219530353777,974.99381004438,975.04890686037,0.0003769535401915585,0.05509681599005489,0.01929356423627226,-0.0006476976424457292,-1.4694161987065009,0.5,0.5,-0.023788337788565976,Stairs Up
0.9267770867563158,0.60009765625,1.25439453125,0.04194058582992309,0.20371329357477336,0.36735197368,0.21472167968,0.62524414062,0.011722888327696432,0.1077009261946914,-0.012686317844526316,-0.13256835937,0.1455078125,0.0047997462117563795,0.06891460344094061,1.0019992375934736,0.63835264387,1.34753734229,0.04837877999014829,0.21879106397305745,974.9935166291261,974.97350697773,975.06366525944,0.00047916014751805323,0.09015828170993245,0.02177421310843511,-4.4396438882679825e-05,2.151728730649329,0.62,0.38,1.6278117392055462,Stairs Up
0.8698730468712902,0.66723632812,1.17578125,0.02583169127307731,0.15985597002258448,0.41002761676344074,0.22033691406,0.69860839843,0.01348259344209034,0.11548861120931843,0.0432286416332258,-0.12414550781,0.22326660156,0.011656631342703165,0.10738384990648554,0.9738440426515053,0.72658495714,1.30120344441,0.02903328781633871,0.16947301238203222,975.0064268120744,974.98895695318,975.02780606596,0.0001360531266926659,0.03884911277998526,0.011601301213506535,0.0002445700154854815,-0.9220512994941221,0.54,0.46,0.3756873922403722,Stairs Up
0.9141090029727379,0.66967773437,1.15026855468,0.021609896602701125,0.14612541164650125,0.5041532970580951,0.33850097656,0.70874023437,0.009555423825505505,0.09716824985541199,-0.07540457589011905,-0.220703125,0.07360839843,0.006126962717380602,0.0778076004322896,1.0529458852314286,0.76605854604,1.28194952686,0.023889353549251768,0.1536390460891672,975.0142737205887,974.99917210112,975.03283246864,0.00011499885374446478,0.033660367519928514,0.010659728878884134,5.980078782525244e-05,-1.2228102543099861,0.54,0.46,0.41882930449353106,Stairs Up
0.8838179738857895,0.58959960937,1.27392578125,0.04395516668518125,0.20827099949056108,0.44147692228249985,0.28125,0.77624511718,0.019657825335891606,0.13928090227797463,-0.06711457904855264,-0.21228027343,0.05114746093,0.006714749343602103,0.08140268655612483,0.9968166199284209,0.65542959976,1.4004552499,0.05705011254918704,0.23727505805191546,974.9639418301961,974.91721055868,975.00144273829,0.0006862381786833478,0.08423217961001228,0.026023234406272983,-0.0010573614284319112,-0.972993563205705,0.45,0.55,-0.26362582097192533,Stairs Up
0.9518164062461332,0.59020996093,1.2353515625,0.03840024107241689,0.194649011962861,0.3631331380161334,0.10522460937,0.68566894531,0.021956369801941142,0.1471856589637113,-0.0348388671872,-0.22583007812,0.09521484375,0.010595873400306955,0.1022477143426828,1.0341550513778666,0.65294105914,1.34587353539,0.04009831890524347,0.19890619561284048,974.9051116844115,974.85388101725,975.04266683213,0.0013236195666801256,0.18878581487990687,0.03613822499502511,-0.0005575313666621862,5.961995405517557,0.53,0.47,1.8250101823001588,Stairs Up
0.9378985969350001,0.67468261718,1.28344726562,0.03553910094195118,0.1875538777386072,0.39013049067,0.18383789062,0.626953125,0.014825098100610654,0.12113555047705828,-0.05286890146520407,-0.15832519531,0.04187011718,0.00252576356352483,0.04999990465928752,1.0224077303708163,0.70227811462,1.35574835386,0.042113126391273195,0.20416513074413664,974.8178919449081,974.78220261282,974.8569549909,0.0004704380720125724,0.07475237808000657,0.021578639519734513,-0.0006899944779308138,-1.1514479242040596,0.47,0.53,0.04215263571349878,Stairs Up
0.8979854374101096,0.65417480468,1.17700195312,0.023776241969508498,0.15334589849496524,0.4588220617241757,0.3203125,0.6796875,0.010089302412461813,0.09989209657114928,-0.03183754721615385,-0.126953125,0.04931640625,0.002139753736265681,0.0460026081754511,1.0132619781752747,0.73635915797,1.28393318508,0.027116947055844404,0.16376494932267802,974.7296936575644,974.67695018196,974.78220261282,0.000829335057008763,0.10525243085999136,0.028639509160488796,-0.000996591210845556,-0.7565850174373834,0.62,0.38,0.15637985451390624,Stairs Up
0.9196233174857831,0.63354492187,1.20874023437,0.02486920220578602,0.15674684450906065,0.32519090031686754,0.16821289062,0.60290527343,0.01208158362397969,0.10925210467308173,-0.15905761718493977,-0.36828613281,0.0439453125,0.009621233838137944,0.09749520684710802,0.9979081470115662,0.69443714032,1.35759832758,0.027274340938491844,0.16415155930164238,974.6535786881575,974.56334670895,974.72706759577,0.0014096815910804997,0.16372088681998775,0.03731886219494524,-0.0010994016822232857,-0.3073507426973796,0.53,0.47,0.09057213929420702,Stairs Up
0.9361285041324707,0.6044921875,1.18054199218,0.029380628625238752,0.17039652041876963,0.40699965532658816,0.26245117187,0.55493164062,0.006872650467499648,0.08241235196326639,-0.11064165900400001,-0.2021484375,-0.01171875,0.002343259033788284,0.048121630068500364,1.0300196908288233,0.69841959373,1.31024388137,0.0318029221305857,0.1772816124292646,974.5419060111352,974.49746440103,974.58131915859,0.0005796307235353718,0.08385475755994776,0.023933481538476655,-0.0008422446220988646,-1.0637757462304187,0.46,0.54,-0.04847554507236216,Stairs Up
0.9026583642035052,0.57592773437,1.20227050781,0.026338770623893778,0.16145351314270517,0.4555324279118557,0.1728515625,0.72082519531,0.02066216144151184,0.14300052261403803,-0.10927306499402062,-0.21728515625,0.02404785156,0.0041602963831289036,0.06416702213516368,1.0269249337650517,0.73238824385,1.4068435423,0.030617132133038575,0.17407323629893418,974.4812151690078,974.44166477083,974.51175418728,0.00033372341234383325,0.07008941644994593,0.018173688805355307,-0.0004804716043319211,-0.21122395194718946,0.41,0.59,-0.671524992403767,Stairs Up
0.7607352516832955,0.51831054687,1.10095214843,0.03102275124843328,0.17512915229694495,0.5474368008648863,0.32983398437,0.86853027343,0.019731667034965077,0.13966905006454144,-0.1594959605784091,-0.28723144531,-0.08679199218,0.001964107887600357,0.04406572908493307,0.9565684180061363,0.69774155175,1.43141271903,0.04141102909695829,0.20233746371064476,974.3993176221651,974.35641339541,974.45371404003,0.0008614625207086117,0.09730064462007704,0.02918344006251452,-0.0010591314894307312,-1.184325624705722,0.61,0.39,0.2735556346707166,Stairs Up
0.9052017211868751,0.57788085937,1.18298339843,0.0278995062333234,0.16598422336296562,0.448149108883875,0.20629882812,0.70861816406,0.019273859882774066,0.1379599095180893,-0.11313781737987498,-0.27526855468,0.00964355468,0.005409270062488392,0.07308662111978695,1.024888326882125,0.71364628704,1.32287518806,0.03499464931907923,0.18589571324425622,974.3658837139504,974.33194029176,974.42207871389,0.0004459367878117104,0.0901384221299395,0.020984817796780224,-0.00013921168505771453,0.12569045102973364,0.55,0.45,0.4314179324204796,Stairs Up
0.9034863281210667,0.69189453125,1.19128417968,0.017626153311188643,0.13187546372887615,0.46770996093346656,0.23474121093,0.68041992187,0.01215107995092653,0.10949459142615603,-0.05621907551813333,-0.17468261718,0.03015136718,0.0025763021501685884,0.05041776923697643,1.0246202178649335,0.82522085477,1.32529850489,0.02055030526202947,0.1423948776883111,974.3590562631426,974.33010723486,974.43675117872,0.0007050219081698951,0.1066439438600355,0.026374639638504317,-0.0002951861612969382,0.8846705467499967,0.64,0.36,1.198364476029176,Stairs Up
0.9323151417237177,0.76062011718,1.18505859375,0.016819398791925785,0.12885559931210044,0.31262363531141024,0.06726074218,0.57360839843,0.017502487283678998,0.13144617309403772,-0.010474571814102563,-0.10888671875,0.08862304687,0.0029086103133571747,0.05358470339140549,0.9943035384747435,0.81908970475,1.20949180196,0.015365425844882374,0.12316019326813929,974.3520667239267,974.32871059327,974.4016711358,0.00024093080867149404,0.07296054253004058,0.015422125409620577,0.00011734527761340803,2.2635344607766106,0.63,0.37,1.535292702292874,Stairs Up
0.9881567136178787,0.60144042968,1.19177246093,0.024105433596613712,0.15447311859467683,0.2904656920724243,0.08618164062,0.65954589843,0.021758171482234457,0.1467596401341762,-0.003663342409191919,-0.18188476562,0.15075683593,0.006462741108958588,0.07998412902405566,1.0405430524041415,0.65215949922,1.28035157384,0.030210539306473317,0.17293172740645849,974.3395749013735,974.28731179726,974.40515776721,0.0012955863392750768,0.1178459699499399,0.03581200369394777,-0.0009530451751894017,-1.099729470622041,0.45,0.55,0.31658859347797236,Stairs Up
0.9622610713619101,0.54321289062,1.25451660156,0.042547920515322454,0.20510937080659766,0.3326800057035955,0.10986328125,0.68908691406,0.026193047990596807,0.16093086739525797,-0.018546458041123596,-0.267578125,0.17822265625,0.009886346349874967,0.09886993378483645,1.0349751961044944,0.63261816784,1.3412706101,0.04403126540697799,0.20865409674338645,974.2713022984263,974.23206410201,974.3027826637,0.0003998310010013753,0.07071856169000057,0.01988312143110474,-0.0005508661370282449,-0.7233042511191683,0.55,0.45,-0.18817369102674036,Stairs Up
0.9029005097139023,0.68334960937,1.19738769531,0.01718235571354394,0.13027975587253776,0.39618068787658534,0.12744140625,0.7490234375,0.020419820312947784,0.1420239350039612,-0.14277313976329267,-0.26257324218,-0.04516601562,0.004025613768497679,0.06305966157269115,1.0060094358858533,0.75423314612,1.25086373647,0.02190491922042901,0.1470978791798314,974.2141650495171,974.12118591012,974.28966534227,0.001574158716959021,0.1684794321500931,0.039433002161072275,-0.0015624389366983942,-0.323062201535008,0.5,0.5,0.001558045666091866,Stairs Up
0.9125493646945054,0.68493652343,1.19738769531,0.01999417340736588,0.14062168117355214,0.4358661358138461,0.2607421875,0.74572753906,0.017017658806448715,0.1297330010707276,-0.07473654275142859,-0.21228027343,-0.00170898437,0.0028618330229019952,0.05320135626433419,1.0227637462746153,0.79305255616,1.25904599712,0.021942116733961015,0.1473125743853842,974.1333555117942,974.09159999505,974.17455998919,0.0005796359809744103,0.08295999413996924,0.02394298132668228,-0.000813327376796413,-0.9889571918877369,0.51,0.49,0.0037542064639198955,Stairs Up
0.8904795545176595,0.67419433593,1.19873046875,0.02346059432520828,0.1523516115258207,0.4231008976026595,0.28479003906,0.69470214843,0.011452200244427883,0.10644420288082376,-0.07331361161606383,-0.162109375,0.07861328125,0.003849721214186535,0.06171520666079431,0.9932009428877662,0.7417704364,1.30766437607,0.02955959159516496,0.1710120693249189,974.0633508049684,974.01325841657,974.10115913406,0.0008351750694625952,0.08790071749001527,0.0287452644499594,-0.0009692865331906861,-1.2337116773839114,0.41,0.59,-0.3848777254758223,Stairs Up
0.9592129019768604,0.62548828125,1.22863769531,0.03081921226703839,0.17453036794122886,0.35519054323767446,0.10998535156,0.71887207031,0.024643471188704743,0.15606703430942234,0.009971441224651163,-0.16394042968,0.15441894531,0.0067207358375527045,0.08150207203757688,1.036654268511279,0.70322944077,1.32212769142,0.03354751419424966,0.18209180876661618,973.9825918269916,973.92977533335,974.04512459764,0.0011952860760808058,0.11534926428998915,0.03437131654123159,-0.0012284131686368426,-1.1116504964105118,0.57,0.43,0.3786510524304304,Stairs Up
0.8788123497555128,0.50341796875,1.11511230468,0.035164965020515866,0.1863172888801183,0.4497242462896152,0.22961425781,0.796875,0.018446722868581757,0.13494527194958947,-0.10133557441589744,-0.29248046875,0.02355957031,0.00512880927726211,0.07115514958292903,0.9994660571855126,0.60246447034,1.37692460916,0.04266857244776975,0.20523532704597944,973.917637694722,973.88972460055,973.94757503072,0.0002851889348945826,0.05785043016999225,0.016778935201570398,-0.0006330767618317094,-1.1474533151493784,0.58,0.42,0.17758729344788898,Stairs Up
0.9211871172897298,0.64221191406,1.23864746093,0.026170340128788598,0.16067571964613997,0.4692102380672972,0.22216796875,0.8505859375,0.025782847056448722,0.15948175508293902,-0.012794288429189189,-0.21179199218,0.09716796875,0.007796471116548037,0.08769899314562767,1.045035230410811,0.73095801996,1.42536052087,0.0362409871408111,0.189079993842132,973.883628719188,973.84473105148,973.9118584259,0.000256994611713229,0.06712737442001071,0.015922365136968254,-0.0004006430749751418,0.566230880143114,0.39,0.61,-0.6790521283643686,Stairs Up
0.8171025490241837,0.59716796875,1.05603027343,0.017869202810618556,0.13299196970655247,0.5444323481308162,0.28649902343,0.83337402343,0.019971574856405425,0.1405979490470541,-0.12822988081540818,-0.27001953125,-0.03149414062,0.004634567808957033,0.06772943452223981,0.9972911748926531,0.74271138423,1.29309866215,0.02824652556584334,0.1672073434784808,973.897479952085,973.84473105148,973.95262744644,0.0004400034640530647,0.10789639495999381,0.020868963385544982,-0.00034623498760225833,0.6002619612374858,0.53,0.47,0.7576186141670743,Stairs Up
0.8941199261181522,0.66577148437,1.15417480468,0.018218770694315985,0.13424135196754175,0.4686027195104348,0.19128417968,0.80224609375,0.022666767579725505,0.1497343970878109,-0.13426009468108696,-0.26953125,0.00720214843,0.005820852250000654,0.07587873296812798,1.0300632547255435,0.78349356842,1.37257821127,0.022477447750272547,0.149107771983993,973.8988255415012,973.8801989086,973.92462875379,0.00011326626651086096,0.04442984518993853,0.010584663973886499,0.00022308558194281746,-0.04470096808145918,0.58,0.42,0.2985483531021886,Stairs Up
0.971598797529518,0.68872070312,1.24780273437,0.025143576931986322,0.15760914399283807,0.26682952512831326,0.02294921875,0.55700683593,0.015549427769125986,0.12394387950150465,-0.11228850950265058,-0.33874511718,0.01135253906,0.005416768269789223,0.07315398828142256,1.0234778741868673,0.72473813786,1.27016561064,0.026173546732698866,0.16080485936737213,973.8946397507127,973.86128105277,973.9363074165,0.00037375429559814385,0.0750263637299895,0.01921591090205605,-0.00040778849827229644,0.05432533978852527,0.58,0.42,0.5144526702012682,Stairs Up
0.9198027111191668,0.69360351562,1.15588378906,0.023602962485143444,0.1527153392312337,0.322261265342619,0.0634765625,0.60375976562,0.019589223217825802,0.13912590765029478,-0.2345551990285714,-0.41259765625,-0.04614257812,0.008762491207634457,0.09304931937480788,1.0153816412992858,0.77920506828,1.34008111324,0.02554590115000131,0.15887662911570083,973.8559543052767,973.81520706878,973.88312756139,0.0004049133230330102,0.0679204926100283,0.02000232302334497,-0.00011819393503989267,-0.3418102059059476,0.43,0.57,-0.7766713359649272,Stairs Up
0.9242732500754545,0.71203613281,1.14880371093,0.01867454554131164,0.13596291320859183,0.44744688091474744,0.28466796875,0.73693847656,0.017304998077878223,0.1308823904025886,-0.17485524186828283,-0.27819824218,-0.03967285156,0.0022731076727692326,0.04743571427949522,1.0481330901816162,0.78966187855,1.32236098899,0.024595836591378012,0.15603651430843266,973.8015572382543,973.7722854871,973.84181094031,0.00029064863102896705,0.0695254532099625,0.016962098522031368,-0.00047007845956342607,-1.0244790336545315,0.45,0.55,-0.1475275283354812,Stairs Up
0.8668948086795454,0.61950683593,1.15686035156,0.024512189743154545,0.15567158421637803,0.5060161243748863,0.35778808593,0.71948242187,0.011709719878805458,0.10759486456231389,-0.1995350230790909,-0.33483886718,-0.08898925781,0.004474009808514192,0.06650690782139021,1.0292850129195454,0.74452118641,1.36444446594,0.02850287718867929,0.1678659609837258,973.7358086758653,973.66931753961,973.7722854871,0.0006883109059036022,0.10296794749001492,0.026086187744931003,-0.0008475963440388766,0.9072156956056125,0.45,0.55,-1.0685116020449903,Stairs Up
0.8551581660364556,0.60424804687,1.19189453125,0.02713748193604945,0.16368863585013838,0.45264753510329103,0.25170898437,0.68981933593,0.015285480935352262,0.12284947633142261,-0.3147188983356962,-0.55749511718,-0.20434570312,0.00748847988906758,0.08598656292930797,1.0263008580339246,0.73018840775,1.30980833821,0.03161971565281104,0.17669031124423767,973.6901028952261,973.56444056529,973.89245290373,0.009395129089724038,0.3280123384399758,0.09631304898633407,-0.003133907734261746,0.13192395665600687,0.67,0.33,1.0706969933025556,Stairs Up
0.8557682291633334,0.48303222656,1.21667480468,0.04355042822166794,0.20729147557335548,0.4994124348929332,0.21447753906,0.88098144531,0.0260833565018867,0.16042312306894813,-0.04430013020799999,-0.3193359375,0.12084960937,0.01291655292842479,0.11289079777693334,1.0111295474652002,0.68740143936,1.43917916018,0.04335937341144023,0.20683628412979435,973.5399740667577,973.50101177785,973.57844260865,0.00045850391382282413,0.07743083080003998,0.021269474095642008,-0.0007441410442349633,-0.7874787341433445,0.55,0.45,0.29678160364083933,Stairs Up
0.6331481933544791,0.47448730468,0.70922851562,0.004072741144677349,0.06348477579509615,0.5262985229458333,0.44750976562,0.56982421875,0.000558439622596509,0.023507925114617453,-0.6099141438780208,-0.73583984375,-0.56506347656,0.002718913764371083,0.05187091425830296,1.0277336858859374,0.96074740537,1.08852797899,0.0009084983755942538,0.029983909865934435,973.4183200836679,973.24042129909,973.5150794179,0.0069627413606450075,0.2746581188099526,0.0830073057315135,-0.001956052655607128,0.010967494530950805,0.32,0.68,-1.222134000583232,Lift Up
0.5594999893813043,0.52014160156,0.6025390625,0.00079212419070874,0.02799132267610014,0.5905629033594565,0.50048828125,0.65087890625,0.0015660355563860567,0.0393575079339783,-0.6734168011165217,-0.72595214843,-0.62145996093,0.0008161387985492107,0.028412457208976782,1.0572850605385866,0.98361899091,1.09422153117,0.0005894723427325553,0.02414673962793684,973.4410273167729,973.25384839163,973.82513018483,0.018236898748121934,0.5712817932000007,0.1343081218237239,0.004582361397581034,0.89482977595094,0.62,0.38,1.1538774047063467,Lift Up
0.588333313719036,0.55395507812,0.6025390625,0.00014960900705599122,0.012157569201887774,0.5694712443483132,0.54614257812,0.62133789062,0.00036880810523920877,0.019088337646106023,-0.6128062052856624,-0.63134765625,-0.58813476562,9.656643433529701e-05,0.0097674450763344,1.0231064381815662,1.00411032298,1.06551704782,0.00016232988551336,0.012663889756318434,973.3931852810776,973.25124137652,973.72061552229,0.009134374600224862,0.4693741457699616,0.0949964309550525,-0.003669684008475834,1.0538092309736626,0.53,0.47,1.01293499037668,Lift Up
0.5613419382169736,0.54467773437,0.5966796875,0.00017619867859329733,0.013186367010196404,0.5362179404764472,0.51965332031,0.55908203125,9.756565878055275e-05,0.009812334080757115,-0.5989363820896051,-0.61706542968,-0.58178710937,8.069773253107916e-05,0.008923896024771545,0.9805937282018424,0.9603784377,1.00865270647,0.00023118845075206004,0.015104519106965664,973.1559985267955,973.08404537599,973.25775575397,0.002278333045042998,0.17371037798000089,0.047416821684512486,-0.002079347551532995,-0.7626785330248405,0.58,0.42,0.634711772787816,Lift Up
0.5759020353578946,0.53271484375,0.60339355468,0.00039230347147771813,0.01970213088098942,0.5524439761479999,0.52880859375,0.57934570312,0.00016657728426816725,0.012838373696485376,-0.6379278885652631,-0.66540527343,-0.59838867187,0.0002981532360596423,0.017175994321820934,1.0219519561382104,0.98986057697,1.05161683989,0.000274594518592334,0.01648344775754067,973.0570782433932,973.03305053236,973.10763658364,0.00049669036377067,0.07458605127999363,0.02216894323489578,-0.0006278600127040867,-0.5504609325401275,0.67,0.33,0.8862747623531202,Lift Up
0.5916301768277419,0.55322265625,0.634765625,0.0005865420287379875,0.024088070184287706,0.5612884849586021,0.53637695312,0.58715820312,0.00016203141620674909,0.012660534858930858,-0.6157751596067741,-0.64672851562,-0.58508300781,0.00040830198768805034,0.020097553177797923,1.0222406996262365,0.9904386321,1.04584145412,0.00018414558270152517,0.013496870847440029,973.0154928137971,972.99071649156,973.05174632103,0.00029829297858102857,0.061029829470044206,0.017178053649888187,0.00025355244043460663,-0.12380733195813587,0.65,0.35,0.8373625944388539,Lift Up
0.6100478399332142,0.5888671875,0.63317871093,0.00016410325450739343,0.012733799289084401,0.5587201799623808,0.54711914062,0.57678222656,6.106188729440015e-05,0.007767558179035733,-0.5917896089057142,-0.61437988281,-0.57397460937,0.00014637225764299843,0.012026210158079562,1.0172716228689287,0.99514909717,1.03409071729,6.79158814685291e-05,0.008191908145853091,973.0490158057846,972.97921150059,973.17845753917,0.004008771610085616,0.1992460385799859,0.06293685834657604,-0.0018167626052773649,-0.7847519833004339,0.54,0.46,0.6832943139757877,Lift Up
0.6242244944816471,0.60546875,0.64013671875,6.681812160947525e-05,0.00812600923338932,0.5656924976984704,0.55688476562,0.57446289062,2.6252832397505896e-05,0.0050935229012708414,-0.5655962775707056,-0.5810546875,-0.55480957031,5.609252874035882e-05,0.00744530836416673,1.014720255988941,1.00068204687,1.02964983684,5.421924413641239e-05,0.00731992969064485,972.9921387344904,972.98688965617,972.99843588373,1.751787040550788e-05,0.01154622756007484,0.004160742459285591,-3.465318589888275e-05,-1.4682012199825245,0.53,0.47,0.15419402567225274,Lift Up
1.0183133211969317,0.68347167968,1.40234375,0.035628228001954206,0.18767887940484745,0.18689935857204548,-0.16320800781,0.34692382812,0.011990315003401352,0.10887635842467017,0.12514010342329546,-0.09765625,0.28393554687,0.010600649604476358,0.1023727877765999,1.0541603244663635,0.7584860846,1.45817437724,0.034246218617214524,0.18400287237437057,972.9365968952727,972.81952453396,973.09392020574,0.006975910712881072,0.2743956717799847,0.08304600532376434,-0.0010504391928225717,-0.9080274689597343,0.61,0.39,0.2573941491250075,Stairs down
0.9328022203917894,0.57983398437,1.41711425781,0.04885167957080144,0.2198577980531803,0.26680458470021057,-0.02270507812,0.46594238281,0.01386377298126701,0.1171231767364283,0.02470189144694738,-0.19140625,0.27355957031,0.011703167796587276,0.10761029949137396,0.9846235809611582,0.65304890513,1.44005605216,0.04655659187935269,0.21463113122552602,973.0290657144513,972.903813061,973.14495561664,0.004814729424451335,0.24114255563995357,0.06902208387240051,7.759029743589882e-05,-1.004190874966238,0.63,0.37,0.09677840939781912,Stairs down
1.000479764712558,0.60473632812,1.52233886718,0.0812267011724822,0.28334114534818405,0.23617624681732557,-0.0185546875,0.37890625,0.007745062230689248,0.08749287609595252,0.007219181503488372,-0.18176269531,0.20275878906,0.009622489761381739,0.09752230691258139,1.0347415060955818,0.66856207346,1.52593927126,0.07908857315614937,0.27958708586872577,973.0892220336905,972.98918059327,973.17653155747,0.002036537486615757,0.18735096419993624,0.04486487287585619,0.0012343532017809777,-0.6091332342479951,0.48,0.52,0.037126029233494416,Stairs down
0.9618661614867087,0.57434082031,1.35437011718,0.06612869119679081,0.25552224786958394,0.3096073971478482,0.12390136718,0.66174316406,0.017039151663376127,0.12970530520870285,-0.08617236946113924,-0.29321289062,0.04064941406,0.009282926630905746,0.09573620647651825,1.0246528572996203,0.59834224002,1.45236556912,0.07073129166164582,0.2642649406482105,973.1894822514706,973.06590661061,973.29923552616,0.0033276448690201057,0.23332891555003243,0.05731947995289633,0.0015770811482507772,-0.22769575322917657,0.42,0.58,-0.05044760160131003,Stairs down
0.9576465336933333,0.50341796875,1.42541503906,0.0713823838864497,0.2658220263743742,0.3021412859017172,0.13757324218,0.54858398437,0.009818984540673188,0.09858906064389794,-0.04855315853767676,-0.29077148437,0.14501953125,0.011824885905396751,0.10819169382823733,1.014559513759899,0.52659272296,1.47130217896,0.07423912776127227,0.2710889846191938,973.2812141045367,973.1806617068,973.396076355,0.0031986378633485617,0.21541464819995326,0.05627013763961667,0.000925205477068312,-0.22432623066461055,0.52,0.48,0.4910094550395028,Stairs down
0.9275607638841112,0.53051757812,1.40454101562,0.058261573976859424,0.24002962974369293,0.3301242404477778,0.10559082031,0.59753417968,0.01464559709668904,0.12034478900251212,-0.06628282334911109,-0.3818359375,0.05993652343,0.009333670639609194,0.09607269741220958,0.9976262595497777,0.63303363138,1.50082172297,0.0604853578741544,0.2445675741839448,973.3606473117198,973.29008594076,973.46125464924,0.001964621643324461,0.1711687084799678,0.04407712007327826,0.0009953481706161192,-0.08065402256759135,0.54,0.46,0.6511063081525259,Stairs down
0.9379441594463855,0.56140136718,1.28991699218,0.03764742597508993,0.1928570520608643,0.414133094876024,0.19348144531,0.72485351562,0.017274315444385974,0.13063763302327355,-0.08253717996819276,-0.2314453125,0.07556152343,0.009038619926571366,0.09449720044166107,1.0389913323633735,0.69826410432,1.47962822115,0.04225369915715541,0.20431499808975992,973.399117230166,973.33919010988,973.49284484561,0.0023430201574254606,0.1536547357300151,0.04811227492960879,0.0009157059832394848,-1.073099123875043,0.59,0.41,0.5989799203250343,Stairs down
0.8847110145935526,0.64880371093,1.10656738281,0.019200117744953536,0.1376498623927044,0.4890217028128946,0.32336425781,0.73583984375,0.011091730727993904,0.10462211478757999,-0.0420998021169737,-0.25915527343,0.06726074218,0.006692684080486154,0.08126882826673569,1.0193570418135525,0.80646801226,1.334000572,0.021317811293187352,0.14504245508185432,973.4418398851527,973.36737053248,973.56088597061,0.0021968450808183882,0.1935154381300208,0.04656113426981596,0.0006431531835152628,0.42414579551179044,0.53,0.47,0.7708591632130758,Stairs down
0.8761033278212821,0.67980957031,1.11315917968,0.01462254371040132,0.12014605778507095,0.4452279897797436,0.29504394531,0.65380859375,0.010554400863490316,0.10207393414533951,-0.07080547626051281,-0.21472167968,0.09509277343,0.006907660636434802,0.08257784742099807,0.9930826875699997,0.78937092031,1.22704430247,0.017598349630704523,0.13180565148598222,973.4410590103178,973.36312344741,973.55555350767,0.0022135507406580456,0.1924300602599942,0.04674582211287532,0.0006539718017299034,0.671316861115899,0.58,0.42,0.6891820624893658,Stairs down
0.9123693847618,0.60668945312,1.10949707031,0.01907099968701955,0.137405566445284,0.36762695312069993,0.22399902343,0.60974121093,0.009214334415672014,0.09551016213741496,-0.1304687499963,-0.26965332031,-0.05126953125,0.0028942510335676483,0.05352857669723689,0.9983248433797998,0.68888446817,1.18906694479,0.018994810113702448,0.1371308207973883,973.4277616282509,973.33083959281,973.58469001564,0.004725124060836278,0.2538504228300553,0.06839497657158686,-0.00015538584443582944,-0.25305825833087736,0.52,0.48,0.6654669804198587,Stairs down
0.9659285111819319,0.59643554687,1.46630859375,0.0738423920335962,0.27019118035625317,0.4048101251743182,0.16296386718,0.68469238281,0.016520911646714858,0.12780130677878776,-0.07003506747159091,-0.33654785156,0.13562011718,0.012866770990130519,0.11278544978597412,1.0642671453990908,0.6986967941,1.49012222967,0.07200472116610108,0.2668079565873261,973.4712472457645,973.36074861579,973.57164016205,0.0035252899543130097,0.21089154625997253,0.05903583522908621,-0.000488457794136386,-0.7045229785309726,0.43,0.57,-0.19099447839453176,Stairs down
0.9444475871728049,0.62182617187,1.36108398437,0.03219045761240571,0.17831963171831883,0.2339284012912195,0.00134277343,0.40783691406,0.014246902060827595,0.11863034752022233,0.005610768388414634,-0.19763183593,0.14929199218,0.008144146661571443,0.0896929640487199,0.9842459525885368,0.67602523632,1.37809809703,0.03230496862044741,0.17863651807088812,973.5287012914519,973.4258040182,973.65818681663,0.006975146096347737,0.2323827984299669,0.0830065258824582,0.0006518867624085736,-1.5072514246916628,0.57,0.43,0.2812664926243631,Stairs down
0.9119475289629214,0.58862304687,1.28576660156,0.05755271687286536,0.238549904910316,0.20225130573797753,-0.13562011718,0.44677734375,0.021763015165312042,0.1466918092635974,-0.12230210893258428,-0.34191894531,0.01062011718,0.009552273237192812,0.09718510340795736,0.9581042559064046,0.62315889027,1.34046639635,0.05806988590944755,0.2396193132476001,973.5379954943384,973.41870854542,973.64261512235,0.004719963307685205,0.22390657692994864,0.06831493257036295,0.000390567439872994,-1.3730447090516398,0.53,0.47,0.170638852180819,Stairs down
1.0057093302365625,0.60729980468,1.45922851562,0.060875873026230175,0.24544194700350958,0.1681887308715625,0.00390625,0.29895019531,0.007616899396098183,0.08681910327834245,-0.060745239255,-0.29223632812,0.06896972656,0.007057272524870719,0.08356888936322725,1.0295817474126043,0.61071363772,1.47169893552,0.058765319664746754,0.24114970644443873,973.6626384890042,973.53347312654,973.79647942885,0.007096728769605533,0.26300630231003197,0.08380217486192593,0.0025245052981429186,-1.3813372267499988,0.46,0.54,-0.04873459926897386,Stairs down
1.0539834665649999,0.67517089843,1.50402832031,0.07010627342530806,0.26323199691419047,0.23727913789639532,-0.00207519531,0.58093261718,0.019606470751711704,0.13920663968959435,-0.0008275231647674418,-0.357421875,0.1923828125,0.012206359260194869,0.10983817574137238,1.0954957774453487,0.69985078771,1.54591587464,0.06860394129898341,0.2603962769536477,973.7318651909129,973.66400181644,973.89244399242,0.003210712617506184,0.22844217598003524,0.05633275024229478,0.00031068333007623156,1.9355603028222426,0.55,0.45,1.4175562351980933,Stairs down
0.9571486252964103,0.53930664062,1.41223144531,0.05370100227378687,0.23024449588570278,0.17461688701884617,-0.20056152343,0.40466308593,0.031128853439227475,0.17529907465420916,-0.04351963140846154,-0.23205566406,0.15869140625,0.009014894723168531,0.09433620275267908,0.9944759561974359,0.61480501724,1.44872905961,0.05285532397164492,0.22842436738017705,973.7771986356568,973.69844755152,973.90656108688,0.0031384392854157937,0.20811353535998478,0.05566150271346183,0.0008731011371550766,0.01483399263279006,0.47,0.53,0.6580454660742816,Stairs down
0.9131476151270527,0.59191894531,1.31433105468,0.03449727749369813,0.18475429157917378,0.4428877981048418,0.21057128906,0.68542480468,0.016118074861625958,0.12628701800151157,-0.10371736225105267,-0.275390625,0.02697753906,0.007730852025740129,0.08746127506499946,1.0327367433522103,0.7522297437,1.40614649603,0.03227201814944704,0.17869614627977384,973.8611155064634,973.7905177105,973.90553104975,0.0012927102144314417,0.11501333925002655,0.03576454583089317,8.662212385744977e-05,-0.7937552853867325,0.46,0.54,-0.5740316336293291,Stairs down
0.9239081926203226,0.61267089843,1.15100097656,0.022022693537825502,0.1476004416711034,0.39335911247924715,0.18762207031,0.64489746093,0.01190932488302108,0.10854154792619461,-0.04568317372172042,-0.23413085937,0.08386230468,0.00769837699382484,0.08726739795925745,1.0145070194066668,0.72717347656,1.32612046828,0.022626249457565507,0.14960934614069218,973.8373837216208,973.77181460228,973.92673831027,0.0015486167916488893,0.15492370799006494,0.03914032445177606,0.0007805741417189745,-0.4664122889565747,0.53,0.47,0.17967258121015597,Stairs down
0.9329267229319046,0.70520019531,1.21606445312,0.025635367576654595,0.159154593491088,0.41166178385047625,0.2841796875,0.65380859375,0.01131297857417123,0.1057274810908311,-0.017188662575,-0.1796875,0.14611816406,0.00725209191447556,0.08465079732006238,1.0284157421516669,0.80444721226,1.34635233064,0.025222534201582568,0.15786787493748694,973.8598349907519,973.73409501853,973.95637332572,0.002476684682846178,0.2222783071900949,0.04946918577643788,-0.00036648700208286684,0.32127511926656194,0.51,0.49,-0.2557119209908052,Stairs down
0.9143549009787209,0.63049316406,1.13586425781,0.014916254940919254,0.12141997412297881,0.3147341705996511,0.19152832031,0.55078125,0.009121194681639556,0.09494806095105196,-0.0361782340110465,-0.21826171875,0.05139160156,0.004858738200071792,0.06929820520227782,0.9740576113256979,0.68942808586,1.23498710111,0.01637369495922872,0.12721361231164385,973.8701368917892,973.7470949888,974.05418160192,0.004594828908281712,0.30708661312007735,0.06738991515918503,-0.0005035682660573023,1.2132930990711346,0.65,0.35,1.2040125466097231,Stairs down
0.8906773158451021,0.56396484375,1.29211425781,0.057976805979840715,0.23955209437369135,0.386382433830102,0.18615722656,0.7958984375,0.022911636811181184,0.150591648502904,-0.007720324458061224,-0.30261230468,0.14953613281,0.010671864483472885,0.1027763003182685,0.9842571667604082,0.6241535654,1.4753485892,0.06518608174388234,0.2540096802180085,973.9061706766914,973.84385328721,973.99548529007,0.001739104424452278,0.15163200285996936,0.041489257175050254,0.0005958276535899139,-0.46896983439596696,0.57,0.43,0.5033260921219661,Stairs down
0.9819532372455169,0.66650390625,1.41223144531,0.04892849363360536,0.21992293458177156,0.2675865436391954,0.06652832031,0.56494140625,0.01558448297788827,0.12411829433905656,-0.0011337104874712643,-0.2353515625,0.16955566406,0.00930666920284611,0.0959150457103472,1.0277543535224134,0.68377030408,1.49876986667,0.053138929013436705,0.22919017589313453,973.967447399456,973.89090512542,974.09524667842,0.003009466895696197,0.20434155300006296,0.05454241764152418,0.0004122680273797787,-0.4564394139445227,0.6,0.4,0.5568832673960576,Stairs down
0.9885315713964556,0.49792480468,1.52612304687,0.07979141936085328,0.28068024760260596,0.30230790149936715,0.02038574218,0.79223632812,0.03295762908526565,0.18038970011331343,-0.01569607891670886,-0.21691894531,0.16821289062,0.011423280073166672,0.1062011374290683,1.0544432708344302,0.64602093638,1.53995987828,0.08060128678708062,0.2821010764497002,974.0568904113176,973.93635964381,974.17145914817,0.004499980681811017,0.23509950436005056,0.06665597423358689,0.0004928078018477138,-0.9140805115958472,0.53,0.47,0.296638109641558,Stairs down
0.9867375071418293,0.64477539062,1.45739746093,0.06176103830780311,0.24699768200087527,0.3249035346765854,0.12634277343,0.68505859375,0.01409427904652382,0.11799320995183132,-0.07132776771999999,-0.43603515625,0.10913085937,0.012757589006607523,0.11225866849766394,1.0504315345940245,0.68756313467,1.66836425684,0.06927149187850229,0.2615850102496338,974.155335281198,974.0043901195,974.41390797282,0.013228456952982436,0.40951785331992596,0.11431156681287488,0.004005788725284014,0.38261017431907796,0.61,0.39,0.9725495011731438,Stairs down
0.9576789700217347,0.60278320312,1.55651855468,0.06561907769756062,0.25485190851173806,0.3180579360611224,0.04211425781,0.52233886718,0.01590121505313516,0.1254550029160838,-0.017504633689285714,-0.30578613281,0.12341308593,0.011544337818994301,0.10689498797181446,1.02503051198051,0.64864497714,1.5995979821,0.060662720862356766,0.24503818785368625,974.22099181401,974.10117816478,974.39528080595,0.005435547172612678,0.29410264117007046,0.073349045021358,0.0014067471044517988,0.3794151494784872,0.57,0.43,0.8125279551874652,Stairs down
0.9441661615449424,0.45568847656,1.74450683593,0.09009076216728143,0.2984212394675665,0.311905082611954,-0.02368164062,0.64074707031,0.031172281712909717,0.1755391113805,-0.10575919315494253,-0.34643554687,0.07666015625,0.00980774269560903,0.09846324197865343,1.0167467125574716,0.609637534,1.83208442318,0.09682278195456528,0.30937012851091106,974.2760186562675,974.18141563561,974.39468616231,0.003500791103912014,0.21327052669994373,0.05882645770149796,0.0005046856294507525,-0.9849972878247182,0.49,0.51,0.06619474839400954,Stairs down
-0.42391187090906973,-0.90930175781,0.39514160156,0.09981591149622202,0.3140943510516307,0.40539550780930206,0.14196777343,0.66784667968,0.01513991426025898,0.12232689297781091,0.7788142714349999,0.38061523437,1.11389160156,0.0317586540850154,0.17717044733704393,1.0359166472059302,0.77068201182,1.35076229022,0.02274817263361016,0.14994552010092074,974.2452448874056,973.93121307702,974.61352764281,0.05295788403480897,0.6823145657900795,0.22878394761339135,-0.007868176972226776,-1.3304728565023236,0.55,0.45,0.26372968585406675,Stairs up
0.2946436682376744,0.02111816406,0.57727050781,0.020304731639311728,0.14166379251107905,0.21982450263023262,0.04809570312,0.46472167968,0.017276181831062783,0.130672476045332,0.9199885878423253,0.54907226562,1.28967285156,0.04096489186041024,0.20121768289229702,1.0062331845286046,0.67437967035,1.39336944182,0.045405511668726466,0.21184319815092256,974.216151249066,974.14361112788,974.24138113454,0.00045705947498765766,0.09777000665997093,0.02125428968301838,0.00036871618043247246,0.9857655938113101,0.37,0.63,-1.0901791187419032,Stairs up
0.4361668954939603,0.25439453125,0.65063476562,0.010032332445171863,0.0996644491328891,0.2882007561072277,0.09326171875,0.4853515625,0.007466749495748373,0.08598151710059077,0.862171739632079,0.64770507812,1.19934082031,0.022760924130528055,0.150118514667803,1.0146858915972277,0.77767423572,1.38350098383,0.02718443149875987,0.1640587660310885,974.1916160926626,974.13709745569,974.23677678546,0.0005867771844473556,0.09967932977008331,0.024103267607397495,-0.0006246146347369943,-0.272931618466032,0.49,0.51,-0.0886877738789924,Stairs up
0.4139743381047778,0.20861816406,0.62316894531,0.012897406410525487,0.11293405994142325,0.3619371202213333,0.1630859375,0.66137695312,0.013302752641567769,0.11469500546616528,0.8607991536414442,0.61547851562,1.13073730468,0.024662069055472326,0.15616672522008995,1.0304806151477777,0.77331465891,1.31528729841,0.03211200865862388,0.1781999117912715,974.114021391081,974.05409688562,974.1629427034,0.0007077936690377123,0.10884581777997937,0.026456176876814484,-0.00085693647605681,-0.4527540215879786,0.63,0.37,0.06046803503629979,Stairs up
0.3841703438438272,0.00231933593,0.693359375,0.03559411592162609,0.18749581966467807,0.6259253231067902,0.28967285156,0.93920898437,0.03457658919098633,0.1847964223665942,0.49311131606629627,-0.61877441406,0.97094726562,0.1905184168115908,0.43378143988844725,1.0030842305207406,0.73977052755,1.34124444642,0.034243658629552046,0.1839045877946041,974.0829139793833,974.02949160716,974.26952132594,0.0037153963652547077,0.24002971877996515,0.060576623167073594,0.0014751536699232801,2.8807020875469327,0.78,0.22,1.9969315978064457,Stairs up
0.7063591925615383,0.13879394531,1.20495605468,0.13975283913264525,0.3717755958204776,0.3671499399007691,0.02868652343,0.81457519531,0.055311360522134596,0.23388788633347327,-0.3029624184392308,-0.70446777343,0.15393066406,0.0701888770545603,0.26347214409364306,0.9815120029449451,0.76036190571,1.26673158494,0.024773243528115503,0.15652798498272313,973.9185348581016,973.78341563753,974.35038045316,0.02004631381938847,0.5669648156300582,0.14080491701832734,-0.0037719859403080214,3.0802919540385076,0.58,0.42,1.79682363318473,Stairs up
0.6251519650787755,0.00671386718,1.19348144531,0.10782090783787136,0.32668133477838457,0.4469928352170408,0.06433105468,1.10681152343,0.06879881694133705,0.2609536131135909,0.2280485192128571,-0.17419433593,1.15759277343,0.15907684491307675,0.3968042487193387,0.9640863045873469,0.61823445863,1.39377794836,0.045900768279557594,0.21314875813157227,973.8599857846882,973.76659275609,973.96315653089,0.003758856923929219,0.19656377480009724,0.06099591167473425,0.0005392414668108094,-1.1047148517568504,0.52,0.48,0.028503311607223143,Stairs up
0.9088620272512501,0.66064453125,1.26965332031,0.027046977288460804,0.1635225527987476,0.3133142644671591,-0.03649902343,0.69812011718,0.04011605824546011,0.19914867297377667,-0.07128490100943181,-0.27111816406,0.09045410156,0.010526366428286601,0.10201347277671298,0.9870662327895453,0.7049217579,1.34437669511,0.032149707530987524,0.17828171511797872,973.843994574024,973.75392169597,973.97919227364,0.0022456326707408483,0.2252705776700168,0.047118086948264866,-0.0007161456336386248,1.4223644628724257,0.59,0.41,0.5754899791453304,Stairs up
0.9600074404725001,0.69396972656,1.24206542968,0.024302762281475803,0.1549627170737749,0.3988909040134523,0.15319824218,0.69995117187,0.018886267985075617,0.13660684997994704,-0.005203973678333333,-0.11975097656,0.07434082031,0.002047997920957867,0.0449846306345558,1.0491110823523808,0.76427415478,1.3253809406,0.025118782560948127,0.15754284952108286,973.8523480863897,973.81965615825,973.88733800338,0.0004671176864683989,0.06768184512998232,0.021483872128401096,-9.600012808161971e-05,-1.2597193607773405,0.51,0.49,0.2383500549262374,Stairs up
0.9228938640899008,0.71838378906,1.17260742187,0.020003657769188412,0.14073237634486138,0.3602186146299009,0.15051269531,0.58923339843,0.011624690919575475,0.10728278039777263,-0.014293104114752476,-0.13098144531,0.087890625,0.003118877440013008,0.05556975315186684,0.9963708552199999,0.77885800387,1.25881811778,0.02357657198760767,0.15278462154873368,973.8457696899834,973.79927396602,973.91417315592,0.0007848283320601039,0.11489918990002934,0.02787575567612391,-0.0002743214012745643,0.4177763734899105,0.64,0.36,1.0774853029140616,Stairs up
1.0005692191703262,0.76489257812,1.25219726562,0.016178583796719853,0.12650189573684806,0.23708443019445646,-0.0244140625,0.4580078125,0.015599019658221065,0.12421539798559059,0.05285246475739129,-0.07348632812,0.25939941406,0.005254482977466603,0.0720927807208139,1.0389218498882606,0.79185932517,1.30787750114,0.017603468047753253,0.13195501507618396,973.8376194854665,973.78874546655,973.91227379658,0.0010585275502468844,0.12352833003001251,0.03235771648316782,-3.704634020090349e-05,-0.1367226502011447,0.64,0.36,0.7109339994320707,Stairs up
0.9222173923356097,0.55908203125,1.2021484375,0.03676295370170151,0.1905639656336481,0.40588825504487797,0.17028808593,0.75109863281,0.025525395680910692,0.15878951592510399,0.10351562499756099,-0.06481933593,0.31176757812,0.0095288495955635,0.09701878226761443,1.026428804862073,0.61207424128,1.42159357534,0.04386591716704928,0.2081609160185817,973.7935075434546,973.72872256235,973.87633775581,0.0012601557079922514,0.14761519346006935,0.0352815526225216,-0.00029309642822377975,0.14599659794600228,0.66,0.34,0.8105354940135494,Stairs up
0.9174864233959755,0.60571289062,1.25024414062,0.03109022345936258,0.17524575427891254,0.4231388743292682,0.25366210937,0.68041992187,0.010873123220386412,0.10363650011807213,0.10993175971402441,0.03735351562,0.20947265625,0.002005664690610777,0.044510733145113696,1.0225684481557318,0.71415247611,1.35631573842,0.03107841367220902,0.17521246710044916,973.7180882129522,973.68264298193,973.77076277415,0.0005272821287845038,0.0881197922199135,0.022822179101069165,-0.0006732573870934023,0.11077190713683294,0.52,0.48,0.7811370001096409,Stairs up
0.9062185759558415,0.68688964843,1.162109375,0.018979389862540753,0.13708200141311946,0.46193340036831676,0.35083007812,0.71484375,0.008537113289019696,0.0919379541586117,-0.0019772973384158416,-0.17883300781,0.12951660156,0.0055107069070073934,0.07386572583060812,1.0225902280537622,0.8007814919,1.3124746252,0.021844196121558662,0.14706432929857016,973.6464031591395,973.61912020359,973.68205172105,0.00040104100438165496,0.06293151746001513,0.019926622929336904,-0.0003897551148844733,-1.1771247403837208,0.5,0.5,0.2366511849270046,Stairs up
0.8880923763693406,0.63757324218,1.20068359375,0.02685482223643715,0.16297151376781466,0.47453157193945045,0.35192871093,0.79235839843,0.01157935742427711,0.10701453984527544,0.020950485060000003,-0.1162109375,0.10302734375,0.003053834586597315,0.05495703744532246,1.013017584214176,0.73273972798,1.29082780819,0.029478621529268553,0.17074741764765441,973.5838459773651,973.54860389103,973.63777867038,0.0005139907816823393,0.08917477935005991,0.022546452743928073,-0.0005796865571340906,-0.32945543420937673,0.51,0.49,0.3593719189261182,Stairs up
0.8772434141546341,0.61694335937,1.19006347656,0.029969430867484173,0.17205798442166687,0.46713033536134146,0.24157714843,0.78308105468,0.025695846422641118,0.15931880755854658,0.08219649151878049,-0.10278320312,0.26745605468,0.012150105271019042,0.10955333520947141,1.0154625366663415,0.72182992654,1.27622630736,0.030721880517734133,0.17420454482661918,973.5317195344256,973.44196832567,973.70414062507,0.005100774549838293,0.2621722993999356,0.07098288513548416,-0.001026969739129239,0.7117958918906635,0.48,0.52,1.0372647058049747,Stairs up
0.847560337607551,0.46911621093,1.18273925781,0.036125346634303376,0.18909447545668553,0.4619439572658162,0.27380371093,0.76989746093,0.019819783814335516,0.14006263285527837,0.028193259724795923,-0.08117675781,0.11608886718,0.002991639129089846,0.0544161023889177,0.9747546923104082,0.55767723067,1.31062166026,0.04115421014177624,0.20182732526088284,973.4279254616912,973.3882453128,973.50635806669,0.0007585733930482953,0.1181127538900455,0.027401329314857552,0.00012813586306634707,1.0225404280696662,0.67,0.33,1.2318022876502916,Stairs up
0.9089689555883156,0.6357421875,1.17065429687,0.027145890619294382,0.16389064769610612,0.3623291015585262,0.08630371093,0.67211914062,0.020192476219372892,0.14135035846476066,-0.017120682563894738,-0.14001464843,0.05810546875,0.00196110947582688,0.04405072324249168,0.9886768796270528,0.73897997776,1.27461944328,0.029408179767664924,0.17058317613597443,973.4195274494876,973.3675724254,973.48892641609,0.0007576386267342486,0.12135399068995412,0.02737998325958109,4.8015660047728e-05,-0.18930333929589294,0.49,0.51,0.23649132251038166,Stairs up
0.9445154526609411,0.65991210937,1.28662109375,0.03133073186172789,0.1759606064330758,0.28590590532682353,-0.01220703125,0.52673339843,0.020956787024434913,0.14391051590781448,-0.01950252757235294,-0.08703613281,0.06091308593,0.0014284876295525158,0.03757235543234215,0.9952284806458824,0.69296194157,1.35995397077,0.037274827795856676,0.1919278520955806,973.4046665560207,973.34211342661,973.51573035022,0.002170831521163192,0.17361692360998404,0.04631730051283824,0.0007440729340923236,0.9905541521440102,0.65,0.35,1.1906339007692408,Stairs up
0.9316786728853246,0.72497558593,1.17834472656,0.02392748675030346,0.1536773899086352,0.3176856102844156,0.17492675781,0.5634765625,0.011318058407081952,0.10569328566924867,-0.0700651887148052,-0.18103027343,0.02172851562,0.003287542012748227,0.05696355555908808,0.9890320493815586,0.76051247768,1.30615558944,0.03051852093706044,0.17355741559871882,973.4140144225481,973.35922166084,973.4704198988,0.0007675522120242149,0.11119823795991124,0.027524243885680963,-7.447771353723173e-06,0.18992553360121223,0.61,0.39,0.13756177593553737,Stairs up
0.9997811152982756,0.7197265625,1.30444335937,0.029665637895732223,0.17124442633879539,0.2260756218536782,-0.01574707031,0.47985839843,0.01659869437061125,0.12809334401187464,0.038367962014367825,-0.12182617187,0.22045898437,0.00832656175202786,0.09072405494510655,1.035407701676667,0.75353007245,1.32574216035,0.02965419752378873,0.1712114034715203,973.3967038408504,973.28825190757,973.58408448932,0.003668802853942171,0.2958325817500054,0.06022153025451703,-4.59032665653313e-05,1.5839699872967152,0.3,0.7,0.3426237296037018,Stairs up
0.9551379394493,0.71740722656,1.19116210937,0.0248687208588025,0.15690772336062517,0.3255371093708,0.20703125,0.5673828125,0.008794862814517948,0.09331084709921333,-0.0178662109371,-0.14489746093,0.14819335937,0.005919780248958047,0.07655444106300081,1.0146399521402,0.77036168945,1.27990752926,0.028561002271122685,0.16815288355663563,973.366216254694,973.27739095528,973.47336276079,0.0035967317315260513,0.19597180550999838,0.05967214102251394,-0.0016932769003308876,-0.948420673732969,0.47,0.53,0.18928130774971388,Stairs up
0.9242409695364044,0.63488769531,1.2744140625,0.03563186475692995,0.1877005773191793,0.307319555385618,0.13171386718,0.63415527343,0.013858199781762143,0.11705763397512656,0.02059833655179775,-0.10437011718,0.19409179687,0.004701070665946902,0.06817807306772755,0.9837399194758427,0.70106006038,1.31829365319,0.03887253901480125,0.19605042441553486,973.2904164275623,973.21634113796,973.3576327368,0.00157510880245222,0.14129159884009823,0.03946404630469706,-0.0008496933067322773,-0.7820275844852831,0.56,0.44,0.3121207686107726,Stairs up
0.925302010991605,0.65014648437,1.21740722656,0.02331825411985492,0.15175761740144342,0.3947799117439506,0.19506835937,0.671875,0.01665268482436557,0.12824623239234045,0.0003707320598765432,-0.12255859375,0.14587402343,0.0035183252556338753,0.058948190314604146,1.0149326891333335,0.69539724326,1.26828882898,0.025210362985700684,0.15779456244273599,973.20003767628,973.15760174401,973.24749906955,0.0005377653699765233,0.08989732554005059,0.02304617736924798,-0.0008425505561506381,-0.8831957921856426,0.63,0.37,0.41701490792788276,Stairs up
0.9096776376811881,0.66955566406,1.18395996093,0.01940493067577394,0.1386102544881912,0.40974773746425724,0.228515625,0.59533691406,0.00860630763648375,0.09230978642476588,-0.040423402689802004,-0.17834472656,0.08630371093,0.003614686842364873,0.05982389040949775,1.0048126967065345,0.76286219335,1.28889452099,0.018891955121789896,0.13676588047162244,973.1319076060303,973.07828867453,973.18314545579,0.001182966391201727,0.10485678126008224,0.03422358620418055,-0.0010066994640819354,-1.3634146075608005,0.58,0.42,0.13747188478735625,Stairs up
0.4694548576067742,0.09265136718,1.18395996093,0.09206436125129802,0.30178539043996894,0.6759860131005374,0.35717773437,1.04614257812,0.03287494900458571,0.1803370592231879,-0.4464898878494622,-0.90234375,-0.00036621093,0.07652497539209838,0.275140193709196,1.024371441408387,0.65934746761,1.28889452099,0.026949101509798356,0.16327683921716135,973.0983360584986,972.92026638856,973.50923088074,0.016726177605260562,0.5889644921800254,0.12863252400991354,-0.0016648919402830714,1.7715026423013605,0.6,0.4,1.2343742214539362,Stairs up
0.9562072753861905,0.48669433593,1.29858398437,0.05753494740799502,0.23843239620047407,0.23505074636964288,-0.08728027343,0.48657226562,0.019726890198203416,0.13961391860152203,-0.11854771205083332,-0.37316894531,0.06176757812,0.01140121492340081,0.10613899459818105,1.007230150422738,0.53919613605,1.37848782337,0.057413221718750664,0.23818003901251597,972.9291325813634,972.83821871469,973.09379293466,0.0029040605623665687,0.255574219969958,0.05356760600227142,0.00034664071254571856,1.3775376028908193,0.49,0.51,0.4946336039714643,Stairs up
0.968159754132588,0.63659667968,1.35363769531,0.03380275654216148,0.1827705584973416,0.2887307559716471,0.07006835937,0.70764160156,0.02537747884519882,0.15836325416759223,0.01953555836364706,-0.26196289062,0.23767089843,0.015724181931742912,0.12465629368818627,1.0289405482462355,0.72130803306,1.43973949384,0.03681808803805967,0.19074835270885387,972.9334503715949,972.83961810414,973.09554038611,0.003790111237414347,0.2559222819700153,0.06120066742646494,-0.0011516088762026306,1.3287852782613552,0.62,0.38,0.8474429583305447,Stairs up
0.9514051380677226,0.662109375,1.28308105468,0.031938836305897285,0.17782747314140945,0.3794489190100989,0.19848632812,0.6572265625,0.01691749884949894,0.12942178665468207,0.02814022857297029,-0.08178710937,0.1220703125,0.0029340680220927007,0.05389821744414317,1.0302867544952472,0.70138158823,1.39788705765,0.04012924098430441,0.1993286777326284,972.9412086659255,972.89441781256,973.03243327102,0.0011420366023390672,0.13801545845990404,0.03362631869899827,-0.0003950314430349662,1.7558293225338915,0.72,0.28,1.4583143556123954,Stairs up
0.9271871159544944,0.70886230468,1.16101074218,0.018950235136641666,0.13688429839226382,0.3283636543151685,-0.01879882812,0.61474609375,0.029298987547616652,0.17020512753833258,-0.029741265799101125,-0.11071777343,0.10437011718,0.002625473265728482,0.05095069740556605,0.9988186280560675,0.7397196447,1.27323957672,0.026230313969134587,0.1610453083460301,972.9289922587618,972.85057316942,972.98824875088,0.00111951581572351,0.13767558145991643,0.03327066254725562,-0.00013125587377219445,0.688252669784875,0.37,0.63,-0.844945168112573,Stairs up
0.9568835599887654,0.689453125,1.25463867187,0.028555056719421747,0.16793607460871665,0.29329728491111107,-0.01049804687,0.52697753906,0.01739129597004807,0.1310594850149853,-0.06863064235765431,-0.36828613281,0.03967285156,0.009312359988475015,0.09590303739303511,1.015812069886296,0.74166503385,1.31216626806,0.02942522924009684,0.17047567217944593,972.9349073228167,972.86025124663,973.00413766828,0.0015174622805630268,0.1438864216499951,0.03871341083311897,-0.00028927412013563685,-0.7976692593483592,0.46,0.54,-0.11739183065170587,Stairs up
0.9452460260631684,0.69665527343,1.24279785156,0.024327975668111942,0.1552002081889487,0.3395742284153465,0.18664550781,0.55578613281,0.009268020187916634,0.09579278475855395,-0.016814279083960396,-0.14636230468,0.08032226562,0.004940560654283469,0.06994029033512694,1.0107252222475247,0.73403523072,1.33240096143,0.02592968751252763,0.16022783133150018,972.8990434303835,972.8597335641,972.93447135276,0.0003470420068750324,0.07473778866005887,0.01853661100096299,-0.0002080074187732449,-0.2184810334351739,0.6,0.4,0.30951232244238175,Stairs up
0.8972561743916129,0.63439941406,1.20935058593,0.022960584824783865,0.15071063935872353,0.34087806619279576,-0.02697753906,0.70593261718,0.03039194889402795,0.17339306140855176,-0.046601982525698936,-0.1787109375,0.07788085937,0.005734641719228514,0.07531918019364829,0.9789894585873121,0.72516980566,1.23409597647,0.023724818284354326,0.15319827907455189,972.8270080736249,972.78294683562,972.90173393206,0.001365526615695454,0.11878709643997354,0.036753823390312135,-0.0010655149541552258,-1.1573294498384858,0.52,0.48,0.4337776423824822,Stairs up
0.9161638532340475,0.71691894531,1.19396972656,0.021274991808068845,0.14498868264822612,0.41454206193809523,0.23852539062,0.60437011718,0.008784588124794818,0.0931665696198896,-0.020622616721666667,-0.18127441406,0.15368652343,0.0069881100789559,0.08309583799626587,1.0144507454178575,0.81356365932,1.26733610667,0.019353347606589823,0.13828575708030555,972.7712960948259,972.72685296448,972.80078638743,0.0004322548001644547,0.07393342294994909,0.020666613406320505,-0.0005994717986408201,-0.9515960788291244,0.4,0.6,-0.4424047475931164,Stairs up
0.9466838093510388,0.69897460937,1.2421875,0.027719630574227282,0.16540748281732778,0.35814478489883117,0.18603515625,0.533203125,0.01004416015840908,0.09956764795850197,-0.07466739802831168,-0.20324707031,0.01989746093,0.003164240969289529,0.055885122624248815,1.020491331012338,0.7657145331,1.33184343843,0.029429282794700688,0.17043205190587665,972.7092414995963,972.65883248508,972.76238811876,0.0008397892464679803,0.10355563368000276,0.028790326372199165,-0.001040078493974079,-1.2137672516856661,0.52,0.48,0.327248467903359,Stairs up
0.9197710822561764,0.59802246093,1.18383789062,0.026956936857892803,0.1633788638814935,0.38625081379823517,0.15612792968,0.70837402343,0.015024096093312095,0.12197049247081747,-0.014702292046568628,-0.14880371093,0.22717285156,0.006437872769824246,0.0798420714292915,1.0073321300357843,0.70065514908,1.38759088089,0.02889415873951021,0.16914751749120227,972.6263420431101,972.59853642048,972.65883248508,0.0003356927870664763,0.060296064600038335,0.018231886389261057,-0.00028841249099362086,-1.1900619576331177,0.44,0.56,0.049655501029362746,Stairs up
0.9267210601448386,0.69299316406,1.26977539062,0.027224229660064447,0.16410818385383982,0.31627892934731183,0.13879394531,0.47399902343,0.010223824988746218,0.10056784469559188,0.08576817666096774,-0.01623535156,0.2724609375,0.006232949064936013,0.07852342393992082,0.9889286270158062,0.73006329018,1.37457637329,0.03177360240099804,0.1772905828358563,972.5655749221697,972.50233099763,972.65201283676,0.0009938956980863544,0.1496818391300394,0.0313561580486082,-0.0008208518392025913,0.5833528865002076,0.39,0.61,0.169459476444594,Stairs up
0.1523834938189535,0.12683105468,0.17114257812,0.00016227169660568917,0.0126643127098394,1.0030276276302323,0.97131347656,1.025390625,0.00013499288691048989,0.0115508961634573,-0.1906965388772093,-0.23718261718,-0.1484375,0.0005991586908668031,0.024334989816005598,1.0326822459752323,1.00786486201,1.05141213066,0.00010491950877355816,0.010183295855738137,972.4849364249825,972.47472323223,972.49892455236,3.553579508580786e-05,0.0242013201300324,0.0059264313179353935,9.37693430528059e-05,0.3179226471702945,0.57,0.43,0.6258061805181993,Lift down
0.14809292177164562,0.09802246093,0.17370605468,0.0005968078433832483,0.024274540443027327,0.9614196004716453,0.91638183593,1.00219726562,0.0009735065770374543,0.03100296290636895,-0.22385223001962026,-0.27478027343,-0.18713378906,0.000795924273694682,0.02803300345821725,0.9989891701369616,0.96199537988,1.03661123981,0.0007352132858906986,0.02694265741535053,972.4922522311616,972.48406460434,972.49858248141,1.5118740631456466e-05,0.014517877070034046,0.0038635947209518682,4.87605086629809e-05,-0.5677471331470652,0.41,0.59,-0.3999907722274178,Lift down
0.08884197732271741,0.04309082031,0.15405273437,0.0007281141418716763,0.02683653960034522,0.9697186013894565,0.9140625,1.01672363281,0.001049675065186308,0.03222212832213596,-0.2581959600001087,-0.2802734375,-0.240234375,7.579339124082638e-05,0.008658495829628087,1.0079716506904348,0.95781767316,1.05010401517,0.0007469216532811592,0.02718092970555897,972.5402604604517,972.49100804784,972.61799886386,0.0019092596940401732,0.1269908160199975,0.04345695423380321,0.0014897908073121383,-1.3681647564668065,0.61,0.39,0.5282862631814711,Lift down
0.10629052230680414,0.08386230468,0.12426757812,0.0001449654858117686,0.011977937897122249,0.9830875986597939,0.97180175781,1.00280761718,5.2153139252097856e-05,0.007184391277115604,-0.26018972494845355,-0.27233886718,-0.24328613281,5.464072424467638e-05,0.007353734956412575,1.0225741277401033,1.01430879549,1.04120399531,4.942140770001301e-05,0.006993704930261161,972.7355414438601,972.61799886386,972.85683316688,0.006950151473007859,0.23883430302009856,0.08293672544111189,0.002901933812095974,-1.5195477552938075,0.55,0.45,0.13791957161023152,Lift down
0.14817792519517245,0.115234375,0.16442871093,0.0001529464903828156,0.012295872671194651,0.9807605962610343,0.96545410156,0.98913574218,4.237278821942445e-05,0.006471919705672533,-0.24625651041310345,-0.26623535156,-0.21960449218,0.00019910226962305586,0.01402903196191056,1.0221771372088506,1.01054462215,1.03251873345,3.449827868901988e-05,0.005839670089145929,972.9738626270356,972.85683316688,973.11104684394,0.008039355527193873,0.25421367705996545,0.08914566249584906,0.003385590563208219,-1.6554732680053017,0.47,0.53,0.07691655957488011,Lift down
0.15107987566256098,0.12585449218,0.16284179687,0.00014515878681291798,0.011974496135764685,1.0143030678314635,0.98315429687,1.06311035156,0.000742148398220206,0.02707577899152688,-0.20138773103634144,-0.21960449218,-0.18347167968,0.00011046039426676574,0.010445731965157001,1.0452985452831707,1.01688363507,1.08668280486,0.0005359473069146153,0.02300894096101261,973.1987626762864,973.11104684394,973.28961466663,0.003316567044101618,0.1785678226899563,0.057237410009009,0.002406605104037948,-1.3238303312525805,0.5,0.5,0.04779263060774223,Lift down
