avg_accX,min_accX,max_accX,var_accX,std_accX,avg_accY,min_accY,max_accY,var_accY,std_accY,avg_accZ,min_accZ,max_accZ,var_accZ,std_accZ,avg_magnitude,min_magnitude,max_magnitude,var_magnitude,std_magnitude,avg_pressure,min_pressure,max_pressure,var_pressure,range_pressure,std_pressure,slope_pressure,kurtosis_pressure,Pressure_below_avg,Pressure_above_avg,skew_pressure,Label
-0.978034920523862,-1.02355957031,-0.93359375,0.0008500796268139352,0.029055412726340286,0.2985452586163448,0.23229980468,0.38024902343,0.002341632152536203,0.048223261661539785,-0.18766500538420688,-0.24426269531,-0.13757324218,0.0009872237698695843,0.031311584598633466,1.0412399351491723,0.97972289816,1.09691626832,0.001247066772227195,0.035191850075394965,970.1003498581135,969.89961338759,970.25201533693,0.014133645113797492,0.3524019493399919,0.11847435038530314,-0.0005961391965968824,-1.412202534956482,0.45,0.55,-0.26821036156473693,Lift up
-0.9971361292095393,-1.04956054687,-0.90576171875,0.0015071064727427764,0.03873191554292333,0.2013968893964977,0.0849609375,0.29821777343,0.0030355300803973167,0.0549685497581599,-0.22839130453949308,-0.3173828125,-0.02124023437,0.004405715394280548,0.0662224475413149,1.0462910115635946,0.96442934163,1.09902454767,0.001743946682733807,0.04166425400839486,969.8827003994078,969.73580023562,969.97543893742,0.002857266821471827,0.23963870180000413,0.05333010119306243,0.00010143943861124772,2.610512905288388,0.29,0.71,-1.382263526198334,Lift up
-0.985775083439953,-1.03979492187,-0.96130371093,0.0005527807190033657,0.023456033431937237,0.2258730606261033,0.19140625,0.283203125,0.0004771243985646386,0.021791842003697173,-0.1989195917652113,-0.25500488281,-0.16906738281,0.0005298357198496903,0.022964063843475165,1.0310624850477466,0.99647504203,1.08901230054,0.0008065151285913842,0.028332466757919398,969.7794197344878,969.66015103046,969.87265890827,0.0038485128901666692,0.21250787780991232,0.06189058696225205,-0.0009995058143789561,-1.2579923202128278,0.49,0.51,-0.18999248439649805,Lift up
-0.9753987238921635,-0.99243164062,-0.96118164062,4.607379756019712e-05,0.006771431821858711,0.22584651066326922,0.20092773437,0.24926757812,0.0001597025998450826,0.012606934555405963,-0.17507934569874997,-0.20104980468,-0.15307617187,0.00020122060165756302,0.014151084584540676,1.0165715580554329,1.00255004026,1.02773034686,4.964053010718408e-05,0.007028646648711116,969.5495623554315,969.42299997291,969.66015103046,0.004833389825754067,0.23715105755002241,0.06935526205464666,-0.001151306435354508,-1.211735252260776,0.49,0.51,-0.05578885012404558,Lift up
-0.9704162597619,-0.97937011718,-0.96496582031,1.4203839260966853e-05,0.003759364316564972,0.23069091796515,0.20837402343,0.24572753906,7.363730938324178e-05,0.008559738479435313,-0.17514953612870002,-0.18615722656,-0.15234375,6.466840940497503e-05,0.008021537717791407,1.01278918193165,1.00394743155,1.02098864311,1.3263136731332392e-05,0.0036327429096587238,969.3165609927069,969.19623680936,969.42299997291,0.004803049125972857,0.2267631635500038,0.06913055677732527,-0.001192917269021392,-1.2179472689402688,0.53,0.47,-0.08942238568087639,Lift up
-0.9689796683679381,-0.98693847656,-0.943359375,0.0001457554590744124,0.012041766576173936,0.23430200950005153,0.21875,0.24609375,3.215490220042396e-05,0.005655895621549701,-0.20701300237242268,-0.24975585937,-0.1591796875,0.000688252413919181,0.026166863034455,1.018565138209897,1.00367850009,1.03632075468,6.0481519833339906e-05,0.007756916876042172,969.0813887470773,968.96444438714,969.19623680936,0.004954049028274781,0.2317924222199963,0.0702033666790809,-0.0012451259145237817,-1.3171152322936281,0.53,0.47,-0.11768232544779798,Lift up
-0.9624083472037704,-0.97521972656,-0.95263671875,2.7694918081666086e-05,0.0052481977603262096,0.23535423069928962,0.2177734375,0.25646972656,8.376498737725552e-05,0.009127280822117566,-0.2192542904672678,-0.24536132812,-0.19494628906,0.0001767912124226112,0.013259907247925248,1.014861407052295,1.0034909781,1.02784535451,3.7087683487439496e-05,0.006073303759104237,968.8449740767197,968.72249642944,968.96444438714,0.004905730707526931,0.24194795770006294,0.06984929087615065,-0.0013168173527262203,-1.0658284680335,0.49,0.51,-0.04865301637629656,Lift up
-0.9647939671313965,-0.98828125,-0.94592285156,0.00010910221944243166,0.010415983383080448,0.22637973550659216,0.19738769531,0.26623535156,0.00024205887826070263,0.01551472184812249,-0.21754361796865923,-0.26940917968,-0.17468261718,0.0004763280522012598,0.02176389215260687,1.0148764263351955,0.98755091795,1.0583772473,0.00019856074257968334,0.01405174240755134,968.6042562957654,968.4909720599,968.72249642944,0.004826318205623327,0.23152436954001132,0.06927738111449892,-0.0013349521086442706,-1.2150004546956459,0.49,0.51,0.00713145410518908,Lift up
-0.9525279017819428,-0.97766113281,-0.88537597656,0.0006863965502717642,0.026124208777879018,0.2684723772273143,0.22058105468,0.34008789062,0.0015391375513350023,0.03911959201746726,-0.23453404017491436,-0.29345703125,-0.20324707031,0.0007064992453824964,0.0265040017136555,1.0181777349849714,0.96411269596,1.06543954762,0.0006259929632951298,0.024948263680018477,968.3596868173092,968.23153132745,968.4909720599,0.0052993856211949195,0.25944073244988886,0.07258859013402337,-0.0014283776308463595,-1.1828842920909834,0.49,0.51,0.049076719998564285,Lift up
-0.9359130859347646,-0.97058105468,-0.908203125,0.0004158392107652617,0.020332070670759535,0.23729750688917653,0.21923828125,0.2509765625,8.01320446064025e-05,0.008925283168512332,-0.21230109719270587,-0.23120117187,-0.19213867187,0.0001086497494664712,0.010392816427376123,0.988648856932,0.9539830223,1.02608125952,0.0005313017888879637,0.02298209051081834,968.1299023677907,968.02552652558,968.23153132745,0.004229351062665013,0.20600480187010817,0.06484190409759939,-0.0013135773272324508,-1.352798576123328,0.49,0.51,-0.01752810625327393,Lift up
-0.9338180358121083,-0.96948242187,-0.90478515625,0.00040870783978626805,0.020155538801179908,0.2334300581195783,0.22192382812,0.24755859375,6.060562906062294e-05,0.007761477624116128,-0.2111191347387349,-0.23315429687,-0.19384765625,0.00012121809936143505,0.010976696672825095,0.9854965301381324,0.95251459368,1.02332413751,0.0004633596514664181,0.021460855720702592,967.9749718263033,967.94923164432,968.02552652558,0.0003849057948537205,0.07629488125996886,0.0195598334667289,-0.0003405342276413604,0.7210341274116066,0.54,0.46,1.1327013523804383,Lift up
-0.9658649723669512,-0.97351074218,-0.95227050781,2.185333439550217e-05,0.004660480914723844,0.24213688547701218,0.234375,0.24890136718,1.605045255109071e-05,0.003994068594550463,-0.2052910037115244,-0.24096679687,-0.18627929687,0.00024717362779649497,0.01567375103571073,1.0168217103644512,1.0093213253,1.02842813272,2.6925005758628936e-05,0.005173086979188253,967.9582814321544,967.95121694194,967.96261555989,1.0060432880479373e-05,0.011398617950021617,0.003162133579966163,4.758919084992582e-05,-0.5877153563408855,0.47,0.53,-0.4489156534868365,Lift up
-0.9297265624965999,-1.619140625,-0.12072753906,0.1221276723012662,0.3477159696911454,0.6597485351519998,0.041015625,1.51293945312,0.13386058422626582,0.36403568284442,-0.3345117187458,-0.58239746093,-0.05834960937,0.018356593233185614,0.13480737109243604,1.2603507842794,0.7759608903,1.76200886724,0.09563131561272079,0.3076930328372639,968.0015679237473,967.9381934627,968.05814377446,0.0007203168841818495,0.11995031175990789,0.026704189097219017,0.0004477942405684883,-0.15597331999841302,0.38,0.62,-0.3841127462675255,Stairs down
-0.9995800781215999,-1.82568359375,-0.63659667968,0.096766554442462,0.30951395590189046,0.34428466796499996,-0.0224609375,0.69836425781,0.02942308144737809,0.17067176284583313,-0.2478320312478,-0.47497558593,0.0556640625,0.02800371704628892,0.16650429386603227,1.1114209449576002,0.70501776354,1.88781095368,0.09748271050737123,0.310657179866002,968.0498300555311,968.00030474846,968.11599731336,0.001204070232796283,0.11569256489997315,0.03452578066414024,0.0007697810667776721,-1.058938805435397,0.54,0.46,0.23439338472699,Stairs down
-1.1579980468718,-1.61584472656,-0.83911132812,0.048810585243514046,0.21982374619471598,0.27928710937080004,-0.01440429687,0.48571777343,0.02679017447421213,0.1628566017374488,-0.18630371093680004,-0.41369628906,0.10144042968,0.026669734053281345,0.16249011266150482,1.22758868442,0.91911799949,1.65695554622,0.04842792873194546,0.21896038327657816,968.1417023178673,968.0311310507,968.25036575036,0.003966786862620405,0.2192346996599781,0.0626667295619789,0.0007297336939594979,-0.8287228873498003,0.5,0.5,-0.3758513329379606,Stairs down
-1.2880273437462,-1.92358398437,-0.83203125,0.08323705271021346,0.287062157351176,0.1242871093734,-0.41418457031,0.49365234375,0.06762963735572995,0.2587534366577044,-0.1044726562484,-0.37084960937,0.19067382812,0.02224184729753072,0.14838944984248514,1.3312686398379998,0.84156524409,1.97797655705,0.08533082855675658,0.29065016819398026,968.2220505270857,968.07057895246,968.6239755554,0.012187320917983108,0.5533966029399835,0.10984283184989031,1.0154088907014512e-05,4.690812835508085,0.52,0.48,1.7765872183874434,Stairs down
-1.3592871093702001,-2.18908691406,-0.85522460937,0.12146387379598013,0.3467697147359041,0.24527343749760003,-0.18347167968,0.70617675781,0.07153958445709808,0.26612814321774975,-0.152363281247,-0.52990722656,0.12365722656,0.029046677193921108,0.16957656212455155,1.421873767639,0.9647758012,2.27576753498,0.1304441386942984,0.35936012203269774,968.3053902536852,968.25072265266,968.38609300378,0.001413547220501694,0.13537035112005924,0.037408712197784584,-0.00025190849353057786,-1.0439740209647517,0.52,0.48,0.15809414357955906,Stairs down
-1.1965136718718,-1.75439453125,-0.75354003906,0.08327283543781612,0.28712385321222955,0.289389648435,-0.212890625,0.59448242187,0.04408972939985383,0.20892302914196725,-0.23776611327719993,-0.52111816406,0.09973144531,0.02133409560933335,0.14532981336683817,1.2867432620068002,0.9171972076,1.79212235645,0.06406619367816754,0.251844260886338,968.3526442424065,968.25372806902,968.51759646579,0.004596112700255011,0.2638683967700217,0.06745481134250143,-9.901526623918093e-05,0.5309510567275426,0.54,0.46,0.7603063808969172,Stairs down
-1.2441943359338001,-1.78051757812,-0.81408691406,0.0739684376808654,0.2706081175871425,0.22993164062120003,-0.12707519531,0.59167480468,0.04999596663069062,0.2224769807516807,-0.11334716796580001,-0.38330078125,0.111328125,0.01771500388122488,0.13243056234273354,1.2958916353897998,0.82698147472,1.79083266826,0.07541734227352821,0.2732456200029434,968.378454580085,968.31908980782,968.43745519529,0.001140402131296476,0.11836538747002123,0.033600567108063986,0.0006677750700685008,-0.8951766236469223,0.4,0.6,-0.027211588675595567,Stairs down
-1.1363500976532002,-1.50732421875,-0.86303710937,0.0340574224129034,0.18362148073897663,0.2272509765592,0.060546875,0.54467773437,0.017180204849127693,0.13041626739267004,-0.16118408203,-0.40148925781,0.00769042968,0.014836361365828376,0.12119404998666433,1.1803657162688002,0.86516114349,1.57370247906,0.041479680484753506,0.2026447228030031,968.3832477136406,968.31613880795,968.48964204037,0.002528863250155826,0.17350323241998922,0.050035733407778366,-7.029444303354106e-05,-0.6177968472866056,0.54,0.46,0.5006479663241388,Stairs down
-1.101843261715,-1.45556640625,-0.83544921875,0.030954206983607145,0.17505617645136395,0.27628173827739994,0.07580566406,0.54455566406,0.017819486633881935,0.132820524647146,-0.20490722655920002,-0.51892089843,0.01623535156,0.01935599548621944,0.13842844914018665,1.1690371811947997,0.85200091983,1.48799887554,0.03351273230912531,0.18214720691252462,968.3874042483834,968.31767009135,968.51104227098,0.003102170249722849,0.19337217963004605,0.05541794427101767,-0.0003533060164660959,-0.3312599265947185,0.52,0.48,0.584468692412324,Stairs down
-1.0075585937459999,-1.37927246093,-0.63037109375,0.03977937399722704,0.19844792832694114,0.2684252929656,0.08215332031,0.447265625,0.011748301507304547,0.10784627250040447,-0.21380859374679997,-0.51892089843,0.02307128906,0.02245680445310438,0.14910478331889068,1.0826320718081999,0.78613192161,1.39413227389,0.028508626886380502,0.16799863278466495,968.3932216696273,968.31788043472,968.54319089793,0.003926852910097528,0.22531046321000758,0.06235049623697115,-0.0004802549448963035,0.27790013206343955,0.64,0.36,0.9997209154793163,Stairs down
-1.0725195312456,-1.501953125,-0.67895507812,0.055478590811628356,0.23435828319799595,0.26201416015280005,0.10290527343,0.48388671875,0.011671320711900463,0.10749236021588444,-0.2071166992168,-0.55590820312,0.11987304687,0.03323854686539179,0.18140055511695072,1.1428802026765998,0.69734110276,1.51050270317,0.056419221634144555,0.23633668656770812,968.3881546854848,968.30632732655,968.52360211559,0.0037060260662808314,0.21727478904006148,0.060571988621953156,-0.0006029677173153007,0.09858813024096458,0.7,0.3,0.9391409162608539,Stairs down
-1.0840014648397,-1.501953125,-0.7158203125,0.04967180677720034,0.2217545686325951,0.2220007324185,0.00451660156,0.40173339843,0.010359348869749324,0.1012707034687319,-0.136280517576,-0.39392089843,0.13977050781,0.020676906389391438,0.14307388764375392,1.1309120468473999,0.74387661312,1.50823159397,0.048497755231718544,0.21911818199182231,968.4523703684134,968.3698663266,968.65683128513,0.003919366942817817,0.2869649585300067,0.06229103686237402,0.0007674602728133875,2.3313538418529323,0.56,0.44,1.3502096286181535,Stairs down
-0.9576794433556001,-1.38891601562,-0.66882324218,0.043021597252871066,0.20637679443276163,0.25057006835679996,0.06787109375,0.53088378906,0.014051013840131105,0.11794279843097583,-0.2246350097626,-0.443359375,0.05078125,0.021672593010368564,0.1464782136710606,1.0338290816750002,0.75621064966,1.46516252736,0.03995085347225028,0.19887519940286114,968.4898078440995,968.42268188897,968.59535538639,0.0013136875000885877,0.1726734974199644,0.03606314774236578,0.00027500156809463143,0.9492826190647019,0.58,0.42,0.6333441543747396,Stairs down
-0.9772863769497999,-1.38549804687,-0.70227050781,0.035356768831711106,0.18709142455867397,0.1774658203086,-0.06811523437,0.37512207031,0.011224269866683711,0.10541360048882152,-0.17085571288760001,-0.33654785156,-0.01232910156,0.007629493985053992,0.08690914247191403,1.0164085911955,0.74407465084,1.41524079268,0.03672369462155854,0.19067369424056102,968.5763685150418,968.51941734261,968.61264026263,0.0009652579719837479,0.09322292001991173,0.03091286774571247,0.0007020907943320304,-1.1350172914290768,0.44,0.56,-0.5095810951244408,Stairs down
-1.0111816406218,-1.46179199218,-0.66528320312,0.041924361026569434,0.2037280476917789,0.18543334960560004,-0.01403808593,0.41784667968,0.015021443142564967,0.1219476474194534,-0.10755126953059997,-0.38830566406,0.10913085937,0.027473813300435985,0.16492142119030997,1.0524882118246,0.667054482,1.49514336939,0.04473242254363445,0.21044024880758458,968.6515594361055,968.55932182648,968.7699565625,0.0030152054402348173,0.21063473602009708,0.05463564208309873,0.0007734841281856746,-0.3790857196140327,0.66,0.34,0.5758738964464711,Stairs down
-1.0861364746058002,-1.64636230468,-0.70336914062,0.058218194275039,0.24007501396915215,0.1184509277325,-0.24609375,0.47058105468,0.02909749667234979,0.16972484115657996,-0.08316528320130001,-0.31274414062,0.31274414062,0.0248353704937234,0.15680247698549335,1.1183136683062,0.77661444607,1.71560896916,0.061660220388687854,0.24707006735904086,968.7426087740575,968.68750124623,968.82499580521,0.0015408665741255118,0.1374945589800518,0.03905711085556965,0.001008898578203196,-0.6712077621974899,0.58,0.42,0.5096616860888634,Stairs down
-0.9707788085905,-1.59936523437,-0.26049804687,0.09254970056271326,0.30269490176923386,0.5477209472627999,-0.17211914062,1.60473632812,0.22861119269363292,0.4757363563642121,-0.1827880859354,-0.55065917968,0.11791992187,0.03887506928019902,0.19617930213811302,1.2382101627307995,0.67682028698,1.82041664807,0.100093344912007,0.3147894716519073,968.7701990447962,968.68854662667,968.84485607737,0.0018939631011770151,0.1563094506999505,0.04330154119849829,0.0007985320410598592,-0.8362441087088754,0.48,0.52,-0.22897008536329458,Stairs down
-0.1899951171833,-0.29931640625,-0.0986328125,0.0024385338840611677,0.04913398564354978,0.9661999511682001,0.79931640625,1.08557128906,0.005760868960852218,0.07551993293987816,0.1453124999976,-0.10949707031,0.49072265625,0.023679118565553534,0.15310887426892666,1.0087071656823001,0.86199693382,1.10503464522,0.00487454842864447,0.06946799942677222,968.8600530956954,968.78611391132,968.948386536,0.0020695325702142246,0.1622726246800994,0.045264083383098376,0.000258575252107208,-0.5522609439044368,0.56,0.44,0.22144823626242,Lift down
-0.7578137206985,-0.97937011718,-0.23181152343,0.07331144403188461,0.2694036554903548,0.4335473632766999,0.17614746093,0.91381835937,0.053781394037381434,0.23074570439556968,-0.19715209960560004,-0.32397460937,-0.01086425781,0.007623265263665398,0.08687365890204432,0.9591354537299999,0.59097406577,1.14394924351,0.014688914709705556,0.12059032118129755,968.8952894024396,968.66675368664,969.11589548043,0.017274893422634108,0.4491417937899769,0.1307751677055234,-0.0017423673319100993,-0.8788394293046458,0.56,0.44,0.11577144537922957,Lift down
-0.9547509765583999,-1.05358886718,-0.89758300781,0.0013626858682129676,0.03672953865121148,0.24712524413660006,0.14831542968,0.31506347656,0.0018802545212999273,0.043144547466475155,-0.21027587890229998,-0.32055664062,-0.13708496093,0.0025325144119856097,0.05007184106726808,1.0107950734152,0.96351497286,1.09510312167,0.0008558369593151796,0.029108050256278377,969.1006699176198,968.95768936586,969.21453880615,0.0050737802867992015,0.25684944029001144,0.07087342579508352,0.002414003871555696,-1.0345617931243376,0.45,0.55,-0.309200624043569,Lift down
-1.0044250488238,-1.02355957031,-0.93969726562,0.00031447301457363625,0.017644497284646562,0.24434692382479994,0.22302246093,0.27734375,0.00015430519528165349,0.012359698351045504,-0.2120812988246,-0.23095703125,-0.18518066406,0.00013672994093390597,0.011634545179102056,1.0553637846450001,0.99211931369,1.07475094183,0.0003639498275126568,0.01898184209284047,969.3211930026653,969.21453880615,969.39633782641,0.003089292602096202,0.18179902025997308,0.05530279989363323,0.0018972372661230322,-1.2339706182360641,0.45,0.55,-0.27415509782239655,Lift down
-0.9647363281219,-1.00500488281,-0.91662597656,0.0004952445415404835,0.022142540417149036,0.2572277831989,0.22778320312,0.32153320312,0.00041840693413529426,0.02035246581606124,-0.21634277343289998,-0.28442382812,-0.17248535156,0.0005443289063079619,0.02321390999476138,1.0221768889192,0.99641402088,1.05143783221,0.0002871911123645402,0.016861767441193547,969.4187137510878,969.39633782641,969.43272517282,7.695883698845236e-05,0.036387346410037935,0.008728645291141566,0.00021433287937684353,-0.4331182273990284,0.33,0.67,-0.6969035309487979,Lift down
-0.9657678222617,-0.97314453125,-0.95104980468,3.021812650753362e-05,0.005469547078365656,0.24490234374659997,0.2275390625,0.27014160156,0.00011551413872233472,0.0106938766280106,-0.200510253902,-0.2197265625,-0.18994140625,6.594657296926849e-05,0.008080043764706711,1.0164052540565998,1.00884876646,1.02604337714,1.911917590590017e-05,0.004350630316039409,969.4313482579263,969.42261583986,969.43667047426,8.946000893700055e-06,0.014054634400054056,0.002975994100256762,3.071601342441279e-05,-0.4929372834198653,0.41,0.59,-0.22008836254960348,Lift down
-0.9632812499969,-0.97265625,-0.95520019531,1.740877074168689e-05,0.004151467575962749,0.22601074218390005,0.21301269531,0.23522949218,3.521685648311189e-05,0.0059046327505003025,-0.21222167968369998,-0.22497558593,-0.19860839843,3.115531169767155e-05,0.005553715745399186,1.0119757599349999,1.00254716422,1.02187105959,1.7846402898121476e-05,0.004203324739910095,969.4395979950575,969.43311694232,969.4470318208,1.6097635359187725e-05,0.013914878480022708,0.003992074524053359,0.00011408481437991989,-0.6743317543193399,0.45,0.55,0.22850498794457785,Lift down
-0.9641308593713,-0.97680664062,-0.95837402343,2.0994297183811257e-05,0.004558986094733471,0.23268554687159998,0.22045898437,0.2509765625,6.286264670709636e-05,0.007888854177890817,-0.2146362304656,-0.22705078125,-0.20629882812,3.6364703470023105e-05,0.00600008803563105,1.0148090737803,1.00838367777,1.03292493915,4.156802842206787e-05,0.00641500959764264,969.4516243015679,969.44689301977,969.45479345645,4.017768870113279e-06,0.007900436680074563,0.001994389927123617,4.7886902901864584e-05,-0.40467408025258766,0.53,0.47,-0.3756318010267578,Lift down
-0.9682080078089002,-0.97583007812,-0.95874023437,1.9306582640212184e-05,0.004371900823876276,0.23198486327660006,0.20642089843,0.24536132812,9.266149516219089e-05,0.009577832751231825,-0.20839599609099996,-0.22607421875,-0.19348144531,8.66520224265685e-05,0.009262046329095035,1.0172810221565,1.00992912724,1.02503530976,8.656788389865302e-06,0.002927493895120304,969.4523127941253,969.44320380874,969.46007709668,2.5578540035693425e-05,0.016873287940029513,0.005032171960032417,-0.00011803154779607227,-1.0800542765864491,0.47,0.53,-0.36368187157437126,Lift down
-1.0940979003874,-1.42028808593,-0.86096191406,0.024661834605615395,0.15625369198697112,0.17958496093449994,-0.02844238281,0.41027832031,0.015023381035556454,0.12195551330383095,-0.21603393554549996,-0.47790527343,0.14282226562,0.039952839977648334,0.19888014374962587,1.1517992786633997,0.9641957211,1.4906518184,0.028456294812715353,0.1678443679859059,969.374923707817,969.30014760704,969.4782726022,0.002437790221679752,0.178124995160033,0.04912649305072523,-0.0005940754946265821,-0.43087510247372673,0.6,0.4,0.5084803238537008,Stairs up
-1.0870007324183002,-1.42028808593,-0.74755859375,0.022927417085010986,0.15065902865132536,0.19651855468379995,-0.09252929687,0.44812011718,0.01918109657742423,0.13780161686877984,-0.18184814452800002,-0.55993652343,0.04577636718,0.025833368752385653,0.15992196554839425,1.1422979712873003,0.95259137928,1.4906518184,0.015835041076661314,0.1252065919426557,969.3092606585909,969.27708064536,969.37435679878,0.0008441853028840676,0.09727615342001172,0.028909227763038343,-0.00029046013487578364,-0.39613537026641543,0.64,0.36,0.8819496173781449,Stairs up
-0.9978076171846999,-1.25463867187,-0.7919921875,0.019238010777503,0.13800590809718247,0.3005578613247,0.00903320312,0.64270019531,0.026031260856302762,0.1605333244150252,-0.2715624999958,-0.53210449218,-0.06945800781,0.015612407019612971,0.12432330010668492,1.0933600314506997,0.86434726575,1.3564691562,0.024785822031200222,0.15664598242817535,969.2872404864124,969.25151788337,969.3338975834,0.0006618914077544271,0.08237970003006012,0.025598290835071057,-0.00024155121943662526,-0.8427561525267988,0.55,0.45,0.3453076625368542,Stairs up
-1.0816894531219001,-1.34826660156,-0.81213378906,0.027909622649702922,0.16622432560610945,0.04394653320200001,-0.33190917968,0.36071777343,0.04599953525244864,0.21339995290515917,-0.08952026366940002,-0.27941894531,0.12719726562,0.009961757206700334,0.09930830597001104,1.1122662951215998,0.84074810041,1.36015813017,0.026154689974988935,0.16091346455545305,969.2519151608502,969.2018572636,969.32187203637,0.0010020306636483957,0.1200147727699914,0.03149619591334661,-0.0006545261785780955,-0.7437618825590833,0.52,0.48,0.056786495867120326,Stairs up
-1.1175415039018999,-1.36938476562,-0.90563964843,0.015038235470534544,0.12201579043643983,0.19975585937200002,-0.01208496093,0.35559082031,0.01097983904509847,0.10425948712058528,-0.1690380859355,-0.51208496093,0.07116699218,0.0269415448163402,0.1633160413681914,1.1615936380893999,0.96055522541,1.45060921359,0.020712660489600725,0.14319753449240918,969.1998424741453,969.12787332067,969.28038223674,0.002122117923728819,0.15250891607001904,0.04583554018980829,-0.0011438757729870569,-1.1837767416006064,0.43,0.57,-0.13471612345789827,Stairs up
-1.0949218749961,-1.28588867187,-0.83483886718,0.015457560919718569,0.12370523558249823,0.16730224609039998,-0.33410644531,0.33959960937,0.025366137550887926,0.15846916474626555,-0.19769409179339997,-0.35021972656,0.02209472656,0.013027559475035198,0.11356620923621977,1.1415784945823,0.87756929224,1.33861130287,0.01620019585533427,0.12664199104870758,969.1151205502739,969.05913087922,969.17422581051,0.0011236200263340505,0.11509493129005932,0.03335241859401969,-0.0009117173883856912,-1.0206630870929894,0.47,0.53,-0.04117347783820557,Stairs up
-1.0926245117145,-1.47436523437,-0.84838867187,0.026811732059712847,0.16292211249279737,0.16357666015349998,-0.01708984375,0.33984375,0.013938955580399306,0.1174715541081981,-0.2060375976534,-0.48913574218,0.11755371093,0.028890839434643274,0.16912105439683386,1.1421685836090996,0.86762911059,1.5183358921,0.02771028021757982,0.16562963930228194,969.0556257599429,968.97586254218,969.22093919794,0.00374536829502346,0.24507665575993087,0.06089264825964811,-0.0012844102610338783,0.03880849884482673,0.59,0.41,0.83301970212589,Stairs up
-0.9822009277316,-1.23168945312,-0.72192382812,0.028611741792716836,0.16830218172914357,0.21192382812090002,-0.01599121093,0.38000488281,0.010846638522621662,0.10362515205004741,-0.21449462890320004,-0.39489746093,-0.1015625,0.007919248312331846,0.08854408974747285,1.0359479527469002,0.77046951953,1.33272320849,0.02965051387018465,0.17133011624195787,968.9829205336397,968.92959262476,969.02536108585,0.00048186656325502347,0.0957684610900742,0.021841426181054963,-0.0005185548275101861,-0.2557274976347257,0.55,0.45,-0.38764559591083514,Stairs up
-1.0646679687462,-1.32458496093,-0.79333496093,0.018595681382992668,0.13568244016512507,0.15618652343499997,-0.00402832031,0.3740234375,0.011629393751003077,0.1072991137591222,-0.20325439452799995,-0.42602539062,0.01147460937,0.016029370499155676,0.1259725239652049,1.1060524298805998,0.82571027589,1.40772679456,0.02188321838631223,0.1471882678831744,968.912358177013,968.82601459502,969.01102658184,0.002132955087607434,0.18501198682008635,0.045952426886197856,-0.0005895349424623382,0.07397470503567716,0.55,0.45,0.27116133942552617,Stairs up
-1.1210412597619,-1.43737792968,-0.87536621093,0.019682142847413243,0.1395898327921454,0.15884765624779998,-0.13427734375,0.42504882812,0.029093618970054604,0.16971353151812632,-0.23408447265349996,-0.54919433593,0.041015625,0.026343810070461538,0.16149418556021428,1.1779696197947,0.88138050641,1.46525499801,0.02375512659654135,0.15335441086116805,968.8838747876329,968.79087488016,969.01240219866,0.0045425354391535906,0.22152731849996599,0.06706049570918825,0.00037587966568635887,-0.7882777643027716,0.53,0.47,0.5701430077703019,Stairs up
-1.1214404296838,-1.45349121093,-0.93469238281,0.019189162302308087,0.13783058687854813,0.18089599609129997,-0.02551269531,0.46789550781,0.0218672299320034,0.14713448825031936,-0.1940039062472,-0.48291015625,0.04895019531,0.023912113748228627,0.1538603022574255,1.1690771036088001,0.93527034423,1.5606598652,0.025825314253727607,0.15989703284048248,968.865470294992,968.81091104967,968.9621624136,0.002222055373232358,0.15125136392998684,0.04690239673513535,0.0004907994046267183,-0.6053851163654813,0.56,0.44,0.6167112583699199,Stairs up
-1.1561108398403,-1.3984375,-0.94946289062,0.020886941094788964,0.14379871934005906,0.19128662109169994,-0.12084960937,0.4501953125,0.033558495712190106,0.18227153029222146,-0.2365966796848,-0.58581542968,0.0732421875,0.046124189790431314,0.21368890446751557,1.2237988308846999,0.95296383886,1.52252803945,0.03135473343253833,0.1761850904537979,968.8789924044798,968.79073674983,969.00357079924,0.004273446476475405,0.21283404941004846,0.06504392371090978,-0.0005582925249760501,-0.756117547189048,0.56,0.44,0.5683765040066802,Stairs up
-1.092136230464,-1.36437988281,-0.65124511718,0.03195807836874665,0.1778721383046237,0.27768310546649994,-0.12084960937,0.58801269531,0.0334948257899042,0.18209853797327744,-0.19771972656070005,-0.42663574218,0.09106445312,0.02931075507875544,0.1703456707050927,1.1669497545677003,0.69387234262,1.47449153404,0.04142104665147712,0.2025014473651049,968.8836712035638,968.80966512888,969.02370820477,0.0038376214400088217,0.21404307588989013,0.0616380176969436,-0.0008006392985464965,-0.16292703257464103,0.51,0.49,0.7251352712764179,Stairs up
-1.1483117675744,-1.40124511718,-0.82495117187,0.026243712701868573,0.16118708253098288,0.13465209960710003,-0.236328125,0.47058105468,0.03730107384842121,0.19216675859767474,-0.17181640624730002,-0.53771972656,0.1796875,0.032215662218581194,0.178587529229774,1.1980651126700996,0.82878961524,1.45087735869,0.025974556581497495,0.16035838305396607,968.859291809386,968.76769055043,969.04924786223,0.005361156246271946,0.28155731180004295,0.07285289756632352,-0.0006817002719235489,1.2704377759381869,0.55,0.45,1.1129859065951329,Stairs up
-1.1594250488244,-1.40124511718,-0.99487304687,0.011807950607134401,0.10811970727422017,0.1028356933576,-0.12268066406,0.36535644531,0.018210043585867527,0.13426817623699538,-0.1148535156224,-0.3671875,0.05871582031,0.015626150333188624,0.12437800782235071,1.1836178199186,1.00271456304,1.45087735869,0.012393447648023942,0.11076783455292291,968.7787467087804,968.72200339918,968.85375908336,0.0013948177935507577,0.13175568418000694,0.03716005403138228,-0.00015684919155616538,-0.3514307205267957,0.57,0.43,0.6046881464389654,Stairs up
-1.098459472654,-1.39807128906,-0.87548828125,0.022709579534259183,0.14994160109494828,0.23010375976189995,0.03784179687,0.39904785156,0.010305702233432851,0.10100814428103569,-0.1855810546849,-0.50720214843,0.10791015625,0.03738726391819624,0.19238864643999729,1.1550101628595,0.93842683912,1.48239681539,0.029950833432667426,0.17219560127465727,968.7202933499674,968.65704330874,968.82964414093,0.0022149826991842204,0.1726008321900281,0.04682769343233103,-0.0009371500709084853,0.1770921401015757,0.59,0.41,0.8226913271048246,Stairs up
-1.0796179199183,-1.3076171875,-0.822265625,0.019542486033974366,0.1390937136380887,0.1481884765586,0.00341796875,0.27868652343,0.005711332089954117,0.07519453948961038,-0.16567016601370002,-0.38146972656,0.06225585937,0.020119266393854286,0.14113140589505846,1.1122740320584001,0.85690453634,1.38637059636,0.022976881594124345,0.15082145993917145,968.6594998436052,968.60716796134,968.73513626947,0.001431439412955134,0.1279683081299936,0.0376447209954541,-0.001024903160436337,-0.29258978136263725,0.67,0.33,0.7583601550945286,Stairs up
-1.0563989257773,-1.32751464843,-0.81799316406,0.020629629938196715,0.14291022930082628,0.2038208007777,0.06799316406,0.30993652343,0.004433959571993704,0.0662542072345128,-0.16358764648070004,-0.33215332031,0.05627441406,0.009430058344161987,0.09662172509700066,1.0926111560279,0.85064459684,1.38863133989,0.02264589862075629,0.1497312246478627,968.6199475183789,968.56489883273,968.70544163799,0.0018215059920278702,0.1405428052599973,0.04246517316705057,-0.0006997912052570814,-0.7378214800098366,0.55,0.45,0.5655811916732494,Stairs up
-1.0533508300737,-1.2490234375,-0.77673339843,0.016133390705735978,0.12638060293683764,0.08532714843499999,-0.138671875,0.32055664062,0.017228226468573107,0.130598408121567,-0.1750231933567,-0.35144042968,0.12329101562,0.02019229299277152,0.1413873051686176,1.0881044936256998,0.81261426782,1.29637228172,0.016675549198387114,0.12848655068295375,968.5737990623758,968.5055616281,968.63449757135,0.0012214134399521595,0.12893594324998503,0.03477354318375736,-1.7768415444300635e-05,-0.49217558322049326,0.56,0.44,-0.05560080639678512,Stairs up
-1.1410974121060997,-1.36474609375,-0.92333984375,0.01143404349383585,0.10639409315792626,0.14614868163660003,-0.03796386718,0.28466796875,0.009288715405383327,0.0958948812571844,-0.13914672851279997,-0.34460449218,0.0859375,0.0160336813219398,0.12598946189551094,1.169065741455,0.96907632469,1.42555624349,0.0126249708005585,0.11179767928071188,968.5365437681814,968.4912905778,968.62423740937,0.0011985224002098503,0.13294683157005238,0.03444614893145171,-0.0004448299645828813,-0.3609862462213629,0.44,0.56,0.5014958339568932,Stairs up
-1.0395947265596,-1.31555175781,-0.78186035156,0.0211356214561603,0.14465222169603445,0.128291015624,-0.09753417968,0.34362792968,0.017873007214707685,0.13301983740239878,-0.1926269531228,-0.41357421875,0.05187988281,0.01861468107969344,0.13575173762754017,1.0834885164764,0.85404977735,1.34250411783,0.01759660056955116,0.13198725152019664,968.3818346255267,968.34245902218,968.42778853569,0.0005863972604700793,0.0853295135099188,0.024094258400402753,-0.00018458088687754465,-0.5389409282867512,0.59,0.41,0.14995262265549578,Stairs up
-1.1465917968715997,-1.42236328125,-0.91870117187,0.01732269961424474,0.1309559949681659,0.1612695312476,-0.22277832031,0.42504882812,0.028994371577140635,0.16942381137658669,-0.14239257812480002,-0.42651367187,0.14636230468,0.033610222458582084,0.18241195200423754,1.1924596815296002,1.00552405536,1.48324837845,0.018307257882259422,0.13462609443728518,968.3342573612135,968.27833953828,968.42655602165,0.002056735708900956,0.1482164833699926,0.04512392216786952,-0.0006787071292762597,-0.2671139248124934,0.67,0.33,0.9222007624474446,Stairs up
-1.0731787109344,-1.3388671875,-0.88391113281,0.014639979805556836,0.12038928526867027,0.21710937499519992,0.07727050781,0.39392089843,0.007331647150388354,0.08519583721570245,-0.14551269530960004,-0.36926269531,0.03674316406,0.014420861523245147,0.11948494845800745,1.1131565948920001,0.9462999042,1.44175606904,0.017104979445156245,0.130130433222612,968.2601142617391,968.22207614168,968.31560735237,0.0006525873223547693,0.09353121069000281,0.02541773886739774,-0.00044202329694075605,-0.5343420946461883,0.4,0.6,0.3349699814430431,Stairs up
-1.1153320312452,-1.29736328125,-0.92590332031,0.013274920107227315,0.1146393078579727,0.20592285155800003,0.04089355468,0.35620117187,0.0060443696590754045,0.07735583987317733,-0.11742675781039999,-0.34741210937,0.09484863281,0.01858094663247566,0.13562867383466853,1.1500094177623998,0.97637282246,1.36175660624,0.015311492184955386,0.12311936185306449,968.2024204362382,968.13349779627,968.28880447493,0.0019972533968565533,0.1553066786599402,0.044466626394274476,-0.0006308184425309625,-0.57421988203739,0.68,0.32,0.46146784086370307,Stairs up
-1.070039062496,-1.42114257812,-0.78015136718,0.03407162160605087,0.183659754410133,0.1489501953096,-0.10205078125,0.302734375,0.011308157082463771,0.10580678386398074,-0.13466308593439996,-0.27819824218,0.06665039062,0.011151915463184106,0.10507329017667746,1.0998829366848,0.84522687615,1.42962569223,0.03184626814481844,0.1775607092331247,968.1321400334241,968.08447661514,968.23535841191,0.0013125762141930454,0.15088179677002245,0.0360478910902027,-0.0006989610532965348,1.5240181398991188,0.51,0.49,1.1756373955670756,Stairs up
-1.0350146484332,-1.29382324218,-0.83630371093,0.015089129775512307,0.12222208670186083,0.08803710937400001,-0.1669921875,0.33801269531,0.025305396377780336,0.15827931770766052,-0.1263427734352,-0.27514648437,0.07873535156,0.013529708890613284,0.1157342291705749,1.0652615564956003,0.86842623722,1.3190871088,0.013708242871542974,0.11649532369510608,968.0883182575532,968.03971139958,968.12232354063,0.0009090489087849825,0.08261214104993542,0.02999930698694776,-0.0004888192511173039,-1.6334647305451782,0.48,0.52,-0.27578343719684856,Stairs up
-1.0304296874960002,-1.27807617187,-0.71887207031,0.027026864639378628,0.1635744356340099,0.16895507812159993,0.03869628906,0.26257324218,0.004416675182148701,0.06612494559791497,-0.18201660155799998,-0.33325195312,-0.03918457031,0.007707548767698928,0.087352580271117,1.0636026250988002,0.72821523491,1.31244825647,0.03128306679461808,0.17598362459806283,968.0369325380825,967.96924534002,968.11953188752,0.0018919010170370073,0.1502865474999453,0.04327796213856005,-0.00044740061717968516,-0.8947619248715091,0.55,0.45,0.4115197104502506,Stairs up
-0.9687158203083999,-1.00036621093,-0.94104003906,0.0002975048681625217,0.01716187109498543,0.35065429687199995,0.24462890625,0.42370605468,0.003254974827535137,0.05676640801794478,-0.1643945312464,-0.18786621093,-0.14465332031,0.0001276978579445806,0.011243703987794005,1.0449255052012,1.0135042276,1.06827671072,0.00017010373035891295,0.012977006321001922,968.0199762256482,967.98956719919,968.06068529443,0.00034430614907794916,0.07111809523996726,0.018462477829023105,-2.8458271690270146e-05,-0.6194807613924458,0.56,0.44,0.05900080739994824,Lift up
-1.0022802734327998,-1.02307128906,-0.98352050781,0.000143286820611485,0.011910245690386498,0.21444824218359998,0.15148925781,0.26330566406,0.0013283289803164861,0.03626355871275351,-0.20342773437079997,-0.25671386718,-0.16357421875,0.0009144582169956684,0.03008843024861403,1.0460194225276,1.02285321133,1.06624279236,0.00014365572985173755,0.011925568018053487,967.9158898033223,967.81712991483,968.07620984528,0.009004242484124503,0.2590799304499569,0.0944150414885428,-0.0030451775944729644,-1.3526552247238954,0.56,0.44,0.5037373172980113,Lift up
-0.9367236328083999,-0.97985839843,-0.9140625,0.00045420410655700664,0.021205236746884872,0.2613476562460001,0.23950195312,0.28137207031,0.00017126699892337438,0.01302130288927113,-0.1607031249964,-0.17224121093,-0.14306640625,5.140222682928604e-05,0.007133596888035739,0.9857409884204,0.96005845374,1.03259590492,0.0005697620400567873,0.023750040413780763,967.7281017877139,967.63817552194,967.82820176278,0.004719381930893495,0.19002624084009767,0.06835340599841795,-0.0023374709152205637,-1.5097900991142101,0.48,0.52,0.0786208990054222,Lift up
-0.9444580078084001,-0.99597167968,-0.91809082031,0.00043133533361101243,0.02066451016295577,0.26513183593440004,0.16528320312,0.48693847656,0.0054402321036152715,0.07338821283134724,-0.16120117187080002,-0.21984863281,-0.07629394531,0.0011708075109247388,0.03404554942742871,0.997318784854,0.9635917324,1.0558381903,0.0006149791206485662,0.024674467156193678,967.6597362701059,966.83840398626,968.83904744836,0.2829275184844476,2.0006434621000153,0.529243085263854,-0.003313890518305792,0.46203306256947174,0.76,0.24,0.6877928703389824,Lift up
-1.0603955078096001,-1.63708496093,-0.72375488281,0.06618269679466816,0.2559704471745156,0.29812988281,-0.0830078125,0.78833007812,0.05867293810585583,0.24101080624071045,-0.1552587890596,-0.41979980468,0.12487792968,0.01613816025249109,0.1263992826323242,1.1443272243972,0.76613737983,1.65369023591,0.06820647706181268,0.25985459836453645,967.6780331078684,967.59707846712,968.12749332528,0.010400227263325911,0.530414858160043,0.10147031581054951,0.001633694041991775,12.477134065656685,0.6,0.4,3.407369226514096,Stairs down
-1.0451025390592,-1.86096191406,-0.5498046875,0.09227047799817324,0.30223794139417953,0.1758935546832,0.03942871093,0.43310546875,0.011580220280404382,0.10707202285191188,-0.1669726562488,-0.48156738281,0.1162109375,0.041335853276913116,0.20229309119231922,1.0971735952524002,0.60979570635,1.89235524931,0.09192173291028652,0.3016662320863634,967.718838834286,967.59955886216,968.03106855754,0.012492443548954638,0.4315096953799866,0.11120934813883719,0.00043838356552875705,1.886929562898512,0.6,0.4,1.539381273774137,Stairs down
-1.0069433593711998,-1.39819335937,-0.52307128906,0.05081392818021333,0.2242895202598891,0.16955566405920003,0.00378417968,0.4287109375,0.01252827379435332,0.11136871668655335,-0.0924999999984,-0.38720703125,0.16528320312,0.02102506435226597,0.14427339917234677,1.0393246347127998,0.52611639102,1.49459600552,0.05511939347188594,0.23359837229134772,967.8101925136798,967.69914170613,967.92491596054,0.0041736557809671365,0.22577425440999832,0.06428000640290467,0.0013171182248983401,-0.8903824011228068,0.44,0.56,-0.17467022096788096,Stairs down
-1.040585937496,-1.45910644531,-0.63391113281,0.054007170320871274,0.23122953664629994,0.121796874998,-0.14050292968,0.40393066406,0.018914737219177552,0.1368414770710466,-0.14913085937239998,-0.44787597656,0.09619140625,0.014982856547878998,0.12179091912946634,1.0731789766052002,0.6615948436,1.4730946068,0.05576382415328141,0.23495996661505678,967.9104701702547,967.77748322033,968.08609905547,0.005254992025209501,0.30861583513990354,0.07212795647290589,0.0003384949283890789,0.8263877302188956,0.48,0.52,0.6038208658401799,Stairs down
-0.9934326171832001,-1.28454589843,-0.69055175781,0.030254767398413304,0.1730670960189405,0.19594238280919998,0.07153320312,0.45739746093,0.009363252321754566,0.09627886475513212,-0.16875488281079995,-0.44287109375,0.17456054687,0.032758198698296395,0.1800850263384311,1.0457996799915998,0.71683490662,1.36892555931,0.032056038689126244,0.1781445432850386,967.9650906198999,967.87695681578,968.34518002023,0.01441226192780847,0.46822320445005516,0.11944931690273657,0.00031795196838636954,5.272768343271403,0.68,0.32,2.4963746305814434,Stairs down
-1.141551513668,-1.65673828125,-0.74304199218,0.049007461256779655,0.22026662626056598,0.1608166503888,-0.15014648437,0.52648925781,0.02852391356562357,0.16804366822337383,-0.18004882812270004,-0.39990234375,0.06127929687,0.01734413881456591,0.1310370078505315,1.1853180894985003,0.78962612795,1.68538693302,0.050875978905216564,0.22442642250003542,968.0120883000383,967.91302242241,968.17601207134,0.006068293774383092,0.2629896489299881,0.07750877909397916,0.0005444408690127192,-0.6276975232728774,0.56,0.44,0.6514601248467449,Stairs down
-1.1146777343716001,-1.43322753906,-0.87292480468,0.028740058138162775,0.16867915566773847,0.3080322265588001,-0.02661132812,0.6640625,0.04590413305470554,0.21317854423970176,-0.1421289062468,-0.31848144531,0.02490234375,0.010150432249543118,0.10024434112231816,1.1873428436547997,0.8744537658,1.48246689176,0.032075332242672866,0.17819814510888193,968.0264906361116,967.93445463828,968.14641162263,0.003494496025561542,0.21195698434996757,0.05881794849623648,0.0008247612621079996,-0.7091090063180481,0.52,0.48,0.5244569037064261,Stairs down
-1.1796533203084,-1.46716308593,-0.86999511718,0.0329124428045391,0.18050849945776434,0.216967773434,-0.19470214843,0.54431152343,0.03045898976870186,0.17365022277847744,-0.16451660156120002,-0.47778320312,0.10864257812,0.03396603617919425,0.18337495962481437,1.2368744530224,0.88064681742,1.52139811828,0.03255390357598175,0.17952260175315513,968.0229045978383,967.939648891,968.123908792,0.0033862919505366065,0.18425990099990486,0.057900164343732574,-0.0001528755625844749,-1.275048270316558,0.48,0.52,0.15299445777924986,Stairs down
-1.147529296872,-1.63037109375,-0.7236328125,0.05496582247995838,0.23327272505622856,0.24554199218359998,0.02355957031,0.66552734375,0.03462876228400932,0.18515527176175467,-0.20702636718479997,-0.58837890625,0.04223632812,0.0286661259811809,0.16846205721576918,1.2140879844700003,0.72964101189,1.68268008565,0.06367953880028882,0.25108314043815433,968.0349704028232,967.93885670599,968.24199379592,0.005442371757628233,0.30313708993003274,0.0734026432770098,-0.0007664355716220522,2.463216020625878,0.6,0.4,1.5002269162344997,Stairs down
-1.2204492187456,-1.5615234375,-0.90063476562,0.03376005023434392,0.18281807824173318,0.3067285156216,-0.00317382812,0.73486328125,0.049443073368724125,0.2212434013367108,-0.14805664062239998,-0.38586425781,0.12341308593,0.02016469844623564,0.14129066303819685,1.2899776563616,0.90157447985,1.58762495814,0.04423357230609721,0.2092635577042411,968.0334650265038,967.94774341382,968.17440318438,0.005055509692044414,0.22665977055999065,0.07074570372202095,-0.0006670142951684792,-0.9043437691604392,0.56,0.44,0.599640108405076,Stairs down
-1.1038525390584,-1.43383789062,-0.70324707031,0.03731261874692475,0.19219649465964644,0.16061523437359998,-0.30444335937,0.53784179687,0.05009693964435434,0.22270152726892287,-0.1314208984364,-0.40771484375,0.29760742187,0.03879877413017674,0.19598669952033726,1.1623427835520002,0.81634220072,1.47176402862,0.03582286542033724,0.18832056915306375,968.0578312137934,967.9572555563,968.11979131428,0.0019368431002576285,0.1625357579799811,0.04378897885604382,0.0004493627980302557,0.14313858043931882,0.4,0.6,-0.9009033742548233,Stairs down
-1.226503906246,-1.8671875,-0.55554199218,0.1384597127130717,0.3702365670567144,0.3431787109343999,-0.30676269531,0.92468261718,0.12670679371607382,0.3541747108122107,-0.214077148434,-0.51867675781,-0.02416992187,0.017895449917894796,0.1331033260993723,1.3479712540456006,0.60649380205,1.9897993771,0.13244173758385347,0.3621012568440145,968.0883422995956,968.01735036341,968.17249378458,0.0026219992160225383,0.1551434211700098,0.05094879020999726,0.0007509852088362674,-1.3349505705201399,0.52,0.48,0.2613438064604403,Stairs down
-0.9975097656208,-1.56750488281,-0.66564941406,0.054086893495884206,0.23140013950066096,0.11603027343720002,-0.22094726562,0.5322265625,0.0405607212907138,0.20038740997828847,-0.18230468749640003,-0.41882324218,0.05212402343,0.017947103133985457,0.13329528162183987,1.0534720390456003,0.77523380298,1.5888721065,0.04382746428089787,0.208300719245251,968.1533260970295,968.08722702561,968.32185468432,0.004082386319727437,0.23462765870999647,0.06357328414145491,0.0011702810900770214,0.9705713970450924,0.64,0.36,1.4039426417019578,Stairs down
-1.033789062496,-1.42028808593,-0.73120117187,0.04345999703275936,0.20742564224905213,0.005756835938,-0.12780761718,0.25280761718,0.011036406477744886,0.10452771122036221,-0.0788281249992,-0.30908203125,0.18347167968,0.023051582537752458,0.15106643145442647,1.0528538380176,0.73638864162,1.45184206985,0.04367489105532214,0.20793783240374736,968.2419226920628,968.15977388945,968.33603581719,0.0024060108152229205,0.17626192774002902,0.048805232373903225,0.0011867779738235042,-0.7124554594970451,0.36,0.64,-0.005983333006124267,Stairs down
-1.0090527343715998,-1.3671875,-0.72888183593,0.03448963126767503,0.18478294010811247,0.1091015624972,-0.08972167968,0.36450195312,0.014072307769071134,0.11803213414736016,-0.10802246093600001,-0.38195800781,0.15612792968,0.01716914672995778,0.13037428911659768,1.0352221874164003,0.74128944875,1.38067821085,0.03550325387480299,0.18747858900699824,968.3438133052524,968.25981925486,968.45963501625,0.0035362143529220572,0.19981576139002755,0.05916799987656197,0.0006936836834303935,-0.9071586707592734,0.64,0.36,0.5282156400000929,Stairs down
-1.1316894531212,-1.57092285156,-0.77941894531,0.04601761788994789,0.21344189305534284,0.16741699218599998,-0.09387207031,0.41760253906,0.022785943107884416,0.1501934874646886,-0.1233007812468,-0.28576660156,0.10803222656,0.01364274087534869,0.1162166660449146,1.1667724912551998,0.79043454149,1.59271405247,0.0446629724639169,0.21027682406598625,968.420683949168,968.33541907555,968.52130081899,0.002251893774384387,0.1858817434399498,0.04721625606335749,0.0005427289501351799,-0.17498175480411815,0.56,0.44,0.3959747254317041,Stairs down
-1.06654785156,-1.64599609375,-0.71447753906,0.06868018848752151,0.26075541528920604,0.219150390622,0.00122070312,0.66455078125,0.02781842034293563,0.1659525116999025,-0.18358398437320006,-0.56396484375,0.14111328125,0.04823736219575909,0.2185291481102727,1.1317974157896,0.73890395369,1.78499524498,0.0824015289094227,0.2856177753927939,968.4832672020057,968.2868930849,969.1813170251,0.048304546520067625,0.8944239401999994,0.21868127733042658,-0.00037227839353384123,5.379843117957526,0.68,0.32,2.511014290347007,Stairs down
-0.9743225097615,-1.01379394531,-0.94372558593,0.00021243558240009426,0.014502111107562695,0.29180786132509995,0.22595214843,0.36596679687,0.0018423143947444115,0.04270703982714053,0.020996093747899992,-0.0341796875,0.06921386718,0.0008722164412965223,0.029385273129299942,1.0185406696002002,0.97820689799,1.06277817702,0.0003733515502043869,0.01922545278276543,968.5503199824007,968.52231571337,968.59411317488,0.0003119263927000912,0.07179746151007294,0.017572908944539896,0.00012129642726104516,0.8723111358024496,0.57,0.43,0.8535728749810597,Lift down
-0.5689440917937999,-1.0205078125,0.03625488281,0.1650456470958215,0.4042217097396716,0.6158264160117999,0.25122070312,0.9365234375,0.05606359254652226,0.23559065478294558,0.08459960937470001,-0.06433105468,0.34924316406,0.020600727085085885,0.14281008302719744,0.9669126448217998,0.75410559593,1.18244476069,0.01461560858116952,0.12028903730331299,968.5254770283703,968.45949686945,968.56337380687,0.0007987384820285479,0.10387693741995463,0.028120296890471526,-0.0003983497066445826,-0.40151806065325957,0.32,0.68,-0.74353322270208,Lift down
-0.5824194335905,-0.93237304687,-0.02392578125,0.09132136972837675,0.3006794905394995,0.780994873043,0.23840332031,1.29943847656,0.10281342240755904,0.31903806698179993,0.19085815429280004,0.06872558593,0.28784179687,0.001861167825614378,0.0429250060845451,1.0418677758368,0.31356330218,1.50395239226,0.09509066812131392,0.3068220354539432,968.6218900213707,968.52591328508,968.71889669995,0.002965826463172905,0.1929834148700138,0.05418642079470812,0.0016990627232713355,-1.3123736505430117,0.47,0.53,-0.023164342905730047,Lift down
-0.9811267089807,-0.99951171875,-0.92199707031,0.000291416408739132,0.016985353827687566,0.26113769530949993,0.18823242187,0.48754882812,0.004915927130766766,0.06976222372788227,-0.046813964843,-0.119140625,0.06872558593,0.0031487241835415343,0.05583222135743946,1.0203425877279002,0.9947573055,1.04522995729,0.00016926566087252493,0.01294499919906524,968.8286805465311,968.63658667624,968.93346953331,0.008582734037720205,0.29688285707004525,0.09217866725735951,0.0030721140068972305,-0.79810388641764,0.39,0.61,-0.6532951873046414,Lift down
-0.9897204589799999,-1.05151367187,-0.95556640625,0.0007370061028343687,0.02701177598393014,0.22081054687130003,0.09301757812,0.32592773437,0.006881107971071262,0.08253663969026452,-0.0175817871078,-0.08557128906,0.02917480468,0.0011126728534722882,0.033189548429250516,1.0181823009527002,0.97700045111,1.05804605145,0.0005669544008929644,0.023691451135040984,969.0608009794498,968.92619336586,969.13388428365,0.0030875049127307634,0.20769091779004611,0.05528679646718062,0.001545533246883175,-0.009020876387072718,0.39,0.61,-0.8559049606627854,Lift down
-0.9804724121055,-1.00720214843,-0.95422363281,0.0001728292231108542,0.01308055544997022,0.25168334960579997,0.142578125,0.33959960937,0.0029648404815998957,0.054177412976109306,-0.0544152832006,-0.14111328125,0.02978515625,0.0019824414105130755,0.044301433344847256,1.0160383298506002,0.97151559949,1.04911116292,0.0003704087822022375,0.01914953509566786,969.260434868781,969.12767205233,969.4111130774,0.00527601134222279,0.283441025070033,0.07227206395835505,0.0023860503778452323,-0.8436495376401631,0.59,0.41,0.40687025767148854,Lift down
-0.9883300781218,-1.02661132812,-0.96459960937,0.00023151286925830077,0.015139278072805115,0.18985473632499997,0.10864257812,0.30676269531,0.0024891713337135465,0.049641511060567155,-0.09704711913610004,-0.14831542968,-0.06420898437,0.0006782462184498653,0.025912617703840086,1.0125985623749,0.97946304627,1.0523394479,0.0002711112624395854,0.016382922505316002,969.5055533741704,969.40922055675,969.61504623812,0.0035906402818305337,0.20582568137001545,0.059621589034612524,0.0018333799000930732,-0.7122608079376165,0.51,0.49,0.019279284280981645,Lift down
-0.9938110351521999,-1.00280761718,-0.98229980468,2.580083379478439e-05,0.005053991042417522,0.16573120116870002,0.13928222656,0.22583007812,0.0002942889191275855,0.017068861413003202,-0.1074426269494,-0.12487792968,-0.07202148437,0.0001757521385573274,0.013190701921116788,1.0134732759613,0.99473591426,1.02196760399,3.4267778856125227e-05,0.005824525823409488,969.692669505952,969.5725408753,969.80268855791,0.003705200482689644,0.23014768260998153,0.060565241499252256,0.002064344860736612,-0.7014771648482907,0.51,0.49,-0.036272386012937204,Lift down
-1.0071215820289001,-1.04846191406,-0.99072265625,0.0002731609284078175,0.016444735301115045,0.1448193359343,0.12744140625,0.15942382812,7.673451393617621e-05,0.008715914685035325,-0.09371582030869999,-0.10375976562,-0.08508300781,3.299691459092537e-05,0.005715500454467318,1.0218566537382001,1.00467450621,1.06095452667,0.00023961481257491726,0.01540190457213549,969.9076338378532,969.80268855791,970.01373165964,0.003759204517855639,0.2110431017300698,0.061005020061279246,0.002104978225376321,-1.1138388410739666,0.47,0.53,-0.07122800331656547,Lift down
-1.0331994628862,-1.06066894531,-0.99645996093,0.0004331940518008736,0.020708986244692543,0.13307373046559998,0.11730957031,0.146484375,3.179968607865238e-05,0.005610854588907634,-0.09046630858979998,-0.10595703125,-0.08264160156,3.3192411823664495e-05,0.0057324067986691115,1.0456969265237,1.00743245936,1.0719567985,0.00040913432985640203,0.02012567977877612,970.0762529967577,970.01373165964,970.10382628439,0.0006716132383382936,0.09009462475000873,0.025785598809314293,0.0007749592329395895,-0.08150407368604817,0.35,0.65,-1.1552963975785833,Lift down
-0.9992248535120999,-1.01013183593,-0.98889160156,2.28916078408815e-05,0.004760534818953926,0.11871459960509999,0.11352539062,0.13415527343,2.0616131296892782e-05,0.004517739477208026,-0.0860412597616,-0.1015625,-0.07458496093,7.007741417355763e-05,0.008329264075044208,1.0099696439374999,1.00044021751,1.01987236718,2.053539651803892e-05,0.004508884845819255,970.1147890096019,970.10013381125,970.12732009844,7.413175569337172e-05,0.02718628719003391,0.00856682193911126,0.0002567058460422437,-1.2193713114027445,0.39,0.61,-0.28346748726158727,Lift down
-0.9953894042942999,-1.01428222656,-0.95739746093,0.00011314341967909421,0.010583571489922637,0.14656249999600002,0.07458496093,0.3408203125,0.0047981894136805954,0.06892174924901276,-0.0741821289024,-0.13586425781,0.00415039062,0.0013609713676850002,0.03670642524147714,1.0118325887218997,0.98816776754,1.0449938669,0.0001899135264867954,0.013711833984625377,970.1182676287842,970.02826761964,970.17841524587,0.0014242213926489338,0.15014762623002298,0.03754968946239695,-0.00019667706614607947,0.24797664752806536,0.37,0.63,-0.564495798597906,Lift down
-0.9526330566367,-0.97265625,-0.91650390625,0.0002596424851153636,0.016032656057690817,0.3427392578093999,0.29174804687,0.40649414062,0.0014153339886133379,0.03743234762511168,0.0118420410129,-0.02453613281,0.04187011718,0.0002435101086398899,0.01552659033894728,1.0133825765714999,0.99418425698,1.02842338748,7.598847854781249e-05,0.008673441863662566,970.1303178218717,969.95658422787,970.16845317136,0.0020274973577819023,0.2118689434900034,0.04480203549175063,0.0006307752154451013,6.984894059463432,0.31,0.69,-2.618123196168991,Lift down
-0.9776916503887,-1.00207519531,-0.94738769531,0.0001363442326372497,0.011618123355812556,0.2704479980439,0.19970703125,0.34704589843,0.0018004017932486522,0.042218453018984074,-0.022425537109000002,-0.08312988281,0.03747558593,0.001881232554872224,0.04315576704594071,1.0164435023451,0.99807094985,1.03988375511,0.00014989184905575022,0.012181663702680054,970.1435110391765,970.1064762309,970.15641605522,0.00022377745890499756,0.04993982432006305,0.014884209227095256,-0.00026453855868723627,0.10379042316043963,0.25,0.75,-1.257315142186712,Lift down
-0.7687963867155,-0.98876953125,-0.15759277343,0.07297588056475868,0.2687863868560145,0.4948620605441999,-0.16345214843,0.82922363281,0.07421864827866724,0.2710654197714651,-0.20032714843650004,-0.77160644531,0.07189941406,0.06938613113570886,0.2620921017969671,1.0296884064492002,0.62783125703,1.24316421233,0.030529241005678463,0.17385036265599701,970.121057604837,969.94760071681,970.40867310691,0.013459189704802683,0.4610723900999574,0.11543222170501033,-0.0011732192965323747,1.142934387595055,0.61,0.39,1.3712895335135786,Lift up
-1.0237487792936997,-1.0693359375,-0.94799804687,0.0005080764266655244,0.022427564789759703,0.2581628417944,0.19580078125,0.31591796875,0.0008140819407267746,0.02838910215768556,0.0040014648441,-0.05493164062,0.06689453125,0.0008975404620170613,0.029808808386060832,1.0565712511779,0.9763408333,1.10111709139,0.0005861825605102845,0.02408984713328795,970.1022595464991,969.98708741818,970.14873893605,0.001982246695044591,0.16165151787004106,0.04429925764721284,-0.0007699450306668827,0.11870499134378765,0.4,0.6,-0.9991464386670234,Lift up
-0.9888732910124,-1.00061035156,-0.97253417968,5.1966031094505385e-05,0.00717261254938257,0.19044677734010007,0.15124511718,0.24475097656,0.0006961512505606352,0.02625242347012993,-0.09513061523079999,-0.14953613281,-0.03430175781,0.0012673171767526412,0.035420954320643516,1.0124621275778,0.99167513947,1.02692730516,0.00010698481001301882,0.010291499497784014,969.9348020204462,969.86141042213,969.98708741818,0.0012842066906516702,0.12567699604994687,0.035656200354849274,-0.0011133018393098446,-1.0255029263538027,0.41,0.59,-0.4995148576809759,Lift up
-0.9771716308557998,-1.01892089843,-0.95568847656,0.0003459482165798084,0.018506451156664543,0.2769702148400999,0.1357421875,0.40832519531,0.00828416414333266,0.09056115338211707,-0.0321948242157,-0.06555175781,0.01977539062,0.00042604696260674244,0.02053744124716307,1.0204907079396999,1.00154830607,1.04265023129,0.00017951060866825395,0.01333099780892531,969.7432561947103,969.61488875241,969.89209500764,0.007826944864506684,0.27720625522999853,0.08802656085444675,-0.002541687424940178,-1.184096386657374,0.49,0.51,0.2879547581265322,Lift up
-0.9761218261686,-0.98840332031,-0.9609375,5.684052303119674e-05,0.007501474375140181,0.2559204101528,0.22607421875,0.27709960937,0.0001879886846409437,0.013642169834543706,-0.055832519527399996,-0.07897949218,-0.01574707031,0.00023126083793600076,0.015131035310137927,1.0108655292745,0.99960800027,1.02530129179,4.904743251678813e-05,0.006968282298502282,969.4932844736421,969.37172829532,969.66473561925,0.006929661752795134,0.2930073239299418,0.08282732118852561,-0.0027123590468732185,-0.6500788492765697,0.61,0.39,0.44342964167084326,Lift up
-0.9868945312449999,-1.0029296875,-0.97302246093,4.9371767517780355e-05,0.006991283847949713,0.2260888671832,0.17907714843,0.29333496093,0.0008830413914611729,0.029567058993862767,-0.06700805663639998,-0.0927734375,-0.05041503906,0.00013227482485511885,0.011443429407593146,1.0151823495663,1.00684740002,1.0278442672,2.617126703922804e-05,0.0050901428633031275,969.2959673982315,969.14982758336,969.3808904585,0.003848337105223304,0.23106287513996904,0.061724012622083074,-0.002098572371180729,-1.0157068385158596,0.45,0.55,-0.4101928673541375,Lift up
-0.9841247558560999,-1.00671386718,-0.96643066406,0.00017690970889672677,0.013234070114963104,0.22642333984080001,0.1142578125,0.30224609375,0.002911546320536647,0.05368827485896041,-0.0551843261673,-0.09020996093,-0.01525878906,0.000542018827483833,0.023164598835485897,1.0129990909039999,0.97812511547,1.04083103597,0.00024382394170462587,0.015536592364079699,969.0780942589688,968.99015846685,969.14982758336,0.0018437492061364133,0.15966911651003102,0.04272366690810901,-0.0013199215866052053,-1.2916042210697676,0.49,0.51,0.07066939761681268,Lift up
-0.9810887704955445,-0.99438476562,-0.97009277343,2.851446961482109e-05,0.005313393278639012,0.2549045676008911,0.22058105468,0.30224609375,0.0003602461207036945,0.01888595582514691,-0.04196197207267326,-0.091796875,-0.01696777343,0.00043540787874798986,0.020762873347672166,1.014917681007327,1.00430659464,1.02603109067,3.073474330068387e-05,0.005516379148641633,968.8621718967723,968.74444670042,968.99015846685,0.005446658085961656,0.24571176642996306,0.07343521483716009,-0.0024773600288903164,-1.4084034285807887,0.53,0.47,0.02276590903587292,Lift up
-0.9727314650372728,-1.00927734375,-0.94836425781,0.00020524911343876228,0.014253978043714463,0.26512562144474744,0.23413085937,0.34265136718,0.0006426028727537296,0.025221259576894767,-0.09127406880848483,-0.16625976562,-0.00390625,0.002844303250449104,0.05306197239630262,1.0140503058432324,0.99562341394,1.04615888015,0.0001877886721519572,0.013634214934410232,968.6279216898492,968.57531720591,968.74444670042,0.0031511131413878516,0.1691294945100026,0.05585054803417122,-0.0016010667387708157,-1.1154633871503854,0.66,0.34,0.7752922511942515,Lift up
-0.9611804199185999,-0.98986816406,-0.93737792968,0.0001725257933244467,0.013069067885323813,0.32621093749639996,0.27624511718,0.38098144531,0.0007925873091726964,0.02801180886842136,-0.035113525388600006,-0.08813476562,0.02514648437,0.0015180431153419664,0.03876677294009068,1.0167913786723,0.99689022459,1.03146404877,0.00010904237901120572,0.010389993032774068,968.391153351244,968.27348312008,968.59739617074,0.008903471924196042,0.32391305066005316,0.09388523422218258,-0.002107283557857234,-0.36445093699702547,0.73,0.27,0.9744850482002804,Lift up
-0.9779614257772999,-0.98876953125,-0.96850585937,3.5686149756378356e-05,0.005943844568864042,0.2740515136677,0.24877929687,0.31188964843,0.0003715243167596367,0.0191783490841115,-0.019609374998,-0.04650878906,0.0205078125,0.0004310305430307174,0.02065720788491054,1.0162199849388,1.00791558766,1.02848254569,2.4354393681194314e-05,0.0049102800067187995,968.2217965247817,968.09767082054,968.35158707535,0.005566676859232136,0.25391625481006486,0.0742361777749893,-0.0025626335699098827,-1.1199954866934592,0.49,0.51,-0.040555206638229924,Lift up
-0.9818225097613,-0.98864746093,-0.97302246093,1.7910020228853748e-05,0.004210809901499379,0.2501477050738,0.22595214843,0.26928710937,0.00015220295753471115,0.012275216004590878,-0.05340087890299999,-0.06408691406,-0.03088378906,5.3721672362685096e-05,0.0072927673512225965,1.0146894817224998,1.00636504712,1.02350508488,2.8101902235763633e-05,0.005274550522405297,967.987139421434,967.86743793449,968.09767082054,0.004311954906766552,0.2302328860499756,0.06533632494791,-0.002255277900115591,-1.2494489219137437,0.49,0.51,0.006283210180513875,Lift up
-0.9742944335898,-0.99938964843,-0.95349121093,0.00014036447710812875,0.01178816492661379,0.2818884277302,0.20373535156,0.361328125,0.0025803849718630174,0.050542864205982495,-0.0250378417957,-0.10327148437,0.06457519531,0.00312911136382714,0.05565806545496231,1.0172633709824999,0.97852855376,1.05270856355,0.00030729171349373974,0.017441869061508356,967.7636569941284,967.63518065307,967.86743793449,0.004745437103208337,0.2322572814199475,0.06854183198730723,-0.0023393808282293335,-1.0714847150215165,0.41,0.59,-0.31907130625892194,Lift up
-0.9654431152310999,-0.9931640625,-0.94836425781,7.651192220113787e-05,0.00870326392677635,0.30864990234049994,0.26733398437,0.35559082031,0.0006206407149523759,0.024787785455801657,-0.0401306152308,-0.10131835937,-0.013671875,0.0003838859347663841,0.019494796111237486,1.0148618403105,0.98945901826,1.03278136704,8.213182495655033e-05,0.009017233872257325,967.547686584318,967.42594727039,967.65042121732,0.0064960123926538944,0.2244739469299475,0.08019384183793264,-0.0027170093868899747,-1.4042957185639287,0.45,0.55,-0.25823556494930383,Lift up
-0.9592810058561,-0.9931640625,-0.92175292968,0.0004759946420666024,0.021707940843063312,0.2631689453081,0.23657226562,0.28552246093,0.00022839996549247897,0.01503715285010943,-0.059698486324500005,-0.09545898437,-0.01867675781,0.0003681831212365915,0.019091916876631997,0.9968133129961,0.95704895314,1.03286378476,0.0006312807719485977,0.0249993592763717,967.3528017873961,967.23898286844,967.49835967156,0.005706807287433703,0.2593768031200625,0.07516474715289985,-0.002155621610049366,-1.0906079429921836,0.65,0.35,0.5665848517483192,Lift up
-0.9574462890594,-0.9892578125,-0.93225097656,0.0003404213924854477,0.018358027632635082,0.2352050781208,0.21997070312,0.25219726562,7.721571006130889e-05,0.008743200384338437,-0.0562109374974,-0.06982421875,-0.04406738281,6.0587362833004846e-05,0.007744771733542236,0.9875565793304,0.9590949793,1.0227510028,0.00039387832573749466,0.019746886906044703,967.1934749359914,967.17537135371,967.23898286844,0.00028322504643034797,0.06361151472992788,0.016744933441672574,-0.0005270179536492584,0.2999866361156336,0.61,0.39,1.0955324263682247,Lift up
-0.9712143699685146,-0.99255371093,-0.94848632812,0.00016287497067230206,0.012698911260430915,0.2859043838920793,0.22924804687,0.35729980468,0.002160496611333251,0.04625046546550095,-0.018957156945445544,-0.05493164062,0.01440429687,0.0006750677656835854,0.02585312217933052,1.0140514309633664,1.00529948827,1.02408128975,2.6755053097319504e-05,0.005146858418637962,967.1640499102763,967.12694143591,967.19143583322,0.00038303101287840736,0.06449439730999984,0.019474050082411837,-0.0005069225460062251,-1.0394389113463713,0.38,0.62,-0.5235027361871002,Lift up
-0.9612622070277999,-1.00244140625,-0.94738769531,0.0001587016474363113,0.012534537524853008,0.3294946289027999,0.25500488281,0.35168457031,0.0005304779007123657,0.022916655988717945,-0.00119140625,-0.02197265625,0.01599121093,0.00010900639518960354,0.010388278550255934,1.0165040668278003,0.99582015375,1.0431521608,0.00010388564602973992,0.010141340619930016,967.1768236221463,967.14903108883,967.19858598244,0.0001204609201816727,0.049554893609979445,0.010920453790015137,-4.862291701814142e-05,-0.4955208332814003,0.58,0.42,0.13903786795054368,Lift up
-0.9792993164024,-0.98913574218,-0.96508789062,3.974611710809991e-05,0.006272850702592795,0.275456542965,0.24841308593,0.29650878906,0.00016092905493891242,0.012622193327212324,0.0117626953088,-0.0087890625,0.02856445312,0.00011145331640763889,0.01050422692269938,1.0175059906842001,1.00962053064,1.03087197224,3.2712416956916505e-05,0.005690807744718436,967.1687334043073,967.140087693,967.19807529022,0.0002286044542164064,0.05798759721994884,0.015043882799139402,5.7760384760507874e-05,-0.17124028664123658,0.64,0.36,0.34544146964347977,Lift down
-0.9389916992148,-0.98669433593,-0.90441894531,0.0007828102509209111,0.027838501188312957,0.2728051757774,0.22985839843,0.29333496093,0.00031867153116296493,0.017761892237352844,-0.0160693359346,-0.03051757812,0.01831054687,0.00016993450389908753,0.012970549674554917,0.9782732555573999,0.94241330586,1.01352900121,0.0006327659260468146,0.025028748805850175,967.1682014427205,967.140087693,967.18878425369,0.0002463245483271086,0.0486965606899048,0.015616059132951486,0.00040767949276410376,-1.068431575758093,0.43,0.57,-0.4499451744948403,Lift down
-0.9581407603608909,-0.98486328125,-0.91748046875,0.0005269486006838072,0.02284143795398507,0.2950028523324752,0.27172851562,0.3076171875,9.170272269687963e-05,0.009528629227092718,-0.020766456525445544,-0.03295898437,-0.01037597656,3.775396559714465e-05,0.006113931955588724,1.0028383179749507,0.96165730878,1.0264332221,0.0004614280884967822,0.021374271766803437,967.2753517290084,967.18391314494,967.37571028686,0.0037737406969060912,0.19179714192000574,0.06112591044417902,0.00206548587054681,-1.3101065105920855,0.47,0.53,-0.13981942512812623,Lift down
-0.9654199218705,-0.97729492187,-0.94946289062,4.045532206732609e-05,0.006328567677338437,0.2940100097611,0.27551269531,0.32177734375,0.00011336937547266983,0.010594134307150498,-0.0194519042925,-0.03405761718,0.00048828125,6.694636411008352e-05,0.008141062613012057,1.0094762241507,1.00072811858,1.02466452912,3.252948689815595e-05,0.0056748737456594036,967.4801573195139,967.37571028686,967.58512623478,0.0038239754740836485,0.20941594791997886,0.06152833265531264,0.0021205973251925345,-1.0637533997829085,0.46,0.54,0.01500044236335651,Lift down
-0.9680944824174997,-1.00952148437,-0.93237304687,0.00040818695321714535,0.020102365126645518,0.2993359374971,0.236328125,0.34924316406,0.0008443367361070704,0.02891182057128191,-0.03406250000040001,-0.1806640625,0.07470703125,0.007513701890908494,0.08624711515175107,1.0179484537945,0.97747044889,1.05682805738,0.0004330232473702223,0.020704903160761706,967.6595024919749,967.58512623478,967.71702149686,0.0014404488844372164,0.13189526207997915,0.03776300300019643,0.0011380289202490318,-0.9995841180012031,0.34,0.66,-0.601451089610503,Lift down
-0.9783361816367,-1.00451660156,-0.95227050781,0.00018600154854187066,0.013569875941085531,0.2824230956991,0.23425292968,0.34167480468,0.0008998025231281264,0.02984634815009778,-0.035588378903099994,-0.17175292968,-0.00427246093,0.0016636714249163116,0.040583675420877645,1.0201632849474,0.98911737045,1.03632192656,0.00016148967802987165,0.01264415996614931,967.9118671959837,967.71702149686,968.02834230686,0.004910524965799386,0.3113208100000975,0.06972388196408309,0.002268495998785705,0.22484466803942826,0.49,0.51,-0.6344516095229557,Lift down
-0.9747326783418181,-1.00024414062,-0.94909667968,0.00020380181161371637,0.014203633600455979,0.2745854541463637,0.20556640625,0.35278320312,0.0013999248399671426,0.03722612234732459,-0.004782936789797979,-0.04016113281,0.02648925781,0.0003740229057187179,0.019241748791885938,1.0135590944366666,0.98230239111,1.03907860478,0.00018140912924006374,0.013400623634487853,968.1341219103376,968.02834230686,968.28112229722,0.006455693568242363,0.25277999035995435,0.07994050626747694,0.002713451401836223,-0.84646806134658,0.54,0.46,0.5375327649075125,Lift down
-0.8952148437474,-1.01904296875,-0.68322753906,0.00883610200405428,0.09352935894153096,0.47280517577739983,0.29663085937,0.58386230468,0.008847705818265371,0.09359075146659908,-0.04523193359120001,-0.1201171875,0.03015136718,0.0020979896998433163,0.04557422300867984,1.0209639038341998,0.85395747429,1.08448581953,0.004259560743398046,0.06493816394050624,968.2878163727394,968.08296741416,968.46932884933,0.012378506810498565,0.3863614351701017,0.11070104670866297,0.0024333552784673008,-0.7501676175742213,0.46,0.54,-0.5886128703543665,Lift down
-0.9589306640584002,-0.97790527343,-0.94482421875,7.231317383801296e-05,0.008461089888402842,0.33210693359019994,0.28869628906,0.36267089843,0.0003653523235247652,0.01901838059061595,0.036462402339400006,0.00610351562,0.08288574218,0.00039294828669039197,0.019723559613403663,1.0158414493286,1.00022093001,1.03703169163,6.16142096645081e-05,0.007810125963636119,968.5664338377447,968.46932884933,968.67854207968,0.003920706485575672,0.20921323034997386,0.062301680721469424,0.0021442697393310624,-1.155014663483043,0.46,0.54,0.021161354710090268,Lift down
-0.9575585937455997,-0.98498535156,-0.93725585937,0.00012473773474411053,0.011112621535743465,0.3285546874968,0.2958984375,0.36364746093,0.00029767236320132824,0.017166701476093622,0.064116210933,0.03466796875,0.09204101562,0.00018315035884826787,0.013465468995166308,1.0146144868184002,0.99630056739,1.04762396424,0.00013583800770389402,0.011596535156108272,968.7858978476336,968.67854207968,968.87993846533,0.003757489846726628,0.20139638565001405,0.06099110548481116,0.0020741139163315235,-1.2283316193079494,0.46,0.54,-0.178710702598668,Lift down
-0.9431469726528,-1.06201171875,-0.84436035156,0.0028284600346602036,0.052916683893774005,0.3848095703089999,0.25280761718,0.50317382812,0.006420016144182194,0.07972337162175451,0.0042675781242,-0.19177246093,0.10437011718,0.004929335405778492,0.06985729776995893,1.0248109525738,0.96797553761,1.14462427015,0.0014357319201695126,0.03770112201205446,968.9953039426448,968.87993846533,969.08334041674,0.003425228304218396,0.20340195141000095,0.058232087556399796,0.0013343763783147272,-0.8347955616396514,0.5,0.5,-0.1558006775589459,Lift down
-0.9824560546832001,-1.009765625,-0.96704101562,0.0001218560006885885,0.010983507667485038,0.2382348632764,0.17749023437,0.31115722656,0.001354178930773536,0.03661471209043983,-0.059140624995799994,-0.09790039062,-0.01281738281,0.00048595560922330385,0.021933901913044812,1.0135633424673998,0.98966812556,1.03674977564,0.00010614589171261649,0.010251069836631216,969.2135430633099,969.08244077142,969.33851214057,0.005595062191374536,0.2560713691499359,0.07442520788994002,0.00252029954522268,-1.0642621132816343,0.58,0.42,0.3862578311846163,Lift down
-1.0089014638730693,-1.02758789062,-0.95971679687,0.00045783718919677625,0.02129094050810298,0.28459303449485146,0.25817871093,0.30395507812,0.00016363917898248704,0.012728668001467054,-0.003950968828118812,-0.03588867187,0.01721191406,0.00016200832201833336,0.012665081098282498,1.0484191902249507,0.99457565262,1.06729961884,0.0004887372094608112,0.02199768685996148,969.4453316048601,969.33851214057,969.5123453617,0.0025553322079601374,0.17383322113005306,0.05029942235323825,0.0016863028722838075,-1.1377170982468343,0.5,0.5,-0.3325149514539425,Lift down
-0.9793212890577999,-1.02136230468,-0.95935058593,0.0003116130828649089,0.017564081303508585,0.2883178710891,0.26782226562,0.30847167968,0.00018704524545012444,0.01360789451001231,-0.0033386230454,-0.01611328125,0.01684570312,0.0001264838783265302,0.011190131346113186,1.0210888321035,1.00372303133,1.05688864288,0.00020708700676291494,0.01431838457003044,969.5338087628478,969.50710678668,969.55183372865,0.00012934495793490446,0.044726941969997824,0.011315984639241758,0.000279355096538757,-0.1990513089394219,0.48,0.52,-0.6605437584274728,Lift down
-0.9676379394495999,-0.98474121093,-0.951171875,6.547085412321682e-05,0.008050847507063133,0.31131958007430005,0.294921875,0.32385253906,6.119833298957819e-05,0.0077837233802135085,0.007828369137699999,-0.00170898437,0.02136230468,3.238598956180509e-05,0.005662343125084088,1.0165606621263001,1.00286072342,1.03499919491,6.690000402303872e-05,0.008138243298329705,969.5306164181716,969.5154329228,969.54215165868,5.3117294166607326e-05,0.026718735880081113,0.007251628867016103,0.00020042698448522692,-0.4268713928724912,0.4,0.6,-0.501853762885702,Lift down
-1.0048522949184002,-1.04772949218,-0.962890625,0.0009658596656576452,0.030922501014650623,0.2605908203087,0.22021484375,0.28125,0.000262231272871399,0.016112385302700684,-0.0207556152305,-0.04211425781,0.00415039062,0.00015630579204775123,0.012439563261114664,1.0386010410085,1.00236409107,1.07816337434,0.0007524607833540365,0.02729351892886837,969.5433909422416,969.51324642644,969.55938981056,0.00015693553040748679,0.04614338412000052,0.012464596868868721,-0.0003299121343946429,-0.3954372701668398,0.35,0.65,-0.7963793736850303,Lift up
-0.9960925292933999,-1.03173828125,-0.96130371093,0.0006580787761806262,0.02552445863125837,0.28964111327779996,0.2626953125,0.33093261718,0.0002798253297869295,0.01664413039149418,0.0067663574197,-0.01330566406,0.02856445312,0.00012182203651533821,0.010981976878057284,1.037555822573,1.00203555773,1.07143711955,0.0006718474074482913,0.0257900937061851,969.4812625951877,969.3647119694,969.54637364643,0.00295213117443072,0.18166167702997882,0.05406116778877804,-0.001648222334612016,-0.9523489583111746,0.39,0.61,-0.643014134558887,Lift up
-0.9646618652302998,-0.9814453125,-0.95532226562,4.5764474864317035e-05,0.006731034847307944,0.3194165039025,0.26904296875,0.34912109375,0.000474136953392818,0.021665539085351414,0.022161865231000003,-0.00927734375,0.05200195312,0.00024456880759820583,0.015560305894236905,1.0167630423508998,1.00523063489,1.02830167719,4.071384711604481e-05,0.00634875646444911,969.2593840808335,969.14564178918,969.3647119694,0.003968262914312901,0.21907018022000102,0.06267838770397474,-0.0021566781632411745,-1.1499238027793142,0.47,0.53,0.04525605730686873,Lift up
-0.969328292688586,-1.00915527343,-0.93225097656,0.0003058723606279835,0.017400653459673877,0.30277013296696964,0.24975585937,0.36975097656,0.0009320941666888774,0.03037563290033741,0.04292189472494949,-0.02136230468,0.0751953125,0.0009742597252091848,0.031055091657952637,1.0173052774725253,0.99118287746,1.06831543185,0.00039320620885702873,0.01972902503849554,969.052593425125,968.90298657557,969.14564178918,0.004216202481547927,0.24265521360996445,0.0646035183073949,-0.0022302631030258883,-1.0629952696633265,0.46,0.54,-0.19760773564566508,Lift up
-0.9685034179658001,-0.99914550781,-0.93225097656,0.00043512082462508474,0.020754990156076535,0.317270507809,0.26525878906,0.35949707031,0.0008592207263465663,0.02916553649571872,0.0081811523418,-0.02136230468,0.04638671875,0.00026588457392576925,0.016224232745695913,1.0197923759672,0.9826803076,1.04371978207,0.0002974856252687633,0.01716131606305518,968.8393532086764,968.72933263219,968.95544761187,0.0038006384041772627,0.2261149796800055,0.06134029687029147,-0.002072335797535211,-0.8290960437795829,0.46,0.54,0.11175631353540051,Lift up
-0.9631567382769998,-0.98681640625,-0.94909667968,4.8387345640543e-05,0.006921233429392305,0.3104882812466,0.26257324218,0.36535644531,0.000927491163997622,0.03030208330061888,0.0355175781212,0.00476074218,0.06066894531,0.0002968810784563772,0.017143869681953763,1.0131874828192002,0.9963064378,1.02574225799,4.700029126145588e-05,0.006821311336454401,968.6259391657609,968.52436024017,968.72933263219,0.003968406750161818,0.204972392019954,0.06267952363140772,-0.002143131087657967,-1.2917623286576687,0.5,0.5,-0.17634381561939455,Lift up
-0.9735880936686138,-0.99206542968,-0.96362304687,6.663016163859489e-05,0.008122219959340902,0.2823969774866336,0.23571777343,0.33203125,0.000954797887568345,0.03074645415551158,0.000733630493069307,-0.03759765625,0.052734375,0.0007373909635794108,0.027020178810472587,1.0145507211003957,0.99795085348,1.02672928394,5.111258370075212e-05,0.007113825870486018,968.3897371688348,968.32438329266,968.52436024017,0.004056771388065365,0.19997694751009476,0.06337669393963512,-0.0019203788281396677,-0.8484084245958083,0.54,0.46,0.7894769313474961,Lift up
-0.9690014648413,-0.99072265625,-0.95397949218,0.00012871346691615485,0.011288327256373873,0.30994750976229996,0.26965332031,0.35180664062,0.0005677291524901779,0.02370763296841918,0.001334228515,-0.01611328125,0.01818847656,9.179213277915337e-05,0.00953279662278399,1.0176886345196998,0.99868306974,1.03707042268,0.0001245185947234908,0.011102855883792057,968.1971916795508,968.08275364337,968.33664786611,0.004730581410995233,0.253894222739973,0.06843446205593554,-0.0023311503903040796,-1.076942694712626,0.59,0.41,0.2769774496020556,Lift up
-0.9622558593718,-0.99084472656,-0.93225097656,0.00016597184268398336,0.012818429086949131,0.30953124999719994,0.28186035156,0.34875488281,0.00037035643452994405,0.019148181902850323,-0.000985107422,-0.0185546875,0.01721191406,9.203657200828794e-05,0.009545480935406296,1.0110675967927998,0.98635654219,1.03110372343,0.00011242421406952901,0.010549880185520295,967.9641677867455,967.86512757521,968.08275364337,0.003576366077224479,0.21762606816002972,0.059502961409094876,-0.001981708929188435,-0.699477386777426,0.55,0.45,0.36927858601927394,Lift up
-0.9701477050749,-0.99987792968,-0.93225097656,0.0002068345519399557,0.014309654308212905,0.3014404296843,0.25634765625,0.36083984375,0.001169801360467623,0.034030917514268504,-0.0092211914044,-0.03967285156,0.01708984375,0.0001606343430410024,0.012610630420823235,1.0165477848268998,0.98702230669,1.0581198543,0.00029336504435894286,0.017042047820474904,967.7507697425036,967.62723342552,967.8749108986,0.005465867544829154,0.24767747307998889,0.07356091944355278,-0.0025233600970713437,-1.0584667925204632,0.47,0.53,-0.09269506419548376,Lift up
-0.9800195312463,-0.99194335937,-0.96838378906,5.302311193473652e-05,0.007245197086028037,0.2544445800742,0.21228027343,0.28173828125,0.0004085022678192093,0.02011012792453139,-0.023630371088699996,-0.04504394531,-0.00769042968,8.256121717828101e-05,0.00904077458000686,1.0130379825215001,0.99808952255,1.0197171082,3.17293834821201e-05,0.005604648931672607,967.5237523408382,967.42909052365,967.63554482822,0.0034806036695142315,0.20645430457000202,0.05870091679709176,-0.0017016301329714097,-1.4380432627519122,0.59,0.41,0.2919164638258092,Lift up
-0.9679467773398,-0.99597167968,-0.94055175781,0.0004736501700863361,0.021654414524190507,0.20682739257470004,0.17346191406,0.24572753906,0.0004321032868216594,0.020682897619855947,-0.0087268066384,-0.03039550781,0.01403808593,0.00011118117451040236,0.010491394700672467,0.9900775766050002,0.96208997947,1.02482087791,0.0005331806302127016,0.022974960803243488,967.3467963692677,967.21732481753,967.49271362452,0.0063967596381450595,0.27538880699000856,0.07957884167141169,-0.0026810572808174922,-1.1882955763975573,0.47,0.53,-0.15114401876552924,Lift up
-0.9583642578078999,-0.97692871093,-0.93310546875,0.00025342500571587015,0.01583953142169021,0.2432397460905,0.22387695312,0.26623535156,0.00017814768085133622,0.013280293823663048,0.0163317871056,-0.00378417968,0.03002929687,8.16798254978198e-05,0.00899238718265854,0.9889774546301999,0.9620554941,1.012787148,0.00032935980969173807,0.018057303552712976,967.1891727670403,967.15868397549,967.2295521626,0.00038266701061440974,0.07086818711002252,0.019463821323374954,-0.0004991899427571988,-0.7193434356580459,0.48,0.52,0.1414638139656632,Lift up
-0.9850292968705,-1.01196289062,-0.97534179687,8.139872793473556e-05,0.008976900392417652,0.25931152343430003,0.25329589843,0.26806640625,1.6006580504568635e-05,0.003980768104213425,0.026600341793699998,0.01062011718,0.041015625,6.0297050571051364e-05,0.007726194410273459,1.0189794883825003,1.00978387192,1.04380513348,7.039156853688625e-05,0.008347913083610622,967.1993551448433,967.19153991674,967.21241599061,4.293446878721607e-05,0.020876073869999345,0.006519595393837251,4.256242976749501e-05,-0.8185125442577421,0.61,0.39,0.6929419260954431,Lift up
-0.9947753906219998,-1.00317382812,-0.98461914062,3.433107125564729e-05,0.005829902275603839,0.1825439453088,0.17468261718,0.18920898437,1.5893367809486473e-05,0.003966665366701811,-0.0609716796836,-0.07250976562,-0.05285644531,2.4052725894213617e-05,0.00487977444512259,1.0132437705744,1.00391508165,1.0220349799,2.8799255274378902e-05,0.00533959387234976,967.1455336211786,967.13569060932,967.15924809532,3.510157059021551e-05,0.02355748599995877,0.005894960125761102,-0.00018157212602718285,-0.42764609317195523,0.51,0.49,0.02636630305648428,Lift down
-0.9664892578084001,-1.00659179687,-0.94409179687,0.0004783015299255416,0.02176048056974584,0.17457031249640007,0.15893554687,0.18811035156,4.353056049375296e-05,0.006564697623563131,-0.05351562499559998,-0.06127929687,-0.04541015625,2.163708810942925e-05,0.00462825207052673,0.9836094964963997,0.96151211468,1.02346190212,0.0004955499725520564,0.02214936732339179,967.1449671167986,967.13572575185,967.15704149397,3.2571179406380394e-05,0.021315742120009418,0.005678509277294226,8.125866101452884e-05,-0.837944701822376,0.53,0.47,0.2699146056189149,Lift down
-0.9783544921832,-1.00952148437,-0.93200683593,0.0006150521654529979,0.024675932480829735,0.16733398437200006,0.14672851562,0.17724609375,5.033040286995936e-05,0.007058831265957542,-0.049848632808,-0.06408691406,-0.03637695312,5.453870754372831e-05,0.007348014729727413,0.9938677324924001,0.94810440838,1.02456373752,0.0006088012789531096,0.024550219269154776,967.2445618873,967.15704149397,967.33440728904,0.0033165142212360503,0.17736579506993166,0.05730051552144788,0.001970849234529268,-1.2709359018062645,0.53,0.47,0.11599728231737551,Lift down
-0.9412988281211999,-0.99047851562,-0.73559570312,0.0033573602425580164,0.05765229084895444,0.39546874999639997,0.17993164062,0.70458984375,0.021717666038486166,0.14663045174213066,-0.04066406249759999,-0.15441894531,0.01477050781,0.0017799287371264862,0.0419777256381908,1.0340684432483997,0.99516289543,1.13806573952,0.0013953961305028504,0.03716775711820424,967.4357644042123,967.32168671665,967.53465123613,0.0028232256711714504,0.2129645194800105,0.05286769726836735,0.0007855879784165127,-1.0565918246519834,0.49,0.51,0.3470993453847197,Lift down
-0.19588867187080006,-0.68591308593,0.03051757812,0.04654578430419473,0.2146632862441847,0.9146240234339998,0.68872070312,1.06274414062,0.011822051472211938,0.10818424542182571,-0.11752929687360002,-0.36486816406,0.154296875,0.026121776512645054,0.16081218469854391,0.9852862955096,0.92944386439,1.08213955719,0.001594185535174237,0.03972711517115854,967.6579102780987,967.47728910597,967.83449823906,0.005146692501539253,0.35720913309000935,0.07138084880781302,0.0018014156736995102,1.0999817743460323,0.64,0.36,0.9309003906454216,Lift down
0.18518432616909997,-0.01818847656,0.38317871093,0.02154394155001587,0.1460428092530259,0.9121215820274,0.72241210937,1.0703125,0.009021492167078395,0.09450543500459437,0.0393701171896,-0.38562011718,0.76110839843,0.11726487299196707,0.3407230902977481,1.0060091918421,0.91371115428,1.0758073816,0.00212780884618579,0.04589695804434028,967.8541573279158,967.64096573266,968.06140441785,0.011861548271622469,0.4204386851899926,0.10836481342625125,0.0030138089341730945,-0.5872737944264328,0.49,0.51,0.1131934490077813,Lift down
0.15221679687160003,-0.01403808593,0.26843261718,0.007052478741873559,0.08355808730730271,0.7334765624972,0.61779785156,0.875,0.005729334378492048,0.07531295396349241,0.6375390624955999,0.35327148437,0.80676269531,0.025378263984165803,0.15850703878479386,1.0015198693187997,0.85723379587,1.05355079996,0.002374045337970307,0.0484799431166189,968.2045183675219,967.96145898126,968.60244743454,0.05380311947191219,0.6409884532799879,0.23079230549824029,0.006867633046524618,-1.3913106326273645,0.61,0.39,0.5591646909493834,Lift down
0.08231445312200002,0.05041503906,0.10388183593,0.00019425902702329946,0.013867820187508434,0.6948583984344,0.64270019531,0.74743652343,0.0013293600082443255,0.03627762958300724,0.7651269531216,0.720703125,0.7939453125,0.00035933282642250825,0.018861057715787923,1.0374694664775999,1.00560872927,1.07736522744,0.0005498443731557418,0.0233312222016804,968.2501451083597,968.08208595527,968.44583889996,0.012919799605059231,0.36375294468996344,0.11309554195019643,0.0030871861109420277,-1.416237106550268,0.48,0.52,0.07732665410049436,Lift down
0.18104980468360002,0.09680175781,0.28454589843,0.004301570497391771,0.06525760333032354,0.7153027343703999,0.58679199218,0.85424804687,0.005595694021856305,0.07442941005837506,0.7175732421839999,0.64135742187,0.79174804687,0.0015513341595298838,0.03918954985623827,1.0339264322316,0.95995343225,1.0970075394,0.0016955928273886655,0.04097117156141351,968.4648933986496,968.29174334724,968.61561358514,0.008992207453617366,0.323870237899996,0.09435192302799765,0.0028723112540184636,-0.875523790459849,0.41,0.59,-0.31650398653103967,Lift down
0.06493164062159998,0.01635742187,0.10827636718,0.0007993198644913557,0.02813052907156995,0.7228710937463998,0.66955566406,0.82165527343,0.002153541439675376,0.04617365076836163,0.7026416015583998,0.63159179687,0.76879882812,0.002052491939441969,0.04507734486466067,1.0123807643616,0.95778433305,1.04737220173,0.0005095394247194658,0.02245983148806489,968.3969016991197,968.22854555908,968.61561358514,0.008518962276273922,0.38706802605997837,0.09183557400872051,9.168060795520704e-05,-0.5613533571652303,0.48,0.52,0.17997961372305019,Lift down
-1.1484374999947997,-1.45495605468,-0.95959472656,0.0226656752400932,0.14979659037405446,0.1706494140612,-0.08654785156,0.3837890625,0.025138835087074297,0.15775755682756867,-0.19696777343520006,-0.46545410156,0.11999511718,0.030507186542115258,0.17378755616180955,1.1999616239992,1.02895471144,1.50591758387,0.024693836887710353,0.1563550399534126,968.47515172094,968.37239233558,968.57409445014,0.0022845293867102758,0.20170211456002107,0.04755716657711194,-0.00025026604309344024,-0.12269485173899541,0.36,0.64,-0.4252605022106021,Stairs up
-1.1247021484328001,-1.39245605468,-0.87561035156,0.017363828938309095,0.13111136735205686,0.21615234374760006,0.10461425781,0.41735839843,0.006828489351703614,0.08222046252719926,-0.1727929687484,-0.4287109375,0.03747558593,0.019386284422935985,0.13853671563418352,1.1679765676268,0.96634015171,1.49908757771,0.02071487132040903,0.14320517660756868,968.3711467622227,968.32176634372,968.4608716974,0.002004822757645576,0.1391053536799518,0.044550808410949404,-0.000527902041774011,-0.5590197257804816,0.64,0.36,0.8640750932276314,Stairs up
-1.1369531249959999,-1.38830566406,-0.93237304687,0.016488101651242027,0.12776236000767052,0.23598144530840004,0.03552246093,0.43591308593,0.011664272173401413,0.1074598969461045,-0.17941894530959998,-0.42517089843,0.08020019531,0.02167014642169303,0.14646994557750098,1.1866228988104002,0.9976891849,1.50105243756,0.022011313097154244,0.14761842691948285,968.2960950021337,968.24429078566,968.39514934429,0.001810949824432958,0.15085855862992048,0.042341945233876875,-0.001111453116218277,-0.034116568964084326,0.6,0.4,1.0098533388484872,Stairs up
-1.0839990234339998,-1.33947753906,-0.86242675781,0.0170893974014429,0.1300711475594356,0.2082617187476,0.08752441406,0.2724609375,0.0027040759964125608,0.05174007379631802,-0.19208496093480001,-0.35314941406,0.0185546875,0.014343902414259369,0.11916569720400572,1.1279730460292,0.9067298178,1.40084930314,0.016965927277911914,0.12960041668579927,968.2481888396019,968.18744594409,968.33970540145,0.0015407357349403932,0.15225945736005997,0.039055452597441365,-0.0005981441317560611,0.3598292119906512,0.48,0.52,0.760783525883043,Stairs up
-1.0231835937455998,-1.30444335937,-0.83325195312,0.015210364707800895,0.1227121064146602,0.13001464843399999,-0.07275390625,0.28759765625,0.01020170452601372,0.10049720135781684,-0.21437011718520005,-0.37866210937,0.05932617187,0.01617004331870795,0.1265240802595335,1.0667120924607998,0.90095652837,1.34511610939,0.013186490590502862,0.11425684086564722,968.1991667891201,968.14680518951,968.28469522329,0.0011040121453400047,0.13789003377996778,0.03306012740275822,-0.00033026785385615866,0.5768312269662808,0.52,0.48,0.7791520107105764,Stairs up
-1.1688818359339999,-1.400390625,-0.96520996093,0.011455325309848701,0.10649306107324652,0.20307617187200003,-0.08276367187,0.39782714843,0.01706191144765213,0.1299665046586066,-0.15748046874760002,-0.37048339843,0.1240234375,0.01905198882264364,0.1373370632219038,1.2111957006004,1.04039948714,1.45748901335,0.012548771883746018,0.11145978721004521,968.1553647614327,968.11435565262,968.23669659374,0.0012045107513085772,0.12234094112000093,0.034532095850027575,-0.0004923686468666209,-0.5823803003927237,0.56,0.44,0.6304470723073717,Stairs up
-1.0530224609344,-1.3544921875,-0.85693359375,0.021247442178076892,0.14503436750058976,0.22137695312160002,0.06384277343,0.41711425781,0.007876539615762153,0.0883050067640818,-0.21685058593360004,-0.44079589843,-0.02124023437,0.009869807994817738,0.09884892470264693,1.104286978646,0.89143258004,1.46856323535,0.024285207986979616,0.15505597668941956,968.1196647847481,968.02688007414,968.23392052115,0.0020752713493037956,0.20704044701005841,0.045326798208242744,-0.0002280255618403602,1.4437339301916792,0.48,0.52,0.6636333208111483,Stairs up
-1.1382812499964001,-1.46081542968,-0.95825195312,0.020895528070642797,0.1438282753492385,0.20573242187319998,-0.07446289062,0.53625488281,0.035137384683946754,0.1865100824006769,-0.24176757812200006,-0.49841308593,0.12036132812,0.035718960086899156,0.18804725599175906,1.2066705573712,0.97833302787,1.56198198314,0.031557692343503516,0.17675439293004427,968.0968563973661,967.9838236028,968.23509376871,0.006178163649518265,0.2512701659100003,0.07820730153267713,0.0005227526233951284,-0.8256565773370794,0.52,0.48,0.4096181698318007,Stairs up
-1.1493066406216002,-1.44067382812,-0.92590332031,0.01880855671101442,0.1364568471858568,0.20976074218520005,-0.05834960937,0.53674316406,0.033600294083625866,0.1823850079989844,-0.21757812499839996,-0.59191894531,0.12243652343,0.041488480085584985,0.20266621643660576,1.2148406571608,0.93464293641,1.59518840804,0.029662726157764666,0.17136539585396762,968.0411556993168,967.9455198784,968.22105192566,0.007000035121190798,0.2755320472600715,0.08324683038998476,0.0004524883343978804,-0.2788677772161696,0.52,0.48,0.8407697314330893,Stairs up
-1.1738183593712,-1.44262695312,-0.93811035156,0.02024967010558246,0.1415880411776596,0.1931835937492,-0.11169433593,0.5,0.039382915399455945,0.1974565426757528,-0.22926757812239995,-0.64135742187,0.08923339843,0.051341902943865037,0.22545173300382143,1.2431495947839997,0.94917381243,1.545756022,0.03250191174050588,0.17937918670542807,968.050294862623,968.00067935416,968.13443119745,0.001619976282059595,0.13375184329004242,0.04004717866765397,0.000428328054154984,-1.0651729316114658,0.48,0.52,0.3846118637940567,Stairs up
-1.1483935546824,-1.39245605468,-0.98901367187,0.012724938874300516,0.11223942928203756,0.191044921872,-0.08142089843,0.46301269531,0.021205197054283788,0.14489011382334183,-0.1544287109368,-0.50927734375,0.11193847656,0.04264312792174363,0.20546702081484075,1.199429146148,1.00174315336,1.52185251485,0.016496363592386563,0.12779436590265902,968.0699694245425,967.98532864082,968.21476041941,0.003057143147977846,0.229431778590083,0.05501428647631511,-0.0006776299760752704,-0.16447598917253936,0.56,0.44,0.4797326511296115,Stairs up
-1.0698242187456,-1.30944824218,-0.78576660156,0.02251197352534495,0.14928782197517484,0.18192871093399998,-0.04443359375,0.37878417968,0.012516359945520136,0.11131575066478658,-0.19175292968519997,-0.359375,0.03942871093,0.015173852660363724,0.12256473446207962,1.1136018575999997,0.84345732133,1.37526315641,0.024224412059720587,0.15486177042486432,968.0380100866133,967.98268964463,968.10252070294,0.0015703915492907385,0.11983105830995555,0.03942952743563928,-0.0007831530885877465,-1.0741761019867435,0.56,0.44,0.5094156417490222,Stairs up
-1.0327880859344,-1.31140136718,-0.71936035156,0.024949652979937578,0.15716283418842447,0.13661132812239998,-0.06567382812,0.28662109375,0.009924217089086054,0.09912101148694556,-0.0847753906244,-0.34130859375,0.08911132812,0.018638494182635065,0.13583854107288076,1.0584897779272,0.72656728886,1.32098508102,0.02533068980548102,0.15835840017954908,967.9761318550792,967.94344057223,968.08229725901,0.0007905819516004617,0.13885668678005914,0.027976349513195196,-1.4310389607634492e-06,5.673649030576172,0.6,0.4,1.9929717939138143,Stairs up
-1.1283642578083999,-1.28564453125,-0.86657714843,0.014219741725375405,0.11864882767276569,0.12092285155919999,-0.0576171875,0.25024414062,0.010857120908811649,0.10367521256174753,-0.13112792968480003,-0.28857421875,0.10290527343,0.014491890415739188,0.11977884417367617,1.1531671245672,0.90375156315,1.33851154704,0.014546885463882562,0.1200059023933562,967.8921601624097,967.84749741308,968.08229725901,0.0023863367810828796,0.23479984593006975,0.04860528174254369,-0.0009877478502193211,7.090346126595019,0.6,0.4,2.5699005991414854,Stairs up
-1.1155224609343999,-1.330078125,-0.91650390625,0.013534808255085453,0.11575603730490518,0.19615722655920004,0.08312988281,0.36962890625,0.005462011809377477,0.07353496917306555,-0.1379785156232,-0.376953125,0.0751953125,0.017181494885789603,0.13042116368493156,1.1493332089147998,0.95415161688,1.41720853346,0.01692504630049918,0.1294441803925313,967.8083378675155,967.75205645483,967.91066761372,0.0021462064187114005,0.15861115888992572,0.04609494933855863,-0.0009920511159036047,-0.2425103589952955,0.64,0.36,0.858362021004958,Stairs up
-1.1012939453095998,-1.32788085937,-0.88830566406,0.014462077256344552,0.119655574394932,0.20189941405759998,0.10827636718,0.35021972656,0.0037434745076530933,0.06087725160169899,-0.1594238281204,-0.34057617187,0.02453613281,0.010420542774534627,0.10156937209015955,1.1362198826864,0.93247799458,1.37591833095,0.016537268812633107,0.1279527105008205,967.7459627050463,967.67549347436,967.88908990528,0.001847740436576439,0.21359643092000624,0.04276988464107279,-0.0008142593539297453,2.721306302079893,0.64,0.36,1.2115712478271983,Stairs up
-1.0583007812464,-1.27014160156,-0.7392578125,0.017518035088957166,0.13169227288670962,0.07519531249759999,-0.27758789062,0.28137207031,0.022669925833584893,0.14981063572139677,-0.19153808593599994,-0.53576660156,0.17456054687,0.03611538858010445,0.18908790203051967,1.1042526583084,0.77967409454,1.36143221245,0.018695050098502707,0.136044476541746,967.6943776467751,967.61916950471,967.78236782113,0.0021715222673356926,0.16319831641999372,0.04636601173987618,0.0004991839476717103,-0.927797336377334,0.56,0.44,0.32644332420527683,Stairs up
-1.1171826171844002,-1.35144042968,-0.91748046875,0.01735299702811683,0.1310704660014439,0.09833984374920003,-0.16918945312,0.28991699218,0.017651659068773792,0.1321935795645388,-0.13669433593480002,-0.35009765625,0.00244140625,0.009770610115873029,0.09835092279543847,1.1415057793308003,0.94019023821,1.42155690355,0.017924379581428375,0.13321086962261786,967.627425610452,967.56704020443,967.70683369405,0.0014854914999208088,0.13979348962004678,0.03834887983920261,-0.0001225472723449686,-0.6872064696512861,0.56,0.44,0.4713919459189661,Stairs up
-1.0508886718719999,-1.38745117187,-0.76171875,0.02013967774076025,0.14120297788415317,0.17132324218440004,-0.01403808593,0.43505859375,0.014513603508807404,0.11986854246932066,-0.19830566405919994,-0.43701171875,-0.0322265625,0.012526396693476688,0.11136037323277037,1.0922647718079999,0.7705850502,1.44577176297,0.026979131119076582,0.16342992323282116,967.6227412726707,967.56495827449,967.7238064745,0.001571043988031219,0.15884820000997024,0.03943771732936513,0.0005485099352158709,-0.03854162367462033,0.56,0.44,0.9035457917905826,Stairs up
-1.1431933593716002,-1.4306640625,-0.923828125,0.021127324489384473,0.14462382668319432,0.1154687499984,-0.19091796875,0.39501953125,0.028409930093424386,0.1677075752388369,-0.1767529296852,-0.55236816406,0.1513671875,0.043409416746895246,0.20730490244908897,1.1915332796627995,0.92996136454,1.4758506704,0.02397104581755618,0.15404978208157458,967.5987193784574,967.48921102684,967.86729282807,0.009751213314543483,0.378081801229996,0.09825325023325207,0.0002122238523103067,1.7468780698650495,0.6,0.4,1.4416834516397177,Stairs up
-1.1486572265583999,-1.41491699218,-0.89416503906,0.02361198386746343,0.15289167416438607,0.23357910156079995,-0.17321777343,0.57690429687,0.0473180420701003,0.21643673821557952,-0.2173730468727999,-0.49719238281,0.05212402343,0.026560738254856095,0.16215773454358426,1.2184043005611997,0.90714494319,1.52911292537,0.03356614064865933,0.18229229068222477,967.5915970259041,967.497200821,967.81318123424,0.00670390554177526,0.3159804132400268,0.08146696561402976,-0.0006240097137132548,0.10186380823012975,0.56,0.44,0.8594750902380782,Stairs up
-1.1806298828083999,-1.40393066406,-0.95446777343,0.01842877060459748,0.13507213960899378,0.25423828124720005,-0.10668945312,0.57849121093,0.038582247338617336,0.19543905665253083,-0.22595214843559996,-0.50988769531,0.07775878906,0.03571324155707332,0.18803220240560548,1.2549273111668,0.96221269338,1.55569603091,0.026800866471870514,0.16288909664907533,967.5966813449515,967.49452598627,967.79393779241,0.006809130728431076,0.2994118061400286,0.082103833169632,-0.0005996055388599998,-0.3916996225418474,0.4,0.6,0.42542862672566456,Stairs up
-1.1317419433561,-1.42053222656,-0.90209960937,0.024320440417135807,0.1551684117756074,0.22038574218469997,-0.06860351562,0.46057128906,0.03342877373476098,0.181918899505833,-0.2246264648408,-0.5146484375,0.10070800781,0.026261223993624155,0.16124085013943554,1.1982805191467998,0.91500991237,1.52746752264,0.027435233953656487,0.16480558732676487,967.6059799320151,967.50187052916,967.74915009541,0.005856460645085964,0.24727956624997205,0.07614391662263706,4.2633136444898054e-05,-0.9028224893030066,0.56,0.44,0.40031225646207874,Stairs up
-1.1099902343712,-1.27734375,-0.93127441406,0.01199860462020292,0.10898907548007226,0.14252441406040003,-0.09606933593,0.34631347656,0.01844720416518421,0.13513967634833363,-0.11593749999880004,-0.35913085937,0.11547851562,0.023174330778351914,0.15146810710696954,1.1436498197896001,0.98967753597,1.33177614985,0.011092990675544144,0.10479532799122632,967.5716457191145,967.51773240767,967.6692367696,0.001612738145748527,0.15150436193005135,0.039957612094456314,-4.3691725675841004e-05,0.40141606380962935,0.48,0.52,0.8772302022286208,Stairs up
-1.2234619140596,-1.42797851562,-0.92858886718,0.013710288086434591,0.11650401368867189,0.11947265624760003,-0.21203613281,0.28271484375,0.02411999789088979,0.15452766066947654,-0.13605957031200003,-0.45678710937,0.15051269531,0.04244003151296496,0.20497714798931932,1.2637083018920001,0.94999685694,1.44622496077,0.012276686323105331,0.11024481602267872,967.5123013170546,967.45485710785,967.63715749314,0.0020034413907190816,0.18230038528997738,0.044535457523325064,-0.0008273619579321862,0.3638055354604677,0.48,0.52,0.8404958836380856,Stairs up
-1.1680712890588,-1.40588378906,-0.982421875,0.013785330550628848,0.11682241756239493,0.1896630859348,-0.134765625,0.45703125,0.02064674733842566,0.14296950676644796,-0.15280761718560001,-0.34252929687,0.02258300781,0.010121205840034111,0.10009991898914689,1.205104165264,1.04295550562,1.473265049,0.015701507181630443,0.12467755254982406,967.4669662092773,967.39539610179,967.57393170243,0.00218869296171915,0.1785356006399752,0.0465489638134079,-0.0007611848345500309,-0.7188725297185901,0.6,0.4,0.3204111561425741,Stairs up
-1.1107861328083999,-1.29943847656,-0.96215820312,0.006943931579604467,0.08291255793791688,0.15890624999600003,-0.00793457031,0.36401367187,0.009429662251525297,0.0966196958648186,-0.0926416015604,-0.34594726562,0.09619140625,0.015621827009237324,0.12436080065336083,1.1365023966772,0.9680774877,1.36482661628,0.007795216611840259,0.08784796210340827,967.3958386234256,967.33279412222,967.55437522136,0.0029125253079440258,0.22158109914005308,0.05369730025675951,-0.0002579043421825964,3.325249845588857,0.72,0.28,1.8597987573752865,Stairs up
-1.1546972656204,-1.32409667968,-0.98205566406,0.008699145606094243,0.09280169260327799,0.18899414062120004,-0.01892089843,0.32360839843,0.007692260308437652,0.08726590230641791,-0.08214355468560001,-0.29016113281,0.05322265625,0.01166791737641378,0.10747668678671503,1.1807653315064002,1.00922766103,1.3708436852,0.009458672696963663,0.09676820743402259,967.3170184503819,967.2539979953,967.43386474628,0.0022193572197781466,0.179866750980068,0.04687391222823592,-0.0006599221913536993,0.9951653527007829,0.6,0.4,1.2503713187857848,Stairs up
-1.0826855468715997,-1.27673339843,-0.82531738281,0.012696646536282882,0.11211458455936968,0.1611914062468,-0.07421875,0.27978515625,0.011020489557509037,0.10445230807375176,-0.1767089843716,-0.40954589843,0.05346679687,0.017262413043480317,0.13072791940915113,1.121743576772,0.91197182314,1.31848088022,0.01179578750195178,0.10806400708345154,967.2555015490611,967.18671324759,967.33385292367,0.0018458258877259734,0.14713967607997347,0.042747720744487815,-0.0009711496109613409,-0.5474906335308534,0.56,0.44,0.23977979143177633,Stairs up
-1.1411376953092,-1.42834472656,-0.93347167968,0.023692370665236405,0.1531517122287049,0.1191748046856,-0.19250488281,0.36828613281,0.024090008927457315,0.1544315668449386,-0.2026367187476,-0.37805175781,0.09838867187,0.018123265468235485,0.13394787349395706,1.1830387543615999,0.99949977701,1.46979941254,0.02335899777842835,0.1520704040918024,967.2143270318114,967.13421171031,967.28446696698,0.0021060926576287305,0.1502552566699933,0.04566214768331033,-0.00033943334573120656,-1.218396867882852,0.52,0.48,-0.1607845230567636,Stairs up
-1.0477899108239392,-1.29675292968,-0.8232421875,0.02319903135700968,0.15154107597261832,0.14334137270989902,-0.12414550781,0.2861328125,0.012206104440938234,0.10992183794263237,-0.1330529415217172,-0.38671875,0.11022949218,0.016549227630751895,0.12799243616436776,1.0776671400851519,0.83315173892,1.33283560622,0.02644374721784995,0.16179196104903942,967.1430349375105,967.08415478857,967.2844078129,0.0036405324235860848,0.2002530243299816,0.06003131989888601,-0.0003453343013303245,0.13682411762342417,0.64,0.36,1.1144649200878247,Stairs up
-0.9695422363249999,-0.97436523437,-0.96166992187,1.2651385385927916e-05,0.0035390495238225524,0.2550268554659,0.24035644531,0.27221679687,0.00010179942908304246,0.010038995706354897,-0.16840698241719998,-0.17993164062,-0.15148925781,7.727504227693934e-05,0.008746558857869187,1.0166542398303,1.0087470741,1.02449628065,1.5880793826631918e-05,0.0039650959494526225,967.1909239122715,967.17906712067,967.19701407671,2.0092671101366095e-05,0.017946956040077566,0.004460016187229866,4.096190127369521e-05,-0.058670496645913506,0.39,0.61,-0.7598024210314903,Lift down
-0.970971679684,-0.98571777343,-0.9658203125,1.1576546559590039e-05,0.0033853775408356065,0.24309082030899995,0.23229980468,0.25146484375,2.6873867923571654e-05,0.00515801601823181,-0.17213989257389997,-0.18676757812,-0.15698242187,5.777648451728962e-05,0.007562983516583698,1.0156721504850998,1.0088161306,1.02769494671,1.6807719953518935e-05,0.004079171822071699,967.1916753371744,967.17993447142,967.19631919121,1.6058224740558494e-05,0.016384719790039526,0.003987184782920514,-2.9245955083323432e-05,0.9107714305950059,0.28,0.72,-1.2309822805904815,Lift down
-0.9369360351520001,-0.98571777343,-0.90051269531,0.0007551338877496775,0.027341955834800494,0.2472302246052,0.21520996093,0.27172851562,0.0002509875414888918,0.015763174365399975,-0.16933593749610001,-0.21166992187,-0.12487792968,0.00037287040193574665,0.019213060607732157,0.9840233375401,0.94741226319,1.03053520456,0.0007170209513446019,0.026643024262105755,967.1866111931552,967.18033550365,967.19898811735,3.0193604834375466e-05,0.018652613700055554,0.005467327389687918,3.772211263424582e-05,-0.33373802869772184,0.6,0.4,0.8283754758865258,Lift down
-0.9488061523395999,-0.97204589843,-0.90051269531,0.0006192930960554915,0.024760859538694058,0.25523925780810003,0.24597167968,0.26416015625,2.9205577545079224e-05,0.005377129510215318,-0.1670849609331,-0.18054199218,-0.14050292968,0.00010317958966513131,0.010106819171652374,0.9967272415243998,0.95266910499,1.02086947662,0.0005823687878520816,0.02401135356396138,967.2781559080448,967.19898811735,967.37943503466,0.0029605261043923565,0.18044691730995055,0.05413797967553308,0.0018646685316596088,-1.314893735807912,0.47,0.53,0.1283465436727186,Lift down
-0.9947631835897,-1.02185058593,-0.95788574218,0.0005634955384334169,0.023619072442606266,0.2646887207002,0.25622558593,0.27661132812,3.156820180528728e-05,0.005590395315828247,-0.16408325195060003,-0.18676757812,-0.13562011718,0.00015418759952488166,0.012354987799655362,1.0424684933750001,1.00653038235,1.07064722911,0.0005438616267308151,0.023203943855808366,967.4860957006472,967.37943503466,967.58590654062,0.0038092942093719308,0.20647150596005304,0.061410107207838446,0.0021175680987700713,-1.331358088319612,0.47,0.53,-0.07442711255300297,Lift down
-0.9861254882766,-1.01818847656,-0.9658203125,0.0003457906932491711,0.018502237332730313,0.25750732421489997,0.24462890625,0.27185058593,5.0893185099644524e-05,0.007098186616921823,-0.1556921386683,-0.1689453125,-0.13757324218,5.872028495099534e-05,0.007624505367660605,1.0310710574304998,1.01083232827,1.06410069362,0.000340270047485936,0.018353946360689755,967.6170431250098,967.58590654062,967.62632563364,0.00012459249317411895,0.04041909301997748,0.01110615001890294,0.00032914834070651544,0.3198562746257454,0.35,0.65,-1.214436456509331,Lift down
-0.9740466308554998,-0.9921875,-0.95263671875,9.001171195207895e-05,0.009439893793499913,0.25483276366859997,0.22705078125,0.3310546875,0.0008463619017324438,0.028946472716293418,-0.1627856445273,-0.19921875,-0.13684082031,0.0002122844770838316,0.014496952518132674,1.0203157118507997,0.99398785299,1.06232328207,0.00030178004452451323,0.017284740208613727,967.6351273796306,967.62507152494,967.64594522751,2.626630771289755e-05,0.020873702569929264,0.005099376887009684,0.0001464368815097493,-0.2617098767395061,0.67,0.33,0.686715038637297,Lift down
-0.9338061523394998,-0.97729492187,-0.85034179687,0.0008350588516978459,0.028752534900089548,0.2019824218705,0.10485839843,0.24279785156,0.0011974445256463142,0.03443065611326411,-0.24540771484050006,-0.28845214843,-0.13684082031,0.0014161192949210665,0.03744273096305684,0.9876935718256001,0.88961447725,1.020858354,0.0009003232482398036,0.02985498309759035,967.6626182174946,967.626655431,967.73401189426,0.000954697021532459,0.1073564632599755,0.030743292785860372,0.0006652846392251156,0.06287557741231664,0.68,0.32,1.0128048416376394,Lift down
-0.9422656249950998,-0.96472167968,-0.91540527343,0.00017370236042161012,0.013113555460568046,0.26341064452790003,0.14270019531,0.33471679687,0.0019617192131066324,0.04406928659481074,-0.14508789062170002,-0.22082519531,-0.06958007812,0.0018149392533386348,0.04238855813548331,0.9909487239213002,0.9595684751,1.01712642609,0.00023399543623722484,0.015220232648512721,967.7154258830185,967.63247564955,967.80668686183,0.003488094182315507,0.17421121228005632,0.05876404717590809,0.0012730656042391165,-1.5468421184706482,0.55,0.45,0.13990632642622938,Lift down
-0.9747473144490999,-0.98742675781,-0.96105957031,5.358778316755693e-05,0.007283673890000936,0.24804931640190003,0.2265625,0.2861328125,0.00027189470901343125,0.01640657678869352,-0.12887695312090003,-0.19982910156,-0.08251953125,0.001065799419288038,0.03248294052414525,1.0146906381565,0.99975954085,1.02961210023,5.084582728814169e-05,0.007094883298212894,967.9479061141923,967.80668686183,968.04053275252,0.0067431689379087245,0.2338458906899632,0.08170518495499314,0.0026362514636097205,-1.1565806244351478,0.35,0.65,-0.6401659890302959,Lift down
-0.9754443359338001,-1.00085449218,-0.95520019531,0.0001382426541113054,0.011698727604752253,0.2497778320263,0.21203613281,0.30236816406,0.0005581343956439094,0.02350644702390113,-0.1357019042931,-0.2041015625,-0.09582519531,0.0009202987422699903,0.030184362753705608,1.0167808239218,1.00547617307,1.03906923306,5.342408696333985e-05,0.007272540552909035,968.1430176697999,967.99794293362,968.26626463967,0.006162472431416129,0.2683217060499601,0.07810792345915982,0.002365309828030822,-0.7930797754912753,0.31,0.69,-0.6763988952888974,Lift down
-0.9667358398411,-0.99096679687,-0.95263671875,6.97722037570067e-05,0.008311105926375661,0.2566711425741,0.20239257812,0.2822265625,0.0006235351391396172,0.024845518464065526,-0.17102172851179998,-0.2041015625,-0.14196777343,0.000417500281322135,0.02033040281226404,1.0152704331666,1.00102692268,1.02392099331,3.266481948064562e-05,0.0056866660958631255,968.4198449427957,968.26626463967,968.57459228166,0.0058902245149341,0.3083276419899903,0.07636309494634669,0.0024456452988750573,-0.1733944439450843,0.55,0.45,0.19522502525172178,Lift down
-0.9629162597608001,-0.98815917968,-0.93347167968,0.00024895935798836393,0.01569935554118322,0.25835083007419996,0.18103027343,0.33605957031,0.0017425845654175252,0.041535030032050654,-0.1749353027312,-0.212890625,-0.12915039062,0.0005509038330014486,0.02335368910196918,1.0134738797183,0.99109064133,1.04106782707,0.00014992386986533416,0.012182964793788121,968.6428469206394,968.52198749951,968.7472430658,0.005915134518138065,0.2252555662900022,0.07652439593330146,0.0023901372958423594,-1.5908603194591566,0.51,0.49,-0.014340033145231657,Lift down
-0.9678039550744001,-0.98901367187,-0.95251464843,6.830673477377612e-05,0.008223361078417897,0.25517211913640003,0.2236328125,0.28857421875,0.00024466462058726556,0.015563353571174592,-0.1771386718706,-0.22998046875,-0.1318359375,0.0004919801336580102,0.022069443407603872,1.0167719073572,0.99437944582,1.03424945916,0.00010828818275816028,0.010353999272289846,968.8860267913724,968.72733565988,969.00945756055,0.006297130218794008,0.28212190066994935,0.0789566901320342,0.002661261342722009,-1.3436337029975176,0.47,0.53,-0.31652999839449397,Lift down
-0.9642126464798,-0.97912597656,-0.94653320312,5.975457604826193e-05,0.007691360756574828,0.2541088867153,0.23168945312,0.28466796875,0.0002039864268215885,0.014210790356393716,-0.17512084960430002,-0.22009277343,-0.11828613281,0.0005851273870750884,0.024068155583765398,1.012741063515,0.98335169024,1.03335911919,0.0001420039224171717,0.011856807462086916,969.1256822670149,969.00945756055,969.24549163542,0.005555258688412794,0.23603407486996275,0.074160003381396,0.0024896315516006262,-1.432766478015719,0.51,0.49,-0.089167659107947,Lift down
-0.9600488281210998,-0.97497558593,-0.953125,2.58720523081543e-05,0.0050609615474801585,0.2948937988245,0.26879882812,0.33605957031,0.00041225698714495747,0.020202336926046647,-0.16513671874610003,-0.18969726562,-0.14709472656,0.00011123009402742515,0.010493702544247712,1.0180532949263998,1.00652756209,1.03258526938,3.7974819648147246e-05,0.006131481994727357,969.3651726686232,969.24549163542,969.49515316491,0.0052658654569812694,0.24966152949002662,0.07220254013822129,0.0024859112805331457,-1.0326764094803096,0.55,0.45,-0.015764269852389157,Lift down
-0.9552001953079997,-0.97863769531,-0.92553710937,0.0001616020395452079,0.012648557986970524,0.2856774902307,0.25964355468,0.32958984375,0.0002934414494706499,0.0170442669239819,-0.17628662109029997,-0.23962402343,-0.11193847656,0.0008032981253419252,0.02820044581364816,1.0130224503476999,0.98750474451,1.03232340868,0.0001285733399965937,0.011282180932631234,969.6168040311369,969.49515316491,969.74118206254,0.00553372625955985,0.24602889763002622,0.07401614011122339,0.0025488758185686776,-1.2806005547675703,0.47,0.53,-0.12877789851052085,Lift down
-0.9655969238251,-1.00146484375,-0.93359375,0.00026392757743524384,0.016164414671150065,0.2747094726516,0.2431640625,0.29565429687,0.00018180716518729543,0.013416001398905059,-0.17982299804289997,-0.21069335937,-0.14453125,0.000340720889221878,0.018366101391685152,1.0201603601441998,0.99219057127,1.04975103906,0.000232782784021317,0.015180742939036412,969.8642867083377,969.74118206254,969.9996537593,0.0051186207522780115,0.2584716967600116,0.0711859153537779,0.0024472553499486735,-1.21712410544115,0.47,0.53,0.1242138156718772,Lift down
-1.0182128906216,-1.04614257812,-0.9931640625,0.00023545038820040745,0.015267477994691964,0.27118774413729996,0.2451171875,0.30322265625,0.00024288328461183301,0.015506593815719644,-0.14375732421540005,-0.1787109375,-0.10754394531,0.0005712395424581013,0.023780814683974145,1.063824072346,1.03228122274,1.10116239816,0.0002867394371185478,0.016848502685620534,970.1341779457507,969.9996537593,970.22475136364,0.005551219389987955,0.22509760434002146,0.07413303714328771,0.0023465173434049124,-1.2445917822931853,0.39,0.61,-0.40628622197313763,Lift down
-0.9846899414027999,-1.00927734375,-0.97143554687,9.084054315645803e-05,0.009483255650086285,0.24237060546500003,0.20959472656,0.26013183593,0.0001626172752040023,0.012688226923095373,-0.1253332519481,-0.16247558593,-0.08337402343,0.0005059467587267611,0.022380511413716473,1.0223876658141002,1.00436448055,1.04515962124,0.00012508421772454732,0.011128044551820497,970.1667319399066,970.12323775237,970.22985085885,0.0011177681369180551,0.10661310648004019,0.0332654543866287,-0.0003555851183762474,-0.7868020753330476,0.56,0.44,0.579400048602647,Lift down
-0.9692773437466,-0.97802734375,-0.96276855468,1.5601028094454804e-05,0.003930014988967632,0.2524902343712,0.19885253906,0.27770996093,0.0003913562706942151,0.01968356441265842,-0.14682373046580002,-0.17272949218,-0.12414550781,0.00015461462313845573,0.012372084582117566,1.0125871913634001,0.99878662226,1.02317228593,3.053683802145279e-05,0.005498315163869589,970.2247552362794,970.18614308346,970.29184465531,0.0008918503620659234,0.10570157184997697,0.029714169321138094,0.000817962640719659,-0.07961588431783007,0.63,0.37,1.0131198733534204,Lift down
-1.2542749023397999,-2.13708496093,-0.93127441406,0.0547076767679161,0.23272430040766465,0.23385253905899997,0.0166015625,0.490234375,0.01920177421170166,0.1378758734136783,-0.1593457031232,-0.48229980468,0.12683105468,0.036853418060158245,0.19101016695337622,1.3072932306349998,1.0060087667,2.15358670202,0.054467922481139144,0.23221378782563226,970.1013624007811,970.01168711717,970.23680023161,0.003483163475420995,0.22511311443997783,0.05872249859012119,0.00016852659047313776,-0.01491538266361081,0.56,0.44,0.7960119519650161,Stairs up
-1.186818847653,-1.75231933593,-0.87756347656,0.05553199190688149,0.2344710472271847,0.0699267578118,-0.30261230468,0.37121582031,0.03047002166102689,0.17368166697845983,-0.1041796874988,-0.34265136718,0.14575195312,0.02561106414403361,0.1592323883592571,1.2177594808949999,0.94814685063,1.78497815234,0.05236457526537117,0.22768603275721036,970.0696246131992,969.95786172402,970.2315645405,0.005670353116943804,0.27370281648006767,0.0749242923608516,-0.0012682785101632565,-0.3889953919963056,0.57,0.43,0.40314615284399835,Stairs up
-1.2208422851522003,-1.50891113281,-0.86437988281,0.032636638247752224,0.17975058237812389,0.12652832030959998,-0.13610839843,0.26745605468,0.009912571063446738,0.09906283537640274,-0.1556445312488,-0.34448242187,0.07592773437,0.01570744162787108,0.12470111150904939,1.2487913267248,0.92612039816,1.5106499563,0.029176593829692773,0.1699553702928973,970.0200271035911,969.94952888598,970.12202924208,0.0025650892409376197,0.1725003560999312,0.05039284025065707,-0.0007167785389847198,-0.9573014699612101,0.49,0.51,0.3401056693430966,Stairs up
-1.0788916015590002,-1.42431640625,-0.72875976562,0.03187648668455886,0.1776449318661055,0.2191259765582,0.09301757812,0.60827636718,0.012539221686566208,0.11141736610466317,-0.1445690917952,-0.42578125,0.07653808593,0.023539071941856865,0.15265543299351744,1.1287982626464,0.8803870125,1.4916737356,0.026275978358174502,0.1612861388172981,969.9431106390963,969.86066417845,970.07245111268,0.003769519413905746,0.21178693423007644,0.061088658683643465,-0.0007786304504143954,-0.49970406654099886,0.68,0.32,0.7311867762698242,Stairs up
-1.0549511718714002,-1.34265136718,-0.72155761718,0.03345688145568472,0.1819953643396663,0.2341870117146,0.02209472656,0.40661621093,0.00964496485490305,0.09771650426797931,-0.21088867187179997,-0.37646484375,0.04321289062,0.017414535536492852,0.13130266631385643,1.111525943178,0.80400324867,1.42037819058,0.03703117079087152,0.19147025639237758,969.9003976550838,969.81471851501,969.97279828098,0.002284258371409713,0.15807976597000106,0.04755434562367162,-0.0005095624174452101,-1.024459919481789,0.56,0.44,-0.19519020805724616,Stairs up
-1.0740258789024,-1.28723144531,-0.80212402343,0.02512034327710078,0.15769952391916017,0.15132080077780002,0.02514648437,0.28881835937,0.004477552627050375,0.06657910408513974,-0.19778076171480002,-0.39135742187,-0.02514648437,0.010078638665449176,0.09988920001078537,1.1090470881469998,0.84346394634,1.34874609403,0.025092048992957472,0.15761068651277393,969.8308659247672,969.7133189308,969.96064615668,0.003216129084709087,0.24732722587998524,0.05642665853886792,-0.00030928552482574506,-0.3355397947449341,0.61,0.39,0.8304797338374724,Stairs up
-1.0234692382769999,-1.322265625,-0.78869628906,0.015545934625234306,0.12405835432965392,0.102460937498,-0.10607910156,0.27124023437,0.013722146255217338,0.11655438555740906,-0.16937255858999997,-0.36340332031,0.09069824218,0.0160496519367021,0.1260521932269926,1.0573769000492,0.85836859641,1.34567071352,0.013629531057628727,0.11616038802901976,969.7460761892448,969.67896989468,969.80879689828,0.0013222817334841094,0.1298270035999849,0.03618091922753302,-0.0003300206310915404,-0.8011194249505897,0.55,0.45,-0.1453575541784553,Stairs up
-1.0836791992145998,-1.36767578125,-0.82153320312,0.025670859097580566,0.15941816241132867,0.0432763671872,-0.32934570312,0.24084472656,0.029839504992479886,0.17187527437812306,-0.17605957030999997,-0.37915039062,0.05432128906,0.013401435504927495,0.11518429211432529,1.1193348981110003,0.86291351944,1.38277614136,0.022770192457389322,0.15014156830410233,969.7105469176432,969.64629547407,969.77983142642,0.001525807170282124,0.13353595234991644,0.03886578313348777,-0.0005548693737750005,-0.7651575361565297,0.41,0.59,0.14079438693238402,Stairs up
-1.0662255859333998,-1.32727050781,-0.81420898437,0.019496838396173582,0.13893117005269856,0.15705566405840002,0.01391601562,0.28356933593,0.005538703817338228,0.0740494211939894,-0.1368164062454,-0.2998046875,-0.02770996093,0.005232432274060313,0.07197296680921046,1.0916168489537998,0.83961772094,1.34598418734,0.01874763691946106,0.13623568016590384,969.646741876849,969.59941943856,969.73256064592,0.001371960973740631,0.13314120736004043,0.0368543262589784,-0.0005568226313979203,0.373282891231697,0.56,0.44,0.8949515026375384,Stairs up
