avg_accX,min_accX,max_accX,var_accX,std_accX,avg_accY,min_accY,max_accY,var_accY,std_accY,avg_accZ,min_accZ,max_accZ,var_accZ,std_accZ,avg_magnitude,min_magnitude,max_magnitude,var_magnitude,std_magnitude,avg_pressure,min_pressure,max_pressure,var_pressure,range_pressure,std_pressure,slope_pressure,kurtosis_pressure,Pressure_below_avg,Pressure_above_avg,skew_pressure,Label
-0.6535754394504998,-0.68640136718,-0.62622070312,0.00020777188616947874,0.014342041950426166,0.7960205078083998,0.78564453125,0.81591796875,6.743151732865768e-05,0.008170508072046138,-0.0049877929672,-0.03405761718,0.03686523437,0.0002754303601282652,0.01651290575661905,1.0301808621139998,1.01836594673,1.05994486011,0.00010798054804635199,0.010339281530449225,969.855795648921,969.82218471608,969.93042319227,0.000512417890281392,0.1082384761900812,0.022523181644221096,-0.00016532755713679836,2.8755509325950674,0.64,0.36,1.463159385385829,Lift up
-0.5883154296829,-0.73254394531,-0.47106933593,0.0032767606745621645,0.0569560626080889,0.8564819335899,0.79577636718,0.8984375,0.0006578611304362824,0.025520237442702595,0.2161682128863,0.03601074218,0.35070800781,0.007330550501843349,0.08518946529251675,1.0658189441878,0.97142240098,1.14701363793,0.0016035782080597379,0.03984397603125396,969.8666171002752,969.7662837556,969.98476270359,0.003988251240988252,0.21847894798997913,0.06283604641110363,-0.0018100503711416427,-0.9518599244875023,0.57,0.43,0.37270777652675835,Lift up
-0.43121337890159994,-0.55200195312,-0.37451171875,0.002687024197143224,0.05157668034268774,0.7933410644489999,0.77526855468,0.81420898437,0.00012433359570224414,0.011094604983739695,0.4674316406213999,0.34423828125,0.51220703125,0.00214834165087716,0.046117873263718356,1.0191447150466,1.0018663127,1.0366032761,8.23369533991975e-05,0.009028487351998979,969.6536457870628,969.55080347358,969.7662837556,0.0038635908552968417,0.21548028202005298,0.06184622014920454,-0.0021167105122413404,-1.1203762862094568,0.49,0.51,0.28560540903489784,Lift up
-0.49517944335619984,-0.57360839843,-0.37512207031,0.004152317689768725,0.06411547795088982,0.8170922851518999,0.7802734375,0.87292480468,0.0007571917531537137,0.027379186175307997,0.34627685546579984,0.16198730468,0.50927734375,0.011493353982275046,0.10666967911479014,1.0240570551232004,0.98260906552,1.05447388357,0.00029911803473185874,0.01720833676984909,969.4709515987622,969.35099697764,969.55080347358,0.0037388572638119987,0.19980649594003808,0.060839696672270474,-0.0019494198867954567,-1.1590870799148882,0.37,0.63,-0.5246053798719506,Lift up
-0.4819995117144,-0.51525878906,-0.47106933593,8.348425831288631e-05,0.009091172406777768,0.8683386230429,0.84313964843,0.87353515625,2.035235365196302e-05,0.004488744826278655,0.23592651366820003,0.2138671875,0.24853515625,3.8689222910410537e-05,0.006188887677224917,1.0208491140914997,1.0109971614,1.02602854912,1.4363231021346453e-05,0.0037708883185707037,969.2537386145245,969.15518820797,969.35099697764,0.0031273403142767996,0.1958087696699522,0.05564231223748733,-0.0019111960268809987,-1.2087614693380202,0.53,0.47,0.1727768053726375,Lift up
-0.4761022949174999,-0.51525878906,-0.43298339843,0.0004477828605689964,0.021054810185876918,0.8228869628862999,0.79907226562,0.84313964843,0.00016009930861153932,0.012589611412804763,0.22084472655809997,0.21032714843,0.24084472656,8.903299918899173e-05,0.00938843273380077,0.9760660300826001,0.95221101212,1.0109971614,0.00023179573928419194,0.015148524082937915,969.0585103285688,968.99070436118,969.15518820797,0.0019338771030904696,0.16448384679006267,0.04375543774274879,-0.001478177550923453,-1.0042636856871288,0.57,0.43,0.49455075898914896,Lift up
-0.4655590820272,-0.50122070312,-0.43212890625,0.00029911718584179085,0.017208312351400787,0.8778173828083999,0.83190917968,0.89770507812,0.0002630478444554254,0.01613745227757068,0.225617675778,0.21350097656,0.24084472656,4.4139834353300465e-05,0.006610479257192133,1.0191885222154002,0.99645951979,1.03076568703,6.762630732002282e-05,0.008182300669544146,968.985531138279,968.97373355353,968.99570507569,3.900152314962896e-05,0.02197152216001541,0.006213815890266839,-5.6210742859433024e-05,-0.9452389819573099,0.45,0.55,-0.3213570322430209,Lift up
-0.4864501953092,-0.51062011718,-0.46435546875,0.00020366967324075716,0.014199752691802403,0.8709570312463998,0.85961914062,0.8798828125,3.0584190830489456e-05,0.005502576571224117,0.22225341796379997,0.21447753906,0.23168945312,1.59735932521572e-05,0.003976664094393141,1.0221636279495998,1.01269950608,1.03071787138,2.6027750154895e-05,0.0050761671222829185,968.9794849999988,968.97344354375,968.98471049488,9.732798116901698e-06,0.011266951129982772,0.003104105368013895,-3.676406774705192e-05,-1.0072317886727262,0.56,0.44,0.09043724886185366,Lift up
-0.49951171874579997,-0.51696777343,-0.49060058593,2.8597586072011618e-05,0.005320865550950475,0.868562011715,0.84252929687,0.88952636718,0.00013378642423184176,0.011508629805042967,0.2096948242154,0.1396484375,0.23193359375,0.0004942716311744915,0.022120780159450674,1.0239276283624001,1.004506047,1.04359704998,0.00010721780362365219,0.010302699917371934,968.9630710850164,968.9505137305,968.97704689641,7.884563627109555e-05,0.02653316590999566,0.008834997448125529,-0.00023473545291214848,-1.3998791171356575,0.41,0.59,-0.07621443768878529,Lift up
-0.4761523437465998,-0.50341796875,-0.44543457031,0.00027063865855312807,0.016368636839016154,0.8923852539019999,0.85815429687,0.92321777343,0.0003065274760890022,0.017420166512640233,0.14618408202740002,0.11010742187,0.18017578125,0.00033066381710749855,0.018093014644785528,1.0223137995235998,0.99208723898,1.04895520283,0.00021770569038207017,0.01468089348364906,968.95201437143,968.93370940146,968.96593796407,5.4615053256502884e-05,0.03222856261004381,0.007353155970325793,-0.00011658373845359273,0.11200894657530203,0.65,0.35,0.059051664005815616,Lift up
-0.8470483398403998,-1.43774414062,-0.14172363281,0.1410084905585554,0.3736287002532994,0.6559594726515999,0.12756347656,1.25756835937,0.06910465816659057,0.2615599579158183,0.1186791992182,-0.19885253906,0.52978515625,0.056405349385042255,0.23630762977777894,1.1752024279514004,0.82034368909,1.53178702882,0.0450616551332798,0.21121325380275502,968.9559477014051,968.85819269932,969.05674798605,0.002762927400805675,0.19855528672997025,0.052300077693992184,-0.00018870418376727602,-0.8061005552566782,0.44,0.56,-0.15641007609854327,Stairs up
-1.1116943359331999,-1.33081054687,-0.73010253906,0.02637668691500215,0.1615949258047793,0.40892822265260004,-0.04736328125,0.95251464843,0.09344644884241984,0.3041578280334005,0.11081787109219998,-0.17980957031,0.33813476562,0.019187012518608864,0.13782286600351473,1.2360194338731998,0.85404552011,1.58710270626,0.02549817602526157,0.15888106956150866,968.9742695802796,968.89941456234,969.28346568086,0.009452206077444007,0.38405111852000573,0.09673512297335217,-0.0008825669641638806,5.410119401147233,0.76,0.24,2.535363563500777,Stairs up
-0.9838256835901998,-1.59655761718,-0.59423828125,0.06638611642368362,0.25636352170199017,0.5397338867147999,0.19750976562,0.88305664062,0.04062199487211439,0.20053871178252156,0.07252685546780001,-0.17980957031,0.4091796875,0.034233157085653734,0.18409461022745124,1.1639740052414,0.76447097258,1.68083843898,0.04997894923774226,0.22243911469290834,968.9047946767881,968.85864128858,968.94346506495,0.0009751655360425906,0.08482377637005811,0.031071110065174122,-0.0007235378307421656,-1.6224930793276633,0.41,0.59,-0.24165620953870035,Stairs up
-1.186933593747,-1.49951171875,-0.923828125,0.027277827720713892,0.16433213150052778,0.3486987304662,-0.10314941406,0.62072753906,0.03553105978611827,0.1875519906272847,-0.029985351562,-0.20971679687,0.169921875,0.010028594526886966,0.0996408981373517,1.2580060834742002,0.99847070164,1.53446588208,0.021041498034425857,0.1443297718909082,968.8572774895493,968.79031044114,968.92376039466,0.0012369743009188678,0.13344995351997113,0.034994350371305355,-0.0008264725942045156,-0.4212073606795683,0.37,0.63,-0.30879820945852793,Stairs up
-1.0140795898400001,-1.24450683593,-0.79223632812,0.01503492522103528,0.12200236050513501,0.435603027341,-0.06323242187,0.76904296875,0.06113828806579932,0.24602216401198762,0.028225097655200003,-0.19580078125,0.24572753906,0.01236255439208385,0.11062969243454947,1.1389311481614,0.93313945905,1.32197413196,0.009485169538552848,0.09690365237269088,968.7689938864781,968.72849936497,968.83261591054,0.00031001262434652904,0.10411654556992289,0.01751891829146605,-0.00045463314649155876,3.8312445914137108,0.49,0.51,0.8283388418818373,Stairs up
-1.0679101562462001,-1.41174316406,-0.67041015625,0.026431496360119117,0.16176273179109557,0.3155371093722,-0.06579589843,0.64599609375,0.030725473490306476,0.17440819578048336,-0.08545410155979997,-0.26354980468,0.08361816406,0.008825296680867836,0.0934721547524136,1.135367168435,0.83968963096,1.47816538221,0.023800009478235195,0.15349921623074447,968.69753560843,968.61950309999,968.75487900832,0.001607854736411933,0.13537590833004742,0.03989706993060786,-0.000992689028533065,-0.9854453038094948,0.49,0.51,-0.191120598170843,Stairs up
-0.9804882812464,-1.24182128906,-0.68603515625,0.0220428508699316,0.1477241427838804,0.42464843749599995,0.17858886718,0.71948242187,0.021191913696559324,0.14484472568786802,-0.08780029296720002,-0.23706054687,0.13208007812,0.011740226221157316,0.10780920164320736,1.0898073026836,0.87784469922,1.3637230384,0.0163007479504989,0.1270344066424286,968.620348623578,968.57203080158,968.70490624243,0.0012521030334292245,0.13287544084994352,0.035207698065834014,-0.0007451688058052147,-0.6619093083205865,0.52,0.48,0.2570447183808433,Stairs up
-1.0794506835895998,-1.31018066406,-0.80590820312,0.0195184590901186,0.13900818141108606,0.3667529296841998,-0.03894042968,0.65148925781,0.028505855834126695,0.1679904678122703,-0.04821044921699999,-0.53979492187,0.59350585937,0.06713419454652175,0.2578039033859971,1.1819738814676,0.88985563811,1.42980659489,0.019182227329675686,0.13780567860715656,968.5782884191646,968.53433345817,968.64110444262,0.0009089928908605067,0.10677098445000865,0.029998382655601646,-0.00020021135907287915,-0.3696319986482015,0.61,0.39,0.6441847649166389,Stairs up
-0.9621240234335999,-1.2041015625,-0.67321777343,0.02104891131612537,0.14435519458254392,0.44338378905799997,0.00695800781,0.7021484375,0.018773964559357995,0.1363313056996243,-0.07060302734259999,-0.30639648437,0.25061035156,0.02057757515435006,0.14272981259290773,1.0816883114572,0.80287561775,1.2477493409,0.01717520375164288,0.13039728415165114,968.5022426445299,968.44304697212,968.60491149603,0.0021751617786939653,0.16186452391002604,0.0464048506183031,-0.0003111727377727567,0.09790263386760856,0.65,0.35,0.9682740177154359,Stairs up
-0.9826782226527999,-1.2041015625,-0.67858886718,0.02025375658205897,0.14160232701561928,0.3540991210902,-0.09631347656,0.63098144531,0.03383037916946446,0.18300840247860153,-0.2391088867154,-0.50988769531,-0.06896972656,0.011721921864168337,0.10772512541429996,1.0970532811444,0.88313771055,1.2233937023,0.009937203949082584,0.09918584530865157,968.4810596348453,968.45795869991,968.52738044341,0.0002627488583409447,0.06942174350001551,0.016128278573906616,-0.00010312818145173296,0.5710671886554435,0.64,0.36,0.8837241724240499,Stairs up
-1.0635620117146,-1.20190429687,-0.95300292968,0.004212277856669939,0.06457673790230689,0.31888671874700003,-0.02014160156,0.58227539062,0.03245512731120984,0.17925003776316967,-0.13620361327819996,-0.38146972656,-0.02038574218,0.007530950711336925,0.08634605494302305,1.1359819881602002,1.00247717792,1.26003587766,0.0047531427499598305,0.06859745857143858,968.4718915939675,968.44856157446,968.50509377492,0.0003085973078491649,0.056532200460083004,0.01747888253781326,-0.00029989199793745933,-1.0985482648879066,0.64,0.36,0.5307972462795715,Stairs up
-1.0464257812458,-1.224609375,-0.89636230468,0.00843297679023426,0.09137093094815177,0.3298559570274,0.03125,0.60510253906,0.026726196925726715,0.1626620267808976,-0.17844970702799998,-0.3857421875,0.00561523437,0.01246148950478274,0.11107148423306007,1.1275510116337997,0.92740129615,1.31278108243,0.011544786602857163,0.10690808546049542,968.481393817213,968.45308075456,968.5468209142,0.0006171221972949347,0.09374015963999227,0.024717422505633257,-5.763367796177858e-05,1.3417022717569855,0.58,0.42,1.3762511717743755,Stairs up
-1.1258642578092,-1.29040527343,-0.99987792968,0.0049689031851509885,0.07013710967312153,0.29036865234060005,-0.08032226562,0.63159179687,0.04823661166480404,0.2185274480429312,-0.0912377929682,-0.31372070312,0.10424804687,0.014977723112405587,0.12177005330245007,1.1920936626822,1.07350259664,1.38386849853,0.006689617287201854,0.0813801026930406,968.4830663609245,968.43783756991,968.55155888814,0.001188999484302383,0.11372131822997744,0.03430902927014052,-0.00043036919744795105,-0.7837531909925728,0.52,0.48,0.4990676912923906,Stairs up
-1.0536682128872,-1.32299804687,-0.30151367187,0.058539785332017646,0.24073717510741352,0.41859497070049995,-0.07006835937,1.07080078125,0.11104626055140127,0.33156567667038045,-0.08677246093490001,-0.33337402343,0.11303710937,0.015113737462155736,0.1223217073439305,1.2056832803466,0.90407145844,1.51894257917,0.02237224780317826,0.1488238063118481,968.4625852981964,968.42959954954,968.5298459142,0.0005621386140859569,0.10024636466005177,0.02359061737100361,-0.00031731751047177055,1.5062512099989078,0.64,0.36,1.2662071340633938,Stairs up
-1.0009545898402001,-1.2822265625,-0.58215332031,0.03270696069885643,0.17994413325215097,0.42113525390179984,0.09423828125,0.80932617187,0.025646984221786826,0.159344012688174,-0.1056982421862,-0.50061035156,0.39855957031,0.05278493517432412,0.22859808796790249,1.1320417626718,0.86186452412,1.38656943148,0.01913742451194143,0.13764465215482224,968.457767096116,968.33939824128,968.64923160025,0.00733340702297906,0.3098333589699678,0.08520606171364377,-0.0014646071458061245,0.18254269521971178,0.58,0.42,0.8044747830890401,Stairs up
-1.0731811523402,-1.27502441406,-0.82531738281,0.016135666256054178,0.1263895153622073,0.28402099609,-0.0810546875,0.50964355468,0.02413765664601493,0.15458421678669132,-0.032338867187,-0.37084960937,0.25512695312,0.020488219332589645,0.1424195813056047,1.1312644104828,0.87387075955,1.37526706247,0.013965934015567413,0.11758518050933008,968.3390286652415,968.27128809685,968.40548665029,0.0015147726835737774,0.13419855344000098,0.03872499137169742,-0.0001492184399101703,-0.9536574196256238,0.52,0.48,0.24492539053660775,Stairs up
-0.9913256835898,-1.29943847656,-0.75378417968,0.023454650730752827,0.1523814431728657,0.27127929687179997,-0.02136230468,0.43115234375,0.012297799153597662,0.11033957205853975,-0.11288330077940001,-0.23254394531,0.0859375,0.007410226933770439,0.08565118016952676,1.0451241370875999,0.82138803001,1.36405870736,0.019705349068842273,0.1396721002138718,968.3153556616553,968.23766181563,968.41406054753,0.0025721098995694354,0.176398731900008,0.050461755821351886,-0.0008311536969508818,-0.8251899861194798,0.54,0.46,0.39995003432618803,Stairs up
-0.8429663085892,-1.21826171875,-0.48461914062,0.045563392621005526,0.21238587216384114,0.5051196289015999,0.21423339843,0.79907226562,0.0199616806737624,0.14057760798585517,-0.09846923827899999,-0.39086914062,0.12438964843,0.020050770471212398,0.140890960556383,1.0125638556142,0.66774608849,1.29063066984,0.035220961050928506,0.1867317633409464,968.2944282451182,968.1314408733,968.49022674837,0.01183128825119948,0.35878587506999793,0.10822650030693723,-0.002681133415040836,-0.8724884138615856,0.54,0.46,0.23703543411436703,Stairs up
-0.8980566406216,-1.3251953125,-0.65417480468,0.028874298322355742,0.16907263332406042,0.45720214843299994,0.23107910156,0.71606445312,0.012235885918614194,0.11006146945878949,-0.1165332031222,-0.39086914062,0.12414550781,0.012202536674195458,0.10991137933559701,1.0301587815514004,0.81615640385,1.37229756275,0.020880808309668635,0.14377760683281646,968.144424858439,968.01965072008,968.44023768338,0.012644222231651658,0.42058696330002476,0.11188288523869566,0.0009795215730099367,1.3387027607615254,0.66,0.34,1.3462350695449332,Stairs up
0.4503759765588,0.41955566406,0.490234375,0.00032217649498595,0.01785930373883849,0.8898046874969998,0.85144042968,0.92431640625,0.00040728277633870206,0.020080088360744708,0.059836425777,0.02197265625,0.10119628906,0.0005765260410227216,0.02389060025642919,0.9994779042568002,0.95794326767,1.04545800546,0.0005132771356366949,0.02254205767627099,968.0533505057381,968.04137531062,968.065762332,4.024853937131642e-05,0.024387021379993712,0.006312373086059098,-6.153294669690833e-07,-0.3971884812444513,0.44,0.56,-0.24962585196853454,Lift down
0.3957690429649999,0.15075683593,0.51794433593,0.009899754722824667,0.09899877360652716,0.9183593749954,0.83837890625,1.08923339843,0.0038170663996195276,0.06147272350907622,-0.0071069335934,-0.18408203125,0.17834472656,0.016262386355966867,0.1268848394900163,1.0132056442012,0.96246899703,1.2026080408,0.0031932560411717104,0.05622564789097582,968.1330290266467,968.065762332,968.22415259626,0.0019530266093178744,0.15839026425999236,0.04397154015070084,0.0014909001113109375,-0.9161468233931971,0.54,0.46,0.09946541976893657,Lift down
0.538525390622,0.47204589843,0.568359375,0.0005246689825661152,0.02279083791220617,0.8613720703091999,0.8408203125,0.92150878906,0.00032847443012371956,0.018033016548056578,-0.11168701171480003,-0.14892578125,-0.07019042968,0.00031154770443368626,0.017562238678179652,1.0224679613241998,0.99196265518,1.06578676165,0.00015933404993584958,0.012559486830141233,968.3260721497521,968.22415259626,968.44009595804,0.0038252257527518372,0.21594336178009144,0.061538390417887265,0.0021231909363042738,-1.1630247592615963,0.54,0.46,-0.04547689811813161,Lift down
0.027563476562000044,-0.70288085937,0.52514648437,0.23864490816952252,0.48606425407329357,0.850229492183,0.74377441406,0.92956542968,0.0033170628065807765,0.05730525437091235,-0.2762109374966,-0.60217285156,-0.06335449218,0.018922850363302435,0.13687082179803484,1.0261690888366,0.85518594535,1.16593707281,0.005247869550556588,0.07207905975421032,968.5589442675952,968.44009595804,968.72575995173,0.006871137118308971,0.2856639936899228,0.08247681945326142,0.0025855376302340353,-0.9854589684888184,0.54,0.46,0.41298822761075366,Lift down
-0.610297851559,-0.70288085937,-0.4833984375,0.003595077124523658,0.059658413935323666,0.8262060546838,0.64074707031,0.90490722656,0.00337439597260552,0.05779837379095942,-0.012099609375,-0.27770996093,0.28771972656,0.03383813340125186,0.18302937487528972,1.044706852605,0.91024146274,1.14199338116,0.0042559954683636225,0.06491098145676112,968.7346881287777,968.66647594603,968.80411224526,0.0013820389154016557,0.13763629922993914,0.036989438036386,0.0004638573274751986,-1.0472995137463796,0.46,0.54,-0.27145640217046935,Lift down
-0.6939880371059999,-0.75451660156,-0.64880371093,0.0010145172251160783,0.03169182943386067,0.7268334960898,0.65795898437,0.83459472656,0.0016908867130211063,0.040914274353712976,0.1844604492153,0.13220214843,0.29528808593,0.002218714416555288,0.04686712357708477,1.0238889463712,0.9969390424,1.09088982861,0.00021745683739998983,0.014672500435371945,968.9641750528843,968.80411224526,969.08786866776,0.004399929911074902,0.2837564225000051,0.06599947433096837,0.0019403795401379273,0.34307846611019466,0.58,0.42,-0.23344544105574078,Lift down
-0.6580834960901,-0.69055175781,-0.63659667968,0.00020769267976359306,0.014339307966772913,0.7794726562465999,0.75537109375,0.79748535156,0.00014770401849079068,0.012092434755080664,0.11661987304360003,0.10070800781,0.15686035156,0.00022105868869068317,0.014793515532278876,1.0269805367073,1.01375979297,1.05714037318,0.0001347197044561941,0.011548701546564972,969.1972154445054,969.08786866776,969.36580159253,0.003915732216407203,0.27793292477008436,0.06226214655987321,0.0018374051397114582,1.715673003183877,0.66,0.34,1.1850609602900408,Lift down
-0.6669641113242,-0.68896484375,-0.61608886718,0.0002826006289382643,0.01672646473851787,0.7627917480432,0.75012207031,0.77917480468,6.764624303563591e-05,0.008183506620348,0.11504028319989999,0.09484863281,0.15075683593,0.0002756173246459947,0.016518509357673128,1.0200274670793998,0.99117474419,1.03530525718,9.112666200336912e-05,0.009498178529767453,969.3951091523933,969.32925918683,969.47187034291,0.0014156343800354198,0.14261115608007913,0.037436319747473384,0.0010283748427947195,-1.048319418225338,0.58,0.42,0.19403419024091148,Lift down
-0.6901293945273997,-0.69738769531,-0.67163085937,4.138892949484259e-05,0.0064011749077723355,0.7519506835890999,0.74157714843,0.77319335937,4.7356185294212765e-05,0.0068470886836136885,0.10375732421469998,0.09020996093,0.11584472656,6.766390920845576e-05,0.008184575133528386,1.0259594986046,1.01779036404,1.04528386628,3.630932195990995e-05,0.005995517387207785,969.6083707069025,969.47187034291,969.70238855955,0.0035347657758799593,0.23051821663989358,0.0591558798271242,0.0020297253533970105,-0.9867163369214604,0.54,0.46,-0.044808628677070514,Lift down
-0.6738476562462,-0.70227050781,-0.64001464843,0.00031616613119783227,0.017691932338946302,0.7626318359333999,0.73815917968,0.79345703125,0.00021437878564031868,0.01456828740051196,0.0873291015594,0.07556152343,0.10363769531,5.6928757474196324e-05,0.0075072944460340945,1.0217019180478,1.01383023504,1.0293073346,1.125513702278982e-05,0.00333805117584526,969.8294765185212,969.70100004839,969.94139695724,0.005176114475418675,0.2403969088500162,0.07158458863934673,0.002421189014327227,-0.9486144544890052,0.46,0.54,-0.4705813466048145,Lift down
-0.6456298828092,-0.66271972656,-0.62744140625,9.623922482747398e-05,0.009760985225846787,0.7944775390591999,0.78210449218,0.8076171875,5.262533824450264e-05,0.007217969580294559,0.0662255859344,0.04113769531,0.08740234375,0.00017871654397054332,0.013301480313515406,1.0260179070984001,1.01573442456,1.03571731908,3.0195440720692828e-05,0.00546749360433882,970.0370367673964,969.94139695724,970.12157107199,0.003289017574051516,0.18017411475000245,0.05706248678695138,0.001964020150349769,-1.3144573752018167,0.54,0.46,0.007625760263441201,Lift down
-0.6673046874963999,-0.6962890625,-0.63330078125,0.00021400485377952273,0.014555576431104594,0.7713525390588001,0.75219726562,0.80029296875,0.000146111358279907,0.012027063012103491,0.0495922851522,0.03271484375,0.06665039062,6.0771336450766334e-05,0.007756521326358786,1.0213390211878002,1.01136558584,1.03091866776,2.3194632019171673e-05,0.004791939659363415,970.2319763217392,970.10047377388,970.33960345081,0.005837158089292863,0.23912967693001974,0.07601833008163185,0.0025317391199461523,-1.1320117110712393,0.46,0.54,-0.36287690551683227,Lift down
-0.6623120117164,-0.68322753906,-0.63684082031,0.0001581540673654609,0.012512894417032627,0.7785644531211,0.76574707031,0.802734375,9.145820983833702e-05,0.009515441542038585,0.0403088378869,0.02709960937,0.05346679687,4.090543196339718e-05,0.006363676425130619,1.0230715685771998,1.01085149201,1.03483257631,2.677991546729901e-05,0.00514899177632146,970.4518985316367,970.33495785997,970.53754283308,0.0035951585960787057,0.20258497310999246,0.05965908992029562,0.002048125953939587,-1.1460761518457039,0.5,0.5,-0.11534076211358046,Lift down
-0.660686035152,-0.67370605468,-0.64025878906,7.625186683143261e-05,0.008688460632535448,0.7792114257783999,0.76403808593,0.78601074218,2.5090996660425666e-05,0.004983983015001296,0.0444885253866,0.03259277343,0.06567382812,7.487408290127424e-05,0.008609607544613256,1.0226360390115,1.00549513508,1.03609172369,4.6160092250889204e-05,0.006760065926333878,970.6551755880696,970.53754283308,970.75728654995,0.004172916651111243,0.21974371686997074,0.06427431434562433,0.00216979820611178,-1.403664655053507,0.58,0.42,0.058755805912475756,Lift down
-0.6918749999968999,-0.71936035156,-0.65185546875,0.0003748183057689331,0.019263180493138816,0.8041955566370999,0.77868652343,0.82690429687,0.00017450929137991024,0.013143979552103354,0.05607055663609998,0.03601074218,0.07507324218,8.137239801135503e-05,0.008975448402795343,1.0624312001468,1.02030336805,1.08799415109,0.00043409515990409285,0.02073051394213496,970.8631678894758,970.75728654995,970.97322171934,0.003963164791916319,0.2159351693900362,0.0626381125513625,0.002116357276002745,-1.0695214588924837,0.5,0.5,0.10287137193238897,Lift down
-0.6814392089815999,-0.7109375,-0.66589355468,0.00013450642278741839,0.011539556254880175,0.7755187988246999,0.75646972656,0.81762695312,0.0002400364463540047,0.015415449454701755,0.0634399414033,0.052734375,0.0693359375,1.7131067278757424e-05,0.00411822250564122,1.0343425347561,1.01345859702,1.08295172915,0.0003401081038581486,0.018349578273616184,970.980033994313,970.93748104499,971.01629260595,0.0003458653109321606,0.07881156095993447,0.018504233510816898,0.0003991242753105268,0.03270644692350544,0.54,0.46,-0.6121248213057137,Lift down
-0.6684631347627998,-0.677734375,-0.65588378906,2.892823382629718e-05,0.005351537301377447,0.7688952636684999,0.7578125,0.77575683593,3.55452283918625e-05,0.005932097108775604,0.057117919918099995,0.04504394531,0.06506347656,1.9932965736381667e-05,0.004442255742189755,1.0204741977401002,1.01274140417,1.02918873314,2.153526697957489e-05,0.004617349273098055,971.0049710586868,970.9571960986,971.02235177523,0.00025681591060457143,0.06515567663007005,0.015945148211870774,-0.000286764496194382,1.7835269086934282,0.3,0.7,-1.569552578243601,Lift down
-0.6775524902299997,-0.69274902343,-0.66711425781,5.020893432532186e-05,0.00705030814802223,0.7621960449177999,0.75354003906,0.77124023437,2.2739802649303125e-05,0.004744723872135247,0.058729248042600005,0.04431152343,0.07250976562,7.10002385655794e-05,0.008383927252780978,1.0215669921817,1.0152870643,1.02862542852,1.2830761073877791e-05,0.0035640501487968733,971.0057059773313,970.96931836796,971.02886487759,0.00022033773403117927,0.05954650962996766,0.014769372251076465,0.0004099271649793811,0.10926561566178616,0.42,0.58,-0.7872115522033823,Lift down
-0.6710876464809999,-0.68579101562,-0.66088867187,4.249099981766594e-05,0.006485837634376094,0.7677941894486,0.75952148437,0.78967285156,3.918007618172228e-05,0.006228023395902191,0.0558520507776,0.04858398437,0.06640625,2.1216670684508288e-05,0.004583067092860763,1.021289860223,1.01135304738,1.04313565465,5.54327928503652e-05,0.007408000062220676,971.0147282116895,971.00410919278,971.02769809783,3.6737350029535925e-05,0.023588905050019093,0.006030752567403223,-1.721480115409798e-05,-0.2763464212290758,0.62,0.38,0.6261248574076392,Lift down
-0.7930493164028999,-0.80834960937,-0.77416992187,7.952831610918724e-05,0.008873163638077197,0.3555407714805,0.32824707031,0.38806152343,0.00026410971476178616,0.016169991268215587,0.5229052734343999,0.5068359375,0.56762695312,0.0002121285717968711,0.014491628137614572,1.0145069044444,1.0003840037,1.04504593442,9.326584890807296e-05,0.009609016100464824,971.0292506972265,971.02343691355,971.03638166105,1.407736234155624e-05,0.01294474750000063,0.0037331740808781845,5.151131304136995e-05,-0.9156493953172831,0.51,0.49,0.2454616115579661,Lift up
-0.8248193359338001,-0.83898925781,-0.80187988281,8.269623070682505e-05,0.00904816381371142,0.34172607421569995,0.32861328125,0.35205078125,3.75892116564987e-05,0.006100272087369031,0.5658923339794998,0.53356933593,0.58386230468,0.00021373662532232678,0.014546451769043319,1.0571567105817001,1.03374353853,1.07109055466,8.904192671948213e-05,0.009388903421182227,971.0040015375316,970.9361334776,971.03668852938,0.0009363574619770292,0.10055505177990653,0.030446574312346847,-0.000989141551300554,-0.5391556265884874,0.43,0.57,-0.8152084530099774,Lift up
-0.804866943356,-0.81909179687,-0.79431152343,2.6859856314693102e-05,0.005156671189008096,0.3351599121050999,0.30786132812,0.35485839843,0.00018945687195973153,0.013695338741343138,0.5163098144492,0.50354003906,0.53356933593,4.038994210502019e-05,0.006323451801347899,1.013384529707,1.00451947938,1.03374353853,2.497196378916069e-05,0.00497214683524824,970.8322349326367,970.73129927519,970.9361334776,0.0037533078879865506,0.20483420240998385,0.060957155520141235,-0.002103425341347687,-1.2495054640940044,0.51,0.49,-0.07169666646937646,Lift up
-0.8051635742143,-0.818359375,-0.79431152343,4.095847559767413e-05,0.00636780109941394,0.34843749999639984,0.32556152343,0.365234375,0.0001198077442903991,0.010890806528788174,0.5082861328091999,0.49499511718,0.517578125,2.719816535955353e-05,0.005189044585080956,1.0140113726269002,1.00466304856,1.02398444259,1.9077152255071927e-05,0.004345846377004277,970.6223902115397,970.51926856232,970.73129927519,0.0039501040929020795,0.21203071287004605,0.06253481471926704,-0.0021543236632368228,-1.3133982452516726,0.51,0.49,-0.05228562422736257,Lift up
-0.8628540039025999,-0.95324707031,-0.81701660156,0.0010376101491520705,0.0320504921594123,0.28021972655840005,0.09509277343,0.35986328125,0.0052864034730693635,0.0723432058892794,0.44293334960579983,0.40661621093,0.50305175781,0.0010460604606521008,0.03218073734465355,1.0131054411485,0.98918456609,1.05399071317,0.0001452705617289372,0.011992408269886737,970.4644179938093,970.35588259077,970.53191528785,0.001837748748896248,0.1760326970800179,0.042654088448908216,-0.000813427111100262,0.8134721266319827,0.43,0.57,-0.80407633698079,Lift up
-0.8423144531203998,-0.94152832031,-0.78686523437,0.0018571967789467439,0.04287918855525692,0.13407348632399999,0.05798339843,0.19018554687,0.0010375148886231165,0.03204902088577567,0.5445495605428999,0.40576171875,0.60290527343,0.0033126236738878034,0.0572668965210175,1.014727731085,0.97270904918,1.07058313526,0.00048126799507659915,0.021827856402446694,970.1420961566199,970.09351267759,970.35588259077,0.002126393884158608,0.26236991318000946,0.04588169510073731,-0.0007516918211321991,7.2791552323896305,0.67,0.33,2.4989656693384092,Lift up
-0.8020666503864998,-0.82971191406,-0.77355957031,0.0002921074493608776,0.017005480730260723,0.1233178710903,0.08996582031,0.166015625,0.0004290082177735599,0.020608690778305745,0.5987731933543999,0.51257324218,0.63562011718,0.0009579476006808051,0.030795586123241705,1.0092409136388998,0.97882752767,1.03276400257,0.0001440373213344059,0.011941396405825486,969.9778179170825,969.86468380152,970.10088732911,0.005423358270105285,0.236203527590078,0.0732743112380064,-0.0024866430979811824,-1.369753570967263,0.59,0.41,0.2739033044054154,Lift up
-0.7973767089799,-0.82116699218,-0.78173828125,7.992407739269259e-05,0.008895214253674032,0.124780273433,0.10131835937,0.14477539062,0.0001638284837416894,0.012735391588179474,0.609562988277,0.59484863281,0.62048339843,3.209421729504087e-05,0.005636778789529571,1.0115122046621001,0.996212739,1.02297332662,6.355300191342064e-05,0.007932053447518267,969.7577252011333,969.64621166778,969.86468380152,0.004321255631947002,0.2184721337399651,0.06540675099427835,-0.0022599230976857944,-1.2169496381359344,0.51,0.49,0.0180804957411298,Lift up
-0.7947424316366,-0.82116699218,-0.78637695312,7.234994059477345e-05,0.00846324058436399,0.1113500976527,0.07983398437,0.13452148437,0.0002996772166507795,0.017224414198580795,0.6117004394497001,0.58447265625,0.62426757812,0.00016068550518719124,0.012612638508072739,1.0092901238282002,0.98869162923,1.02703091169,5.316767204695273e-05,0.007255066872640334,969.5519452331723,969.44412678292,969.64621166778,0.003497118587133941,0.20208488486002807,0.05884001530644432,-0.0020301361001358992,-1.0873230757536234,0.51,0.49,-0.09568774649210035,Lift up
-0.7890869140581998,-0.79760742187,-0.77807617187,2.23246487774128e-05,0.004701212853045336,0.09108642577779998,0.07983398437,0.10070800781,2.601603666155168e-05,0.005075024758061399,0.6175292968710999,0.61022949218,0.63012695312,3.092276930433979e-05,0.005532950533964351,1.0061542949057,0.99681139506,1.02045647889,2.9629352591952634e-05,0.005416000283053271,969.3352424505008,969.21303319318,969.44412678292,0.004086327599287052,0.2310935897399986,0.06360396468219714,-0.002188136085213652,-0.9811794558313931,0.51,0.49,-0.1078485555878048,Lift up
-0.7700830078090999,-0.79321289062,-0.75170898437,0.00010969857978170818,0.01042120885424964,0.08057373046489999,0.05969238281,0.09594726562,8.611541203914596e-05,0.009233323232658679,0.5939184570278999,0.56665039062,0.63439941406,0.0004795822169931024,0.021789593727813545,0.9759499825636,0.94499931191,1.01711850027,0.0004539114513268959,0.02119840411006515,969.1192904631451,969.03368533869,969.21303319318,0.0032627152551659056,0.17934785448994717,0.056833864047891786,-0.001960045962909222,-1.2756436207490003,0.51,0.49,0.10292179507356729,Lift up
-0.7881750488239001,-0.81127929687,-0.76513671875,0.00014455235816779392,0.011962726887550179,0.07596435546479999,0.05041503906,0.10339355468,0.00026565173056080146,0.01621712715789062,0.6041259765577999,0.55932617187,0.63537597656,0.0005338468936807776,0.022989311097637743,0.9961978839211,0.95010442191,1.02212133296,0.0004879525140145105,0.021978921467496203,969.004520797518,968.99440893959,969.03368533869,8.902059843776891e-05,0.0392763991000038,0.009387778888181764,-0.0002644199063412038,2.4803870307372105,0.67,0.33,1.7573071042265371,Lift up
-0.7940966796840999,-0.80187988281,-0.78576660156,1.793651869559018e-05,0.0042139237663529555,0.07095336913699998,0.06103515625,0.08935546875,5.4144911988217904e-05,0.007321438579154764,0.611052246089,0.59460449218,0.625,6.778331115688192e-05,0.008191793335119796,1.0045361178914,0.98957495016,1.0171929434,5.496835552166156e-05,0.007376901244184102,968.9924627373193,968.98665846751,969.00005003485,1.3870504601448089e-05,0.013391567340022448,0.0037056442834456746,-7.910004975670138e-05,-0.5613432983214497,0.51,0.49,0.33083048957649125,Lift up
-1.2794482421831,-1.96069335937,-0.76538085937,0.12650964209534654,0.35389906142061617,0.2958203124985,-0.48803710937,0.97131347656,0.15480100311139428,0.3914754054602669,0.012092285155799999,-0.28955078125,0.30493164062,0.022541674645660467,0.14938627078551717,1.3778743406609997,0.76789442733,2.04833011374,0.12820180108676926,0.3562580287879862,968.9737037882339,968.91318801006,969.09564665198,0.001757792117376085,0.18245864191999317,0.04171587463067656,-0.00016927495000080558,3.164723929066395,0.6,0.4,1.7553512648223224,Stairs down
-1.1195397949177999,-2.03393554687,-0.68676757812,0.10176909748182475,0.3174136205442459,0.4436962890592,0.01489257812,1.20690917968,0.10157224057893093,0.31710647765875366,-0.1012048339827,-0.43811035156,0.1630859375,0.022305714136558855,0.14860234518739354,1.2362922338176,0.74063544366,2.37028347857,0.15702046669563238,0.39427181236892406,969.0339821709296,968.9942764118,969.06985911205,0.0006033056742714985,0.07558270025003822,0.024439161555355852,0.0004992186183618135,-1.2351933075005028,0.49,0.51,-0.06469084895223788,Stairs down
0.03233520507829999,-1.91333007812,0.7021484375,0.35390709803659787,0.591918936220351,0.23749633789070004,-0.74853515625,1.30688476562,0.3673656529376738,0.6030688156490079,-0.4534606933549,-0.89624023437,-0.00280761718,0.05817767085940574,0.23999144599508476,0.9636947908396,0.42078985951,2.23976116952,0.10709590317089322,0.3256147173258363,969.082988624126,968.98650875063,969.27220113896,0.007423777853946724,0.2856923883299487,0.08572945862075215,0.0013696686444111168,-0.887792057826641,0.61,0.39,0.5518353811540062,Stairs down
-0.45441284179399993,-0.86743164062,-0.12390136718,0.032314452069967414,0.17886114041140333,0.9305078124967,0.65966796875,1.25769042968,0.03348325240452628,0.1820670752236137,0.1860156249968,-0.443359375,0.51672363281,0.06113843265065687,0.24602245491855068,1.0856832402518,0.69849299481,1.61232400809,0.054440717413041496,0.23215578872582757,969.1051378678245,968.9687506011,969.2749153309,0.007638580045874932,0.30616472979988885,0.08696087767160691,0.0007079098163106169,-0.5584203126779008,0.56,0.44,0.33547244408029175,Stairs down
-0.46720703124640006,-0.70263671875,-0.34912109375,0.008618000637350407,0.09236785496576665,0.8894299316368,0.73950195312,1.19763183593,0.013893934902040838,0.11728169317084586,0.17433349608999996,-0.02075195312,0.435546875,0.017689518560967815,0.13233526882640975,1.0279699771747,0.85797219657,1.39495062198,0.02306802705523087,0.15112030566630866,969.2340212605725,969.14148379388,969.30426448194,0.001926452325714794,0.16278068806002466,0.04367136135338176,0.0009886465174159752,-0.11760424023547733,0.4,0.6,-0.8304540234968142,Stairs down
-0.5251196289028999,-0.71252441406,-0.35522460937,0.012449011531876567,0.1110158611035279,0.8993676757782001,0.76245117187,1.16027832031,0.011589141439861731,0.10711325793506196,0.21646972655869995,-0.00061035156,0.44616699218,0.018160129098902175,0.13408403263593005,1.0738660933837998,0.87746346625,1.38432336155,0.020262521353326755,0.14163296275865123,969.3305896026587,969.24936788441,969.40933773,0.0020296994971199097,0.1599698455898988,0.04482635945678291,0.0013367723456472308,-0.9753764632148298,0.57,0.43,0.3769425081264002,Stairs down
-0.47954345702780005,-0.67211914062,-0.27856445312,0.015444495816452868,0.12365294520668862,0.8461145019499997,0.58410644531,1.27990722656,0.0270337660068584,0.16359531884130982,0.22940673827760003,0.00866699218,0.41796875,0.016384502101722924,0.12736034343823707,1.0098046874293,0.64759133753,1.48939513527,0.037442180493070576,0.19252989037585794,969.3482675711505,969.30279430759,969.42238810359,0.0011462224758654173,0.11959379600000375,0.03368620268161378,0.0008428633840116978,-0.45005164896918615,0.44,0.56,0.5004270095224413,Stairs down
-0.6279443359345,-0.85607910156,-0.30041503906,0.018664806563653085,0.13593439041690866,0.7777221679649,0.53625488281,1.13134765625,0.028120948660197796,0.1668524473107776,0.2882177734326,0.04577636718,0.51245117187,0.012397681727557262,0.11078675421855128,1.0583796024791001,0.82743083902,1.46030765868,0.02086824660274915,0.14373435266741788,969.4273048034145,969.37312036738,969.47180403609,0.0006623722916026334,0.09868366871000944,0.025607588107563098,0.0006053859760368589,-0.45312854151081705,0.45,0.55,-0.4261687162068159,Stairs down
-0.6131848144491999,-0.83532714843,-0.39685058593,0.014421576290171031,0.11948790954431047,0.7553442382761999,0.60705566406,0.92346191406,0.008092988494777876,0.08951010339525978,0.32789794921599996,0.07543945312,0.49072265625,0.01207780989147458,0.10934821348590855,1.0382108499050002,0.87561460605,1.26975556372,0.010527557717787362,0.10208957900103952,969.4517517884743,969.4047572737,969.5568738156,0.0010084886162933173,0.1521165418999999,0.03159752727873471,0.0002791151917402809,2.56247060744401,0.57,0.43,1.163587372199157,Stairs down
-0.5863696289022999,-0.76147460937,-0.408203125,0.010008165156040845,0.09953935656051045,0.7290124511682998,0.58154296875,0.86779785156,0.004404727333290911,0.0660354454816351,0.40201660155869995,0.20373535156,0.59008789062,0.010064672002779716,0.09981996434958249,1.0249779405828001,0.8473530416,1.1920157015,0.01066550884448104,0.10275628329224558,969.4710790691522,969.39752712878,969.66825045191,0.005013375672683786,0.2707233231300279,0.07045027974363868,0.0013392551963162113,2.1664678506663817,0.6,0.4,1.542215805442691,Stairs down
-0.5972021484333999,-0.958984375,-0.22619628906,0.025182655989835673,0.15789499494897652,0.7849133300740999,0.65319824218,1.01525878906,0.009513812683703153,0.09704985603732816,0.30604003905819993,0.11242675781,0.48803710937,0.010851210921851973,0.10364699133420832,1.0444734412498002,0.78980427048,1.38576105385,0.020775030963042587,0.14341297240282053,969.4545533951,969.37756178726,969.56510162998,0.0018107526282870336,0.18753984271995705,0.042339639842636397,-0.0002494400795606176,0.3719883861265374,0.63,0.37,0.4984001442075554,Stairs down
-0.9579980468708998,-1.30627441406,-0.22619628906,0.07828851591456512,0.2783983310930931,0.6541943359336,0.17993164062,1.16564941406,0.08273971885136101,0.2862032873026573,0.0070019531254,-0.26586914062,0.43811035156,0.03817074031427416,0.19439401459698138,1.226022192192,0.8139208328,1.47004580151,0.03407988290061271,0.1836820189120497,969.4247771687089,969.37020050419,969.50835274594,0.0015477114834566144,0.13815224174993546,0.03914376538635557,0.0004719449444526935,-0.10717834640744206,0.6,0.4,0.8489833109212845,Stairs down
-1.0770019531208,-1.61535644531,-0.63073730468,0.08711848475749834,0.2936789061371677,0.3533984374963998,-0.05603027343,0.65600585937,0.046025211738811855,0.21345950346944906,-0.09315429687320002,-0.40808105468,0.11364746093,0.02285877661198109,0.150433336883356,1.1680149423836,0.65623299258,1.68921987433,0.084530230727259,0.2892834741563825,969.4496367436446,969.38911031563,969.51955221377,0.0010146133922981973,0.13044189814002038,0.03169333144961595,0.0003203464124373944,-0.5217015188901617,0.57,0.43,0.4108389001499,Stairs down
-1.0479931640592002,-1.45886230468,-0.67736816406,0.03983753339156835,0.19859294563919602,0.34049804687199997,0.04516601562,0.51794433593,0.020062947369688083,0.14093373583351576,-0.1497412109352,-0.45837402343,0.17138671875,0.023811728929684566,0.15353700414033003,1.1331108130307999,0.78371689419,1.50773963356,0.035945449574111596,0.18864250602229202,969.5111188679496,969.4808800528,969.54633747513,0.00034157727045466775,0.06545742233004148,0.01838916794610678,0.000282162762475994,-0.8703352959515116,0.57,0.43,0.10190666262492669,Stairs down
-1.017167968746,-1.43334960937,-0.64123535156,0.05559347239419605,0.23460080492243435,0.3179785156224,-0.07116699218,0.64697265625,0.03068815857456718,0.17430225755514903,-0.1292041015596,-0.40515136718,0.0849609375,0.014521873454360982,0.11990268854290705,1.0896566969612,0.6624378526,1.57585069392,0.06553380307656312,0.2547125145056628,969.5428097803311,969.49797112596,969.61535296998,0.0009154988808912829,0.11738184401997387,0.030105545869197756,0.0007676670092173142,0.5427029099911498,0.56,0.44,0.7099761423950788,Stairs down
-0.7741101074191,-1.32409667968,0.62841796875,0.27565108389864545,0.5223931211833278,0.40383544921500003,-0.54614257812,1.19873046875,0.1519717247729714,0.38788143488086885,-0.13799804687290002,-0.47277832031,0.14025878906,0.02849478296485385,0.1679578373735662,1.0766849259745,0.33533130333,1.47660671147,0.07442320736333119,0.27143871369002964,969.6051400924496,969.56707288907,969.69740677558,0.0013326538456994242,0.13033388651001587,0.036322545440021545,0.00035416305371167666,0.804288145182245,0.69,0.31,1.3314256616321567,Stairs down
0.4982739257773999,0.30358886718,0.96655273437,0.022016647795309815,0.14763631435848268,-0.5747314453094999,-0.9638671875,-0.23376464843,0.04134668665698087,0.20231959813723202,-0.6064660644485999,-0.83276367187,-0.34313964843,0.01803411800876051,0.13361802583735813,0.9871485124881002,0.64867420931,1.38028964277,0.05304597868352495,0.2291626472544985,969.6376313812191,969.594197608,969.73207015621,0.0017178036141938162,0.13787254821011174,0.0412386418065857,0.0006112044295386705,0.24991234561865694,0.65,0.35,1.1350828805129602,Stairs down
0.6795422363240999,0.45373535156,1.0556640625,0.028756043734942477,0.1687260599243432,0.5525732421833,-0.57189941406,1.3046875,0.10457196466766619,0.32175494560455403,-0.35177612304379996,-0.80017089843,0.09033203125,0.0467669817453406,0.21517274903641306,1.0168742792385,0.71348236816,1.39720692115,0.035476788021990675,0.18740869814864725,969.6853259865708,969.61142787655,969.73207015621,0.0006063769613750809,0.12064227966004637,0.024501289593842405,0.00011125839598746725,1.3950578220052865,0.48,0.52,-0.7152341014091642,Stairs down
-0.2865734863273,-1.14221191406,0.64184570312,0.29617083219612583,0.5414878797112309,0.5877331542920998,0.15759277343,0.89709472656,0.040840948258802655,0.20107843936189335,-0.46940917968430007,-0.95922851562,0.06201171875,0.08533009555587029,0.29064891983338176,1.0156771054907,0.66988786438,1.26128097592,0.030541267109703497,0.17388460092430974,969.7839123286234,969.6899476415,969.9821358609,0.005630728211302994,0.2921882194000318,0.07466204476968176,-0.0015957160457457512,1.2970472425514492,0.6,0.4,1.3245265644520172,Stairs down
-1.0712841796832,-1.50769042968,-0.7294921875,0.049125932057787966,0.2205327021945047,0.2687255859344,-0.11633300781,0.60339355468,0.03591003682818377,0.18854955969161513,-0.26893554687159993,-0.51745605468,-0.02575683593,0.014214905006662603,0.11862864728469248,1.159864999964,0.79236137919,1.56887859619,0.04561728238425911,0.21251143395219121,969.8645285363148,969.75905369116,969.97971296152,0.002811017795475389,0.2206592703599881,0.05275327115469367,0.0012502048310808784,-0.2709363506425011,0.61,0.39,0.5557784839480105,Stairs down
-1.1049951171840002,-1.32678222656,-0.91076660156,0.012140337048292081,0.10963089745965396,0.3016503906212,0.0087890625,0.61376953125,0.037530191402336814,0.1927560361916416,-0.20222656249759996,-0.29406738281,-0.06762695312,0.00459981431868599,0.06748196926216017,1.1793876130371999,0.9276394926,1.38358066796,0.01583358312792921,0.1252008278592834,969.8467379724493,969.80601104318,969.94218275653,0.0008697570574614707,0.13617171334999512,0.029343815138574876,0.00046898502435729266,-0.33545370129593577,0.48,0.52,0.5177376542807633,Stairs down
-1.079453124996,-1.24890136718,-0.97717285156,0.005095998831457894,0.07102843686259268,0.31684570312080007,-0.07385253906,0.64416503906,0.04589362939155058,0.21315415336707627,-0.19406738280920002,-0.27233886718,-0.08825683593,0.0017675329940466042,0.04183130005278509,1.160569966014,1.00916733716,1.33487072676,0.008666001324270929,0.09262473379734065,969.8780083762801,969.84805263881,969.91239989894,0.00020778504252505926,0.06434726012992087,0.01434249602056102,0.0003840159356172756,0.8575164655969831,0.36,0.64,0.22014698339743233,Stairs down
-1.0752197265571999,-1.22009277343,-0.935546875,0.006390912364086731,0.07954246187066291,0.3193017578091999,-0.08459472656,0.67761230468,0.05158278137625621,0.22597998487143423,-0.20418945312200001,-0.29833984375,-0.05078125,0.004155210196320595,0.06413780550001215,1.1617272885452,0.95076634968,1.31762762601,0.01175932084497805,0.10789683793572577,969.88614420132,969.86447378767,969.91239989894,0.00016243428625030364,0.047926111269930516,0.012681086049223095,-3.235372420732877e-05,-1.2828601388030987,0.52,0.48,0.08074185321122636,Stairs down
-1.072827148434,-1.25036621093,-0.89770507812,0.009833865695496762,0.09866877438451231,0.32024902343360007,-0.03759765625,0.60974121093,0.04293304515576812,0.2061642905650987,-0.21251464843280002,-0.30383300781,-0.00170898437,0.005763696805468409,0.0755384659455944,1.1583659715992,0.9278431156,1.35178534374,0.014963212773885388,0.12171105391929911,969.8914220871136,969.85368008072,969.94021707855,0.0006519374553982861,0.08653699782996682,0.02540507982361605,-1.355952142464908e-05,-0.6203477021558483,0.59,0.41,0.6081017654955613,Stairs down
-1.0934033203088,-1.48107910156,-0.78820800781,0.03385877329900331,0.18308518663729534,0.30595703124759993,-0.27917480468,0.63171386718,0.07059265507496128,0.2643609814708132,-0.11774902343519997,-0.28540039062,0.11706542968,0.013059199457893063,0.113704034507638,1.1756778568140003,0.79253697032,1.5097681418,0.0374974312157353,0.19267188924069323,969.8981461291842,969.8314043827,970.12244748801,0.005040593219446294,0.29104310530999555,0.07064125768452761,0.00014088186759095693,5.226901701332499,0.81,0.19,2.4645983500433557,Stairs down
-0.9853320312464,-1.32958984375,-0.68420410156,0.03276946530195126,0.18011599220760977,0.3233691406216,0.18933105468,0.52111816406,0.008446012458513785,0.09144152412295328,-0.20680664062160006,-0.51611328125,0.02575683593,0.019952884442737864,0.14054663140150492,1.0716447523944002,0.76170667981,1.36647255869,0.030656568444887195,0.17421252182446106,969.9544420163345,969.89207051075,970.01823131177,0.0014588909049326614,0.12616080101997795,0.03800397342230592,0.0010711130508982728,-1.265082241528993,0.45,0.55,-0.04523970302760594,Stairs down
-1.0553173828079998,-1.38195800781,-0.71643066406,0.02993411569889117,0.1721475371357437,0.3440429687451999,0.04577636718,0.65551757812,0.03438065148363242,0.18449077204238726,-0.19422363280760002,-0.39147949218,-0.05017089843,0.004756511967584461,0.06862176657525378,1.1452221958932,0.90891586557,1.4619811558,0.026898839129797902,0.16318655195358447,970.0131908093259,969.97474732638,970.06438887186,0.00032864721651873924,0.08964154548004899,0.01803775885063197,0.00027413389831739874,0.5861839742856683,0.37,0.63,0.1113587063160831,Stairs down
-1.039741210934,-1.36682128906,-0.66906738281,0.04157160156910701,0.20286913405793386,0.266494140622,-0.25842285156,0.62756347656,0.041354130397589846,0.20233780935261197,-0.20065917968399993,-0.43139648437,0.05505371093,0.017825161567725373,0.1328416724979331,1.12010333718,0.7586380208,1.40413592162,0.03783527043233205,0.19353789739482222,970.0768883937244,970.01599090922,970.13274016397,0.0011737546733791954,0.1167492547499478,0.034088372308536584,0.0009463086886439307,-0.9160900380650161,0.45,0.55,-0.06735372136393593,Stairs down
-0.9549462890584001,-1.38366699218,-0.67456054687,0.0438232758068825,0.20829076563499802,0.40434570312039997,0.17370605468,0.65161132812,0.014894846713870499,0.12143269018979937,-0.19438476562239998,-0.52807617187,0.05163574218,0.02302275281919049,0.15097193544165283,1.0734580211055997,0.75518052718,1.45887375479,0.042237013371240494,0.20448629107480062,970.1583194035126,970.09636417527,970.25748587313,0.0013764409825460825,0.1611216978600396,0.036914449375828724,0.0010899535765511016,0.24298994779080418,0.53,0.47,0.3618317012709595,Stairs down
-1.003476562496,-1.4443359375,-0.71496582031,0.0501182610581641,0.22274891345993691,0.3257080078095999,0.18139648437,0.58898925781,0.008715435711908387,0.09288854264541618,-0.16689941406080003,-0.53039550781,0.16186523437,0.044900857172994635,0.21083607044636526,1.0906475306588002,0.77980492458,1.5217538284,0.05463788334890392,0.23257580380472703,970.2374216819712,970.18640738487,970.29250885901,0.0011511271994825531,0.10610147414001858,0.03375819793009881,0.0004980453601730438,-1.369097796287068,0.52,0.48,0.17605951812284926,Stairs down
-1.0003466796832001,-1.34558105468,-0.78210449218,0.029298902377017075,0.1703112249772366,0.35789062499599994,0.1904296875,0.59558105468,0.010998236627073561,0.10434679803809423,-0.26544921874680005,-0.62365722656,0.03833007812,0.038305781200466134,0.19473757569729955,1.118402268342,0.88989451215,1.38554901432,0.026500731230225918,0.16197445452269213,970.3052598446958,970.24096987575,970.37952829911,0.0015125562573194246,0.13855842335999569,0.03869664965789972,0.000573564261652118,-0.9201256011826087,0.41,0.59,0.16112313423188301,Stairs down
-0.9651513671832,-1.36486816406,-0.67663574218,0.02671996887294717,0.16264307296721153,0.31944335937199997,0.21032714843,0.435546875,0.0037157467159558088,0.060651374665346626,-0.23588867187080007,-0.39489746093,-0.01879882812,0.010299524875485116,0.10097786701416436,1.0520340733167997,0.82981194211,1.42854464039,0.022986751090350113,0.1508538484078103,970.3540638613238,970.32801095222,970.39324179947,0.00036978741247673414,0.06523084725006356,0.01913346644892051,7.584729407409001e-05,-0.5572015925994216,0.45,0.55,0.5305113546280582,Stairs down
-0.9721435546832001,-1.39624023437,-0.72338867187,0.03717013561363919,0.19182917989060683,0.28357910155839994,0.12756347656,0.51574707031,0.007646053632263067,0.08700340853058824,-0.3348925781212,-0.71728515625,-0.01611328125,0.03836881521993379,0.19489773489636675,1.0854656045063997,0.80630561947,1.52460012821,0.04217253787083798,0.20433015561127926,970.4055785158573,970.35682311425,970.49544296163,0.0010259861554738005,0.13861984738002775,0.03187046115008477,0.00038903208456705625,0.6978553971676646,0.49,0.51,0.6489401342441627,Stairs down
-1.189511718746,-1.74841308593,-0.77990722656,0.07254381748130154,0.2679895134263438,0.30217285155920004,-0.15209960937,0.74841308593,0.06252541204821553,0.24879742347486916,-0.1467431640604,-0.35266113281,0.06188964843,0.009615454191813559,0.09756689833081414,1.2654973866844,0.80393399449,1.80481195227,0.07023668548593703,0.2636936074899763,970.4449612885116,970.4024285788,970.51106037798,0.0009952566606446305,0.10863179917998877,0.03138955389995506,-0.00011252131038371271,-0.37156832653770167,0.52,0.48,0.542087215312049,Stairs down
-1.0837255859336,-1.21838378906,-0.9013671875,0.00838981532101228,0.09113680468286212,0.27136718749799993,-0.06176757812,0.58532714843,0.03164284575992793,0.1769927040934983,-0.23466796874640006,-0.42041015625,-0.037109375,0.011252432158580001,0.10554576181445753,1.1582608480428,0.91855925376,1.29879488221,0.012499395768650176,0.11124028861416926,970.4603991014716,970.40581023897,970.57268056932,0.002028480356646206,0.16687033034997967,0.0448128949419667,0.00010717449076798623,0.7308721342339899,0.68,0.32,1.1453575723373415,Stairs down
-1.0669482421843997,-1.25793457031,-0.86157226562,0.008540115067363447,0.09194951830591508,0.1970214843732,-0.09497070312,0.52722167968,0.04119914950634727,0.20195830760650524,-0.27933105468280006,-0.41259765625,-0.04614257812,0.012146111112925842,0.10965696513125185,1.1409951653836,0.87987503065,1.35118019341,0.014766070115589856,0.12090661443624148,970.4421002219351,970.41315103551,970.51291745793,0.0008006457988789397,0.09976642241997524,0.0281538512621302,-3.4715070409957564e-05,0.7112698607616714,0.6,0.4,1.1462952859337088,Stairs down
-1.0618798828088,-1.28564453125,-0.84497070312,0.011645093012411891,0.10737151429633361,0.2557421874960001,0.01354980468,0.52368164062,0.02873812116762833,0.16867347140541114,-0.27101562499520004,-0.38037109375,-0.10717773437,0.005234471090063149,0.07198698756832736,1.137524996938,0.87452069847,1.37508076734,0.017819000737910776,0.1328187137813481,970.4374102089299,970.40384461239,970.51469020746,0.0008776195657460219,0.11084559507003178,0.029476149173332696,-0.0004153221062073729,0.11541294976566441,0.64,0.36,1.0925044696272033,Stairs down
-1.0864453124964002,-1.36865234375,-0.84838867187,0.0176517562192677,0.13219394334490148,0.2876318359336,-0.40283203125,0.63220214843,0.07572129702252264,0.2737956976511819,-0.18817871093480001,-0.36389160156,-0.00036621093,0.009796650819146373,0.09848189839231831,1.1738647394860002,0.91425711035,1.47776584435,0.02291545227264659,0.15061971235505703,970.4544011394299,970.42253679775,970.5269198535,0.0007278233908495093,0.1043830557499632,0.026842972207656406,0.00015802780058283655,1.6795027679183745,0.6,0.4,1.3821121253604918,Stairs down
-0.9652294921832,-1.32482910156,-0.701171875,0.023820865852506114,0.15356645855778875,0.2844335937464,0.048828125,0.50524902343,0.01220414966047284,0.10991864338622503,-0.25949707030880004,-0.59899902343,0.05249023437,0.028094113474784705,0.1667728165500507,1.0572555052160002,0.8004694634,1.45788661097,0.02585647042589192,0.15999345524624747,970.4774768987975,970.40839991699,970.56676635327,0.001292109358344918,0.15836643628006186,0.03576574149603876,0.00031100271499534993,0.09843374523210091,0.44,0.56,0.0636998206099078,Stairs down
-1.0329199218715999,-1.35095214843,-0.73425292968,0.023249981041987482,0.1517151318477086,0.3019042968716,-0.216796875,0.61267089843,0.04649530516682447,0.2145468529602712,-0.2402783203088,-0.52600097656,0.02685546875,0.01974105459223333,0.13979858384944746,1.1327775246356,0.87707907742,1.42772599934,0.021424240155055518,0.14563652616533038,970.5718945436445,970.50838403891,970.67530062826,0.0017213438989004655,0.16691658934996667,0.041281115051697195,-7.511590576861426e-05,-0.16563789733420986,0.6,0.4,0.49446939043778343,Stairs down
-0.9910449218720001,-1.38244628906,-0.73486328125,0.03515161514278899,0.18654784638628533,0.2740429687464,0.14501953125,0.36022949218,0.0030122519501355246,0.05460887684831258,-0.2311425781216,-0.49279785156,-0.05041503906,0.014785318808296064,0.12098539424332634,1.0626221398484,0.83352506438,1.43234333002,0.03429329217475766,0.1842562326028894,970.6203428265627,970.55664096534,970.71335420234,0.0020043354419990176,0.15671323700007633,0.04454539356183788,0.0011453986294356552,-0.698040592947939,0.52,0.48,0.4666348531442365,Stairs down
-0.9769433593704001,-1.42077636718,-0.66748046875,0.05745455149430408,0.23849529550781717,0.2964208984336,0.20178222656,0.53234863281,0.005842632139645329,0.07605396648596886,-0.15235839843439997,-0.45568847656,0.05834960937,0.01645157953658281,0.12762078099281865,1.0438650805780003,0.72113980138,1.45036187034,0.0553471991017927,0.2340805996035869,970.681439757372,970.62026978154,970.81225621625,0.0017923490612342834,0.19198643471008836,0.04212393109174333,0.000852848919268122,1.4684985621281283,0.56,0.44,0.954279815480433,Stairs down
-1.0004394531211998,-1.36767578125,-0.72204589843,0.043924508673198914,0.2085312053062249,0.3262890624971999,0.26928710937,0.51342773437,0.002548895074804709,0.05023351594360743,-0.1917529296856,-0.453125,0.10998535156,0.025515112828462375,0.1589338280548787,1.0832998488476,0.80030281847,1.40957841631,0.042265562228017264,0.2045553876233454,970.7894917001747,970.72577957211,970.94850952346,0.002987314529493035,0.22272995134994744,0.05438236280448014,0.0003740564582142153,1.1039985849302427,0.64,0.36,1.3288107144308943,Stairs down
-1.0035839843712,-1.33557128906,-0.73815917968,0.037463159127866415,0.19258381950877324,0.28122070312159997,0.17578125,0.376953125,0.003150830702331514,0.0558508943107288,-0.18353027343400005,-0.42663574218,0.041015625,0.0182612413345434,0.13445679202330377,1.0680813447107997,0.77900511555,1.40625534586,0.03781614015305556,0.19348896286745917,970.840796649588,970.73117457725,970.96142007854,0.004001487929052598,0.2302455012899145,0.06294023395064617,0.0011381414788583233,-0.5045657971973392,0.52,0.48,0.09906361837373653,Stairs down
-0.9870068359336,-1.31652832031,-0.75598144531,0.02599062953326908,0.1604079899441932,0.2835986328084,0.15515136718,0.44311523437,0.006872480902915602,0.08248488403269078,-0.22465332030920002,-0.53295898437,-0.02172851562,0.016036776436671424,0.12600162170505866,1.0625390518052,0.83267983602,1.40900043555,0.024748933769515362,0.15652937242517842,970.9169559694787,970.87100284743,970.98353961577,0.0013137046136534529,0.1125367683400782,0.03606338264107956,0.0005385711123742005,-0.6451927936708977,0.64,0.36,0.727017851664519,Stairs down
-1.2108837890575999,-1.58764648437,-0.85266113281,0.038954533808184845,0.19637970483250808,0.29920410156000005,-0.18920898437,0.7451171875,0.06039194256292045,0.24451589546958136,-0.0468359375,-0.27001953125,0.08483886718,0.00889165921599567,0.09382293229182147,1.2765541356551997,0.90626369663,1.64047724194,0.035880346472996975,0.18847159735160893,971.0456212848673,971.00460185106,971.12158532557,0.0010552933358619206,0.11698347450999336,0.03232244425323217,-8.824522194796265e-05,0.20162228477749178,0.68,0.32,1.070622888035448,Stairs up
-1.4029150390584,-2.23303222656,-0.66247558593,0.13666058636658573,0.36782330065252783,0.3939208984359999,-0.50720214843,1.205078125,0.2512525873931925,0.4987384700614748,0.16216308593559997,-0.28430175781,0.48913574218,0.029985513445586087,0.17229526491209857,1.5777100020683996,1.00538604117,2.25386948448,0.0749414112976548,0.2723820794117672,971.007880762047,970.89895309445,971.31500988215,0.007797886052891684,0.4160567876999721,0.08786300240922096,-0.0014555103005328808,3.573527818654079,0.56,0.44,1.6226758808986772,Stairs up
-1.0602832031208,-1.32958984375,-0.67663574218,0.029348086444156287,0.17045411576056096,0.46125976562079984,0.0546875,0.84594726562,0.031678576517621945,0.17709260501908522,-0.08228027343639999,-0.46984863281,0.28283691406,0.05302349061520605,0.22911406702569354,1.1924646568736,0.75252978519,1.60107234339,0.03501896944413098,0.18619554170196898,970.9454857589907,970.82402668341,971.17705466513,0.009461688516134142,0.3530279817199471,0.0967836330738457,-0.0018881230875570994,0.33180627694908393,0.52,0.48,0.9697835475824066,Stairs up
-0.9291748046840002,-1.3203125,-0.52770996093,0.04696052363418825,0.2156175280394578,0.3897998046835999,0.20166015625,0.70361328125,0.03052976791341514,0.1738518629013822,-0.17174316406079998,-0.4716796875,0.26049804687,0.043728222653282876,0.20806475056277562,1.0709294290304,0.88488210454,1.37007207925,0.01810293625045495,0.13387272645296502,970.887203990274,970.85478112509,970.97524834672,0.0012889293486500091,0.12046722163006507,0.035721702859235434,-0.0002762767098986927,0.45136021641329727,0.68,0.32,1.2392020137876327,Stairs up
-0.9287499999968,-1.09411621093,-0.74572753906,0.009696464008707415,0.09797703490420774,0.43738281249679983,0.32666015625,0.58508300781,0.006749882216337111,0.08174584634202364,-0.22658203124680004,-0.34741210937,-0.05017089843,0.007543623664238357,0.08641867522472196,1.0612899788192005,0.96114639399,1.1483588808,0.002659954640164673,0.05131622641780109,970.8376626603858,970.75259295601,970.89070223354,0.001216433472061322,0.13810927753002034,0.03470258113369536,-0.0009138991435091968,0.6653981120052919,0.44,0.56,-1.1266473338092686,Stairs up
-0.9385058593708,-1.20788574218,-0.56420898437,0.03422697780088024,0.18407799440148037,0.49875488280839986,0.34240722656,0.70568847656,0.009649525989299187,0.09773960675901144,-0.11685058593600002,-0.53686523437,0.22326660156,0.029969591419230255,0.1722495152534194,1.0929046678684,0.72980915215,1.37496954168,0.0220916786275578,0.14788766629196035,970.8019275189837,970.69610157458,971.0875986088,0.006827308264338337,0.3914970342200377,0.08221335160237024,0.00017763187008731373,3.4119916096463694,0.6,0.4,1.4516934140125248,Stairs up
-0.8336181640579998,-1.14819335937,-0.51843261718,0.026758090414271084,0.1627590535427396,0.5630908203080001,0.28234863281,0.88610839843,0.02318373554885487,0.15149883891755186,-0.098632812498,-0.54650878906,0.119140625,0.025942574847123118,0.16025963028364906,1.0336534464608,0.64531067623,1.33286993969,0.028691976249566063,0.1685379971610865,970.6803649575074,970.51179012198,970.92090007367,0.010076930917000484,0.409109951690084,0.09988073692074202,-0.0023470094703931985,0.6318447099165354,0.52,0.48,0.6727051962582863,Stairs up
-0.9783984374956001,-1.22082519531,-0.75219726562,0.01609727045525605,0.1262390500229762,0.4447509765583999,0.01501464843,0.81372070312,0.03794238904506371,0.19381167445387049,-0.14820800781120003,-0.64038085937,0.12561035156,0.03484742487245151,0.18573893136261713,1.1191897794111998,0.93756222518,1.42946863844,0.012570705470983051,0.11155715313808084,970.5842590139644,970.50615364043,970.68817044188,0.0023997946331154652,0.1820168014498904,0.04874214487262856,-0.000148373763985199,-0.3409402221436024,0.56,0.44,0.35602125314789007,Stairs up
-0.9682348632772999,-0.98376464843,-0.91540527343,0.00020041778233375468,0.014085936408716927,0.29049072265270004,0.236328125,0.42895507812,0.002055341396675809,0.04510862426087778,-0.0149487304683,-0.09094238281,0.06994628906,0.0020045040289582336,0.04454726690458856,1.0130205765399003,0.99520064313,1.03237820091,9.499700902358545e-05,0.009697785259189316,970.542237012542,970.5214256883,970.56131699668,0.00011952630195737163,0.03989130837999255,0.010878007121610002,-2.842722597695421e-05,-0.49891906975766487,0.52,0.48,-0.15288604646241957,Lift down
-0.9018859863241999,-0.99768066406,-0.83227539062,0.001398176970792589,0.037204773901808125,0.36253173827759994,0.29431152343,0.41564941406,0.0009375759508518845,0.030466378047666998,0.020245361327299996,-0.05358886718,0.06701660156,0.0009904733734540652,0.031314032632663656,0.9733893478129001,0.90410063161,1.0612768959,0.0010541513533666065,0.032304950701602074,970.5655217035767,970.53885602885,970.60110628082,0.0004024722817777948,0.062250251969999226,0.019961151243353095,0.00021399992212834754,-1.2418695126132706,0.4,0.6,0.03850654441146994,Lift down
-0.946020507809,-0.962890625,-0.90942382812,0.00011663966710444285,0.010745848986161979,0.3618969726512,0.34558105468,0.38342285156,9.193571530059396e-05,0.009540249375545066,0.011060791012,-0.00805664062,0.03833007812,0.00010698067267113472,0.010291300498208348,1.0130410698086,0.97377624526,1.02909975136,0.00010783078817611526,0.010332109189045289,970.7093884066225,970.60451093658,970.82398261939,0.0042720021195339,0.2194716828099672,0.06503293087612276,0.002239660377165907,-1.1075707527277894,0.52,0.48,0.12060155784431106,Lift down
-0.9586047363240999,-0.9921875,-0.927734375,0.00044408798665352355,0.020967763514189785,0.3834680175745999,0.37109375,0.39489746093,4.776489102613687e-05,0.00687657197416529,-0.0033630371073999996,-0.01086425781,0.02575683593,6.0942249724782764e-05,0.0077674208864677175,1.0325139317494,0.99998559047,1.06790322254,0.0004488070148488174,0.021078874369859724,970.9372611799819,970.83968800355,971.04469793477,0.003780587320589729,0.2050099312200473,0.061178275943212325,0.002109673975509349,-1.1318952442568353,0.52,0.48,0.06331372574867168,Lift down
-0.9726623535118,-0.99584960937,-0.94250488281,0.00019441029490518296,0.013873218514682565,0.3694458007780998,0.31689453125,0.400390625,0.00047933257588513603,0.02178392182611489,-0.03896362304269999,-0.07434082031,0.00341796875,0.00033945799321461443,0.01833203243730679,1.0414871842078997,0.99907737877,1.06967804892,0.00039185005761226794,0.019695978194447343,971.0944427810615,971.05321635885,971.13111256945,0.000429407961667179,0.07789621059998808,0.020618289988515226,0.0006842467591473575,-0.6834400272704246,0.44,0.56,-0.46577700931875693,Lift down
-0.9636423847426734,-0.97277832031,-0.94580078125,2.187780518972175e-05,0.004654158705625566,0.3022654316173267,0.28356933593,0.32348632812,9.232602499287864e-05,0.009560957375364833,-0.07558569577287128,-0.09326171875,-0.05554199218,0.00012903214092760905,0.011302857823481225,1.0128681027858415,0.99907737877,1.02166202378,2.3500965791864978e-05,0.004823720862803169,971.1375965079696,971.12305115576,971.15310650461,8.995790371786705e-05,0.030055348850055452,0.009437543716657887,0.0001788833578078789,-1.2612983395471444,0.55,0.45,0.1765553566297166,Lift down
-0.9667211914026,-0.97436523437,-0.96044921875,1.665551855234461e-05,0.004060660459435283,0.2941503906212,0.27954101562,0.30944824218,5.699675492587841e-05,0.007511776579253381,-0.09004638671439999,-0.0986328125,-0.08190917968,1.5923236361055253e-05,0.003970390912422189,1.0145216663016001,1.00710864217,1.02167466909,1.7307401685652157e-05,0.00413936319604787,971.1416434204574,971.13268266452,971.15024057157,2.4945677583372747e-05,0.017557907049990717,0.0049695292339958135,-4.6564255029500756e-05,-0.7881914719307983,0.45,0.55,-0.11897469170350695,Lift down
-0.9656353574780806,-0.97033691406,-0.96044921875,6.180747318532705e-06,0.0024735228981023027,0.2979502051729293,0.27685546875,0.30749511718,5.216430544777724e-05,0.007185916313980916,-0.08907310408353536,-0.10388183593,-0.07592773437,3.685989138151377e-05,0.0060404941226978245,1.0145169627037374,1.00755422077,1.02097976211,9.65947814604348e-06,0.0030922334419832874,971.1381655290367,971.1276252311,971.144976518,1.887628043909003e-05,0.017351286900066043,0.004322685616570477,-9.695566573016046e-05,-0.36619879759277385,0.44,0.56,-0.40946032122752885,Lift down
-0.9675756835889001,-0.98510742187,-0.95642089843,4.778750616989736e-05,0.006878199699645132,0.30896972655840005,0.29321289062,0.3193359375,4.0539491055286283e-05,0.006335147681367295,-0.0708959960904,-0.09216308593,-0.05578613281,7.190775989579646e-05,0.00843733857900929,1.0182364543223001,1.00805520676,1.03543292972,4.484157973016434e-05,0.006662819518256718,971.1254409084489,971.11582720686,971.13557042935,3.294194532982501e-05,0.019743222489978507,0.005710737769896878,-0.0001591579511764103,-0.4276073161636149,0.6,0.4,0.3034696807099675,Lift down
-0.802368164058911,-0.82568359375,-0.76025390625,0.0002757704257954834,0.016523922825409303,0.37720089147287106,0.34130859375,0.427734375,0.000657519833898014,0.025514892446034082,0.5043147625275248,0.45422363281,0.57287597656,0.0007494456874233537,0.027240143778850163,1.0207893555447527,1.01078247874,1.03981187515,6.436702785371412e-05,0.00798309028811724,971.1244564589387,971.08999119859,971.14085383828,0.00016710065605422456,0.05086263968996718,0.012862588935089764,1.902258996470048e-05,0.651349951830293,0.45,0.55,-1.109358136704468,Lift up
-0.8124414062459999,-0.9853515625,-0.76208496093,0.0028704243717929366,0.05330778674898262,0.414636230465,0.28076171875,0.47290039062,0.0026651586245263516,0.05136639989605159,0.5381933593724,0.4580078125,0.677734375,0.003675493712361109,0.060321959311991,1.0619054745616001,0.97322655622,1.20635637842,0.0031434982906833765,0.05578587014447783,971.2027757656926,971.08762921678,971.51358143506,0.015414747582168853,0.42595221828003105,0.12353380147290524,0.002495841457341989,1.0090129480202625,0.68,0.32,1.471867682047799,Lift up
-0.8952563476538,-0.98974609375,-0.814453125,0.0027779096365168317,0.05244168704524735,0.48138671874739986,0.30444335937,0.58264160156,0.004395524203189661,0.06596642298289157,-0.0677099609356,-0.21691894531,0.48876953125,0.02348463308862043,0.15247880756922985,1.032418222145,0.93918655801,1.12972542631,0.0022887279300333008,0.04760084716402606,971.0159491157905,970.92799547105,971.25103010753,0.005504414707942387,0.3230346364799743,0.0738198520783059,-0.00011706547176535613,2.490853213715302,0.62,0.38,1.4988073503014139,Lift up
-0.8587939453089999,-0.8876953125,-0.837890625,0.00010231381715245473,0.010064327050574726,0.5436181640587999,0.50061035156,0.57470703125,0.0003234963465376381,0.017895848207678273,-0.09283935546399999,-0.12829589843,-0.04919433593,0.0005493279719653513,0.023320263554379005,1.0210686231166,1.01121102484,1.04303856233,5.166500990619444e-05,0.0071518081494914626,970.8291384510185,970.7154289228,970.96440819899,0.004639217550895703,0.24897927618997073,0.06777038715683087,-0.0022978606575142124,-0.9241105904030311,0.5,0.5,0.062493232515784716,Lift up
-0.8590161132772,-0.869140625,-0.849609375,2.1360986168978725e-05,0.004598627654777992,0.5371972656209999,0.51538085937,0.59265136718,0.00031246623604289477,0.01758810887169129,-0.112482910152,-0.12951660156,-0.09436035156,7.737116982079523e-05,0.008751997379032244,1.0195602389321998,1.01071336493,1.0406791544,4.646033959913179e-05,0.006782015644566183,970.6205963785519,970.51320909718,970.75153459889,0.005376055000046361,0.23832550170993727,0.07295405711847626,-0.0024518619906434835,-1.1977382457383607,0.58,0.42,0.3939518080037375,Lift up
-0.8783008305674748,-1.00964355468,-0.78430175781,0.0026583099605543186,0.05129774210227136,0.4808324948671716,0.32092285156,0.58837890625,0.005925956119117603,0.07659045617112,-0.1374450067027273,-0.25903320312,-0.00512695312,0.003923365161679153,0.06231962139287338,1.016431966240505,0.95363343076,1.06848939456,0.000758376872922053,0.027399206201426617,970.3746189459087,970.21075382639,970.51320909718,0.008953842445511066,0.30245527079000567,0.09414562970486791,-0.003217358868768026,-1.3910084120208333,0.49,0.51,-0.14446988939640712,Lift up
-0.9232580566370998,-1.1005859375,-0.84301757812,0.0028517454126177192,0.053134056484438884,0.4225903320274999,0.23168945312,0.53576660156,0.004804609706923165,0.06896784475285518,0.11108520507449998,-0.06652832031,0.3759765625,0.00684506769579274,0.0823202102696222,1.0277455423349002,0.94155507474,1.12471007876,0.0014378378309897583,0.037728761610737516,970.1682078308711,970.01651915623,970.38569293733,0.006219442955621945,0.36917378110001664,0.07846813701156492,-0.002366741090144215,0.3338115466794278,0.45,0.55,0.378266175993891,Lift up
-0.9047778320277999,-0.97509765625,-0.81591796875,0.0010010960788586006,0.031481504380667935,0.34863281249569994,0.27563476562,0.40832519531,0.0007631664324557712,0.027486992708028526,0.2715014648409,0.14001464843,0.39318847656,0.004457094759747274,0.06642683051410628,1.0095531267674,0.93390130918,1.08847841584,0.0008509460830562798,0.029024758779802408,969.9595718365265,969.90507161116,970.01651915623,0.0006821350210147693,0.11144754506995014,0.025986798009847645,-0.0007607901661995718,0.16801857157271538,0.41,0.59,0.0449203720610244,Lift up
-0.8985644531208997,-0.94030761718,-0.85339355468,0.0005974986095630411,0.02432125867358453,0.4236315917924,0.38171386718,0.46362304687,0.0006236054364647924,0.024846918965943134,0.10739746093349999,0.03430175781,0.15124511718,0.0006674594349090639,0.025705735557652758,0.9997359304538999,0.95098980173,1.04494408557,0.0008219836379226512,0.028526545559240512,969.8288498692929,969.67292909451,970.01040332903,0.009930301517529857,0.33747423452007297,0.09915139183266444,-0.003265143106989505,-1.3261831863421263,0.49,0.51,0.03685564209208082,Lift up
-0.8940673828087,-0.92651367187,-0.86645507812,0.00029658970203048793,0.017135454619302725,0.4074255371058999,0.37670898437,0.43505859375,0.0002533473315399999,0.015837103845861462,0.1120446777297,0.0947265625,0.14709472656,0.0002566243828362209,0.015939201329045905,0.9891092662639003,0.95797241021,1.02608809228,0.00037112958502699857,0.01916815821034271,969.6558767542851,969.63296782533,969.67751401625,0.0001830458997937256,0.04454619092007306,0.013461628460026236,-0.00041199270337794326,-1.389537243068942,0.53,0.47,0.1438871476651193,Lift up
-0.9252441406208,-0.94226074218,-0.90563964843,8.635930341392932e-05,0.0092463890454485,0.4098193359330999,0.38195800781,0.42907714843,0.00015616270026211975,0.012433867992684278,0.10194335937100002,0.07983398437,0.12292480468,0.00013311742530886994,0.011479819295432365,1.0172000222175,0.99276994145,1.0307540062,9.803455942609372e-05,0.00985160970764843,969.6246555506825,969.59574440834,969.65353843241,0.00040561173653033786,0.057794024069949046,0.02003885274073929,-0.0006618827842256968,-1.438634819483123,0.57,0.43,0.27029478048241695,Lift up
-1.1516479492149,-1.59582519531,-0.70739746093,0.04762625558817035,0.21714049146183823,0.28522094726299996,-0.06518554687,0.63684082031,0.05132966073232254,0.225424852500782,-0.07345581054420001,-0.21032714843,0.10998535156,0.007354296028483433,0.08532732896439803,1.2110143505930002,0.7093737035,1.65016895588,0.05225363300706757,0.2274447112530799,969.589775063127,969.53253303079,969.69230705869,0.0018067330997727888,0.15977402789997086,0.04229262073666115,0.00041757150911092826,0.4917829287666007,0.72,0.28,1.2474507704606228,Stairs down
-1.0322753906215,-1.55346679687,-0.64953613281,0.06463090879748078,0.25295177348559145,0.2674267578094,-0.04309082031,0.53051757812,0.027091761164670523,0.1637707041965193,-0.11913696288910001,-0.36108398437,0.08813476562,0.013949987097705872,0.11751802936881138,1.0929213614496,0.69418375142,1.56547389262,0.06206262320930163,0.2478749623846842,969.590148858725,969.53253303079,969.68052464162,0.0014316358510996496,0.14799161082999035,0.03764730392190991,0.0006204425454293226,-0.44991880288981356,0.47,0.53,0.10659203716168832,Stairs down
-0.4171496582027001,-1.744140625,0.69067382812,0.7190693984959123,0.8437290468574336,0.08527709960929998,-0.65051269531,1.16796875,0.26787682587684825,0.5149738416833225,-0.3235925292955,-0.74084472656,0.17053222656,0.07780708768487253,0.2775410182441936,1.0865452847063,0.21685793592,2.09106877867,0.16113461544787575,0.39940364206326034,969.6517033915842,969.58998648265,969.77688002085,0.0027062497401985244,0.18689353819991084,0.0517608659394,0.00043088982045821444,-0.8949096086899235,0.63,0.37,0.625483366690913,Stairs down
-0.0931811523436,-0.7021484375,0.71069335937,0.2336681076398746,0.4809692573995514,0.575642089841,-0.40734863281,1.13659667968,0.15057472514798845,0.38609451938159983,-0.5328735351525,-1.09729003906,-0.13732910156,0.07452535614139043,0.27162492996773424,1.0122163913474,0.65675248481,1.40468452525,0.05414063772156078,0.23151507800647708,969.7037742258425,969.55934205914,969.97694637742,0.007416287357198163,0.4176043182799276,0.08568619774284643,0.0005580350249086879,-0.33938360233419385,0.36,0.64,0.01464740086111408,Stairs down
-0.3861797068341583,-0.61303710937,-0.17993164062,0.015613577743720082,0.12433417818552302,0.9655169496399008,0.66015625,1.52490234375,0.04595843452654282,0.2133152608730316,0.10221877900524755,-0.21301269531,0.45178222656,0.022064375534586685,0.14780364126393472,1.0575121542997032,0.70210264902,1.64463476457,0.0568456007927196,0.2372399061332191,969.7560761094362,969.65452982528,969.97694637742,0.0071666294105942165,0.3224165521399982,0.08423581592028803,0.0004738638722821077,0.7867197895914622,0.48,0.52,0.9131935518590633,Stairs down
-0.45127441405979984,-0.6533203125,-0.2890625,0.013307215204087243,0.11477866984787012,0.8994750976515999,0.67163085937,1.17150878906,0.024475905178934113,0.1556635671155739,0.19142822265220003,0.00109863281,0.43249511718,0.009560483086097938,0.09728760586650777,1.0295059527094,0.76803027126,1.34919869982,0.036703508364054706,0.19062128233860498,969.8570513549951,969.77495368125,969.93917020209,0.0025239344906375642,0.16421652084000016,0.049986949754222736,0.0012837096188514417,-1.0407894049926047,0.46,0.54,0.14044370884823953,Stairs down
-0.5047485351527999,-0.80895996093,-0.21606445312,0.025736679482769018,0.15962240659738636,0.8516992187462,0.63220214843,1.24011230468,0.026250035257043152,0.16120649771170117,0.30656249999699997,0.07104492187,0.56909179687,0.02021754074565904,0.1414756704815441,1.0488688843696,0.71761527881,1.4555772271,0.045959076453673045,0.21330608451034938,969.9326207095603,969.87583692175,970.03212277067,0.0018201858985040298,0.15628584891999253,0.042449782561504244,0.0007116994843987605,-0.49742100339631223,0.58,0.42,0.6151504312488854,Stairs down
-0.453979492184,-0.79602050781,-0.25073242187,0.019434892770119606,0.13871028744263494,0.8278613281213998,0.65844726562,1.10485839843,0.01689058985358987,0.1293123503577828,0.31379882812240006,0.1416015625,0.51232910156,0.011585523841257253,0.10709653870618173,1.0051829842699995,0.74191849501,1.29209904073,0.02723285554533651,0.16419661077465375,969.9776108598244,969.92004674602,970.08352586824,0.0019670124080869425,0.1634791222199965,0.044128701363240604,0.000730243189120286,0.19733955881216358,0.46,0.54,0.7851771068946701,Stairs down
-0.5298999023404,-0.82958984375,-0.29895019531,0.01620998491575257,0.12668024734186087,0.8462622070274,0.6796875,1.09997558593,0.015878265006175372,0.12537735982271128,0.3220336914023999,0.11877441406,0.49914550781,0.012956040224574679,0.11325404991579299,1.0619705068262002,0.82903863782,1.34693525073,0.017648300827785145,0.13218100400400692,970.0342914974776,969.97584602379,970.09222107048,0.001147412424734599,0.11637504668999554,0.03370368378215137,0.0003599207683814423,-1.1482520546626207,0.46,0.54,-0.036270178040175564,Stairs down
-0.5937353515588,-1.36950683593,-0.17810058593,0.07045999177762176,0.2641124606296445,0.7363110351526001,0.33666992187,1.01025390625,0.027858539067394383,0.1660721339560627,0.21897216796599994,-0.12548828125,0.45751953125,0.033496635543392356,0.18210345737508235,1.0229553360694001,0.74373459439,1.43726521627,0.026953347127657852,0.16335180946772912,970.0372221298836,969.98499158852,970.10582064331,0.0013149453610297789,0.12082905479007877,0.036080408914249865,8.077532764126724e-05,-0.5971556353909309,0.6,0.4,0.5180892013280181,Stairs down
-1.0691577148404,-1.36791992187,-0.92004394531,0.014102686059711076,0.11815946512706448,0.3678930664031999,0.10229492187,0.69421386718,0.037598527013267886,0.19293144311681082,-0.0911816406226,-0.24267578125,0.12841796875,0.009474830771578381,0.09685082582953332,1.1516369140526,0.94727769037,1.4359547561,0.021266990598862275,0.14510107061243088,970.0277244806136,969.96166436781,970.10241314392,0.0008932211348447464,0.14074877610994463,0.029736995872083293,0.0005901689491868716,0.16436138562095604,0.4,0.6,-0.5355871944858731,Stairs down
-1.0297037760377779,-1.20751953125,-0.89074707031,0.007003972420841128,0.0832659908045957,0.3597486091337373,0.07250976562,0.63415527343,0.033439199479847415,0.18193798335732916,-0.20174646858818185,-0.28393554687,-0.10266113281,0.0024956134060509336,0.04970317082267687,1.1240647355414142,0.93102081442,1.32288164808,0.011529567402207832,0.10683214462612765,970.048899015506,970.03335169057,970.06938713008,0.00013468963181623568,0.036035439509987555,0.011546823393676658,0.00013154376103808856,-1.252828471526504,0.48,0.52,0.21654632448458652,Stairs down
-1.0060058593702,-1.40661621093,-0.46215820312,0.036223053329934626,0.18936954030845424,0.4041918945274,0.11669921875,0.91845703125,0.04017454928244113,0.1994312006422684,-0.1040380859356,-0.32885742187,0.37451171875,0.026643942725942983,0.16241152452545835,1.1244172699074,0.82341367263,1.49501986096,0.024181548520205005,0.15472470079144748,970.063455125656,970.03236926027,970.13983297831,0.0008243298811784484,0.10746371803998045,0.02856722916851867,0.0006264851593341908,-0.031923695382486184,0.56,0.44,0.9059411961144321,Stairs down
-0.3414501953079999,-0.75708007812,-0.16345214843,0.02129882354943512,0.14520962541767254,0.9204614257764,0.68103027343,1.35632324218,0.03212354766608651,0.17833202794065245,0.0215527343744,-0.21594238281,0.37451171875,0.02230371198184213,0.14859567578507696,0.9996041269988001,0.71360686391,1.4113492859,0.04046707498278368,0.20015594978155368,970.0812303672387,970.03191994231,970.18734093849,0.0018511417757855453,0.15542099618005523,0.042809232158819314,-7.9692774561558e-05,0.592737975693475,0.64,0.36,1.088100968569633,Stairs down
-0.5731616210902,-0.84741210937,-0.35131835937,0.01952915577576963,0.13904626646556148,0.8419873046848,0.7001953125,1.01794433593,0.01067076196571664,0.10278158563701706,-0.33925292968319987,-0.57385253906,0.0380859375,0.016987979628740674,0.12968461679186652,1.0849290134356002,0.83296635514,1.38121879464,0.022418656203062524,0.1489780844320127,970.1760038691062,970.04472824996,970.34776989945,0.005839037172731777,0.3030416494899555,0.07603056491309569,0.00022237119573446972,0.30728753327388914,0.6,0.4,0.28868606615583164,Stairs down
-0.49490326229425735,-0.70935058593,-0.2578125,0.01564843160074136,0.12447287509492735,0.6673801535383167,0.47607421875,1.06176757812,0.02012292963137342,0.14115131138012893,-0.5424309154510889,-0.79663085937,-0.38500976562,0.011524154895118311,0.10681785595864714,0.9981038397831685,0.74797633463,1.37062876171,0.03552450285934758,0.18754406177819902,970.2137101628932,970.07193685499,970.40262567883,0.009740594017244997,0.3306888238399779,0.09820464598134744,2.51401827999366e-05,-1.169721048072945,0.6,0.4,0.25067301855681995,Stairs down
-0.5069921874951998,-0.80334472656,-0.24426269531,0.02226886667380796,0.1484795541718451,0.6619042968705999,0.52087402343,0.86108398437,0.011980494128462247,0.10890679128124942,-0.5814868164016,-0.78625488281,-0.4306640625,0.008591873603690228,0.09222773372285219,1.0232114199884002,0.79450649871,1.3211923241,0.029026773857345256,0.16951845362311388,970.2527537196764,970.1160037038,970.42504631153,0.007185855499417485,0.3090426077300208,0.08434451342217412,0.0009701075112349905,-0.7400322610650192,0.66,0.34,0.4702063285747882,Stairs down
-0.5177514648393998,-0.89721679687,-0.29699707031,0.03198382655190894,0.17794377844248968,0.6659155273403999,0.43579101562,0.93139648437,0.019474654299968423,0.13885210749919763,-0.5506567382776,-0.82641601562,-0.33508300781,0.017167426414055026,0.13036775732486341,1.0152436210978,0.70659722131,1.40113687782,0.05247772760100404,0.2279318984367787,970.356172072048,970.2192634019,970.59646573061,0.0101127860679736,0.377202328710041,0.10005827405714063,0.0009261603095056654,-0.13184134945131243,0.62,0.38,0.808297563051573,Stairs down
-0.5822460937467998,-0.86877441406,-0.35864257812,0.026675031678832478,0.16250625022455029,0.7347131347621999,0.46044921875,1.03564453125,0.030325641191137145,0.17326968799887005,-0.44141479491749985,-0.77355957031,-0.26452636718,0.016889019221937886,0.12930633793329122,1.0434683343617,0.72134980339,1.44940757035,0.057016309692459036,0.23758397798575231,970.4525380108845,970.33231746139,970.61134028931,0.006484629290618433,0.2790228279200164,0.08012354833450805,0.0011929035891561537,-0.8879273087160646,0.54,0.46,0.4979567259962429,Stairs down
-0.9646594238241,-0.99963378906,-0.94494628906,0.00011836594253363572,0.010825076586717499,0.19034423827790004,0.12390136718,0.25891113281,0.0012185006129455174,0.03473205445717345,-0.22773803710490004,-0.25024414062,-0.19946289062,0.0001852535403653456,0.013542562717657693,1.0099907003446997,0.9891910135,1.04016323154,8.992997540780567e-05,0.009435606798384915,970.7020366132197,970.68290379524,970.72942764114,0.0002162966704092309,0.046523845899969274,0.014633308023312383,5.987555623578905e-05,-1.0717643713527871,0.59,0.41,0.45204938194357897,Lift up
-1.0095397949178,-1.02856445312,-0.96923828125,0.00014804420295353634,0.012106352089874182,0.19822509765250004,0.18103027343,0.21411132812,6.81964496132868e-05,0.008216719851446435,-0.22094726562119998,-0.23132324218,-0.20874023437,3.153025500974096e-05,0.005587034317027555,1.0523088306569,1.01147575847,1.07138865728,0.00017464562583484217,0.013149112881730606,970.6979772663774,970.65310097881,970.71631575041,0.0002824859957992873,0.06321477159997357,0.016723071961852416,-0.0004470754824337645,-0.2133315919623917,0.4,0.6,-0.8881663619667721,Lift up
-0.9713122558553999,-1.00012207031,-0.94897460937,0.00017168831797572455,0.013037309338815556,0.20424804687130005,0.18029785156,0.22790527343,0.00010796929850711458,0.010338742937226142,-0.2256506347619,-0.24731445312,-0.21423339843,8.665957082841257e-05,0.009262449736442755,1.0179997689834999,1.00076337079,1.04591556966,0.0001233296544436896,0.011049722073394096,970.5654451252049,970.47242524394,970.65310097881,0.0027369469348365134,0.1806757348699648,0.052053601849325934,-0.0017773042325210304,-1.3356115620178448,0.51,0.49,0.11192163238081959,Lift up
-0.9617553710896999,-0.96728515625,-0.95092773437,9.579339417471223e-06,0.003079536657241883,0.23119018554249993,0.2158203125,0.24133300781,4.3476198354825886e-05,0.006560597257207429,-0.24160644530790001,-0.25134277343,-0.23388671875,2.0341174760484235e-05,0.004487511895569681,1.0182593243349998,1.00464992215,1.02495690028,1.674876457179739e-05,0.0040720114103572225,970.3531541363767,970.25186339817,970.47242524394,0.0037833084567899843,0.22056184577002114,0.061200288988060216,-0.0021027804885171693,-0.9187351992983612,0.51,0.49,0.24307160507024586,Lift up
-0.9596069335899997,-0.96508789062,-0.95495605468,8.612419620795976e-06,0.002919982093196466,0.24018676757430005,0.23132324218,0.24658203125,1.3959195582985649e-05,0.003717472747331955,-0.23816040038770006,-0.2529296875,-0.22607421875,3.267643880119583e-05,0.005687677418172015,1.0174977267822,1.01129914938,1.02355985419,8.685044483778166e-06,0.002932267729751222,970.1478281565932,970.04098883239,970.25186339817,0.0038751928727042678,0.2108745657800455,0.06193900987243197,-0.002136489308952623,-1.1013896343105292,0.47,0.53,-0.10440113047951387,Lift up
-0.9608630371051998,-0.96765136718,-0.95520019531,1.2868249952263139e-05,0.0035692530665029213,0.24231933593310004,0.23132324218,0.24938964843,2.5349939714331303e-05,0.005009634748880201,-0.22876464843420002,-0.24047851562,-0.21911621093,4.4170630104569133e-05,0.006612784875037403,1.0170395701002,1.00907825117,1.02728881979,2.1998785337529567e-05,0.004666775919642411,969.9353465464933,969.833309302,970.04098883239,0.003476542791455627,0.20767953039000986,0.05866666313624008,-0.002024600680951519,-1.1188841702719636,0.47,0.53,-0.01813849912575321,Lift up
-0.9583056640589999,-0.96533203125,-0.95129394531,9.252663818566525e-06,0.0030265718528362847,0.24678222655840001,0.23388671875,0.25646972656,3.597456999894551e-05,0.0059678157058471615,-0.23317016601149998,-0.24609375,-0.21643066406,5.524708014220774e-05,0.007395580392422603,1.0167139696383,1.01034435606,1.02374316157,1.183125610310885e-05,0.0034224177918655346,969.7307347470498,969.6297272708,969.833309302,0.0035639464641456413,0.20358203119997142,0.05939955386620496,-0.002050344121866678,-1.1968327347468213,0.55,0.45,0.0638436391541384,Lift up
-0.9588415527307,-0.96350097656,-0.95202636718,6.384336286164162e-06,0.002514059053264764,0.2394250488231,0.22448730468,0.25317382812,7.832762418884429e-05,0.008805926864728995,-0.23739624023010003,-0.24487304687,-0.22827148437,2.750253888068998e-05,0.0052179989930895045,1.0164459971881,1.01115423087,1.02159439719,7.150787301863109e-06,0.002660691532072908,969.5270867056581,969.42320267292,969.6297272708,0.0033648897484375596,0.20652459788004762,0.05771690264517998,-0.0019918544604482103,-1.230279419908953,0.47,0.53,0.024684334405185172,Lift up
-0.9624999999971001,-0.9677734375,-0.95288085937,1.163735534063043e-05,0.003394257177531503,0.2352453613246,0.224609375,0.2412109375,2.3259254121477254e-05,0.004798610380126988,-0.23684448241730002,-0.24792480468,-0.21923828125,9.164631216256783e-05,0.009525221731851819,1.0188003921544002,1.01138981512,1.02510099407,1.3108392497678756e-05,0.0036024031663185576,969.3169640053565,969.22235705246,969.42320267292,0.003645396872078433,0.20084562045997245,0.06007447796991372,-0.0020707100942485264,-1.277477451701623,0.55,0.45,0.13819717642097484,Lift up
-0.9585778808539999,-0.96325683593,-0.94567871093,1.5180837932085289e-05,0.003876729233872858,0.24425781249660003,0.23876953125,0.25219726562,1.1609636171372909e-05,0.0033902123546555576,-0.2474658203078,-0.26086425781,-0.2392578125,3.738629696393328e-05,0.006083784512480201,1.0197194783575,1.01166321443,1.024496717,8.571025710390903e-06,0.0029129564798134203,969.1118644953481,969.0112588149,969.22235705246,0.003799228713076879,0.21109823756000878,0.06132891998026796,-0.002116361267487883,-1.1254751100051636,0.47,0.53,-0.011201957040947843,Lift up
-0.9198400878866999,-0.95959472656,-0.90234375,0.0002468511477224188,0.015632742441593368,0.23404541015140004,0.21960449218,0.24487304687,3.703058970546345e-05,0.006054773638081676,-0.2343298339808,-0.24609375,-0.22106933593,3.831665173536492e-05,0.006159016578806333,0.9776985390478,0.96049408645,1.01758874166,0.000220258121856707,0.014766703783788037,968.917035546547,968.86012971747,969.0112588149,0.002131718862885894,0.15112909742992997,0.04593910833110537,-0.0015648158302184064,-1.216811909786139,0.51,0.49,0.35674203982532254,Lift up
-0.9521765136684001,-0.97021484375,-0.92724609375,0.00013512880362283628,0.01156622304759025,0.2351403808557,0.20007324218,0.251953125,0.0003115678842315894,0.01756280744611389,-0.2443420410123,-0.26013183593,-0.22839355468,8.486358053078591e-05,0.00916596665526763,1.0109780016255001,0.99169107468,1.03245042522,8.471696147595196e-05,0.009158045198686914,968.8402614738529,968.82357319099,968.86012971747,0.00010436590903737625,0.03655652648001251,0.010164755282199492,-0.00020754468081329356,-1.4091809420889945,0.4,0.6,-0.3041723851530198,Lift up
-0.9573449706998,-0.96630859375,-0.95092773437,1.3685062378624412e-05,0.0036807895559021254,0.24485107421509994,0.21765136718,0.26501464843,0.00013559104818778125,0.011585988853175348,-0.23766357421469997,-0.24597167968,-0.22961425781,1.911196443138526e-05,0.004349809741479667,1.0164136822478003,1.00747516072,1.02382231168,1.5501727927438036e-05,0.003917487798087399,968.8278969663888,968.81716881398,968.8481284044,4.942454772155964e-05,0.03095959042002505,0.00699501981729459,-0.00017982069665218299,-0.05833495232212771,0.43,0.57,0.4409746162008938,Lift up
-0.9553735351519999,-0.96020507812,-0.95141601562,5.778393361106798e-06,0.002391779552445361,0.2491394042939001,0.22497558593,0.25830078125,5.839008725457655e-05,0.0076030379705766815,-0.23372314452760004,-0.2421875,-0.2216796875,2.6005753361692243e-05,0.00507402166216063,1.0146520047764,1.00919293335,1.01787743587,6.186288299075485e-06,0.002474757647949538,968.8149531098642,968.80972809398,968.8236701876,1.1027731777567817e-05,0.013942093620016749,0.0033041571481683706,-4.509458330240768e-05,0.23410357490770162,0.51,0.49,0.8512078215318387,Lift up
-0.9548193359337,-0.96545410156,-0.93762207031,4.067302954399808e-05,0.00634557320094553,0.2535412597615,0.24353027343,0.26208496093,2.496787243589167e-05,0.004971739505598895,-0.2335595703091,-0.24108886718,-0.2216796875,2.6792251697723827e-05,0.005150177587301878,1.0151602332372,0.99506917131,1.02698979245,5.4966902880026184e-05,0.007376803769331669,968.807063929265,968.79618023246,968.82500568044,3.831182428466568e-05,0.02882544798001163,0.006158628584499883,-0.00011403205898181288,0.2940112931858776,0.44,0.56,0.4535491970385909,Lift up
-0.9540161132787,-0.96118164062,-0.94873046875,7.371559282880687e-06,0.0027014521446903105,0.2544934082006,0.24719238281,0.26416015625,3.2354393096126575e-05,0.005659580299383101,-0.24416992187110004,-0.25756835937,-0.23461914062,3.01127241201532e-05,0.005459999714189706,1.0171485879788,1.01089323822,1.02298602126,1.0586080868204416e-05,0.0032373167993760468,968.8108981150529,968.79953620692,968.82500568044,3.382173248591942e-05,0.025469473519933672,0.005786494202974736,-7.648512469684684e-05,0.3032799836723634,0.44,0.56,0.5142050288097667,Lift up
-0.9459912109341001,-0.9609375,-0.92651367187,6.803548697276822e-05,0.008207017247638787,0.24540771484030002,0.20227050781,0.28112792968,0.000328786078108181,0.018041569148139504,-0.26491699218420006,-0.2978515625,-0.23779296875,0.00016778165646093757,0.012888127866231317,1.0128070409560004,0.98556426279,1.02740087459,8.705595605315113e-05,0.009283609023037303,968.8352896900101,968.82405622107,968.84403401178,3.330911265350789e-05,0.019977790709958754,0.00574247520908648,3.586617191879047e-05,-1.17985373603559,0.6,0.4,0.17412908376308403,Lift down
-0.9341479492142,-0.97692871093,-0.90905761718,0.0005582491014979616,0.02350886238172707,0.23056884765179994,0.16430664062,0.30053710937,0.001019107687349147,0.031763447710783155,-0.24293090820030003,-0.26330566406,-0.22338867187,0.00010626818647594133,0.010256973462536692,0.9928562966513002,0.95866004758,1.0474103299,0.0007201753691257085,0.026701565786194103,968.8387669838891,968.82468892858,968.86585689778,0.00010266230423152374,0.041167969199932486,0.010081452335314019,3.32840924434688e-05,0.8283100442809843,0.53,0.47,1.033475028438623,Lift down
-0.9411267089795998,-0.96691894531,-0.90905761718,0.0003799715713582327,0.01939515031250468,0.2300317382774,0.2099609375,0.24597167968,8.720736910851793e-05,0.009291678826640143,-0.2322802734334,-0.24780273437,-0.22229003906,5.823184746996798e-05,0.0075927286923258555,0.9963377006723,0.96270658889,1.02242192264,0.00042378919040408,0.020482951410869463,968.930868533532,968.86371319856,969.01807559481,0.002310280657038553,0.1543623962500078,0.0478244482505357,0.0016426639371061806,-1.2540568487186088,0.53,0.47,0.22951794511986184,Lift down
-0.9518664550739,-0.96362304687,-0.94055175781,3.983868944904665e-05,0.006280151475446765,0.2669812011686,0.23486328125,0.28869628906,0.00019562783113079822,0.01391659271587303,-0.2353771972622,-0.24389648437,-0.22741699218,1.731403397511273e-05,0.004140156233206858,1.0164234300896,1.00265734725,1.02732245709,3.179254712741259e-05,0.005610224742034713,969.128274305637,969.01807559481,969.22308590947,0.003669048600307375,0.20501031465994402,0.060269047730193155,0.0020716955252403552,-1.1380806138375523,0.49,0.51,-0.2365241430165975,Lift down
-0.9515869140588,-0.96240234375,-0.94421386718,2.306398720473287e-05,0.004778425193794033,0.25968261718360003,0.23962402343,0.29541015625,0.00021703402204166863,0.014658229150250448,-0.23194335937080005,-0.24194335937,-0.21618652343,4.195314465091244e-05,0.006444657725931092,1.0134129723135998,1.00489889415,1.02357651589,2.4057395976145875e-05,0.004880248151107115,969.342859498658,969.22308590947,969.43962644455,0.004700755290042464,0.2165405350799574,0.06821838269221896,0.0023428861357081936,-1.2539260915451937,0.53,0.47,-0.08660790727272716,Lift down
-0.9741796874959999,-1.00146484375,-0.955078125,0.00027362279220466873,0.016458631907987433,0.26224121093360003,0.24377441406,0.29077148437,0.0001750636823369417,0.013164841264275551,-0.24022949218439998,-0.26123046875,-0.22253417968,0.00011873182623842823,0.010841794499806937,1.037126553378,1.01363839478,1.07279047254,0.00044139550809304536,0.020904103736159436,969.5505342908106,969.43634204424,969.65572397476,0.00379924129201906,0.21938193052005772,0.061329021507756584,0.002116070286031184,-1.2656596971316443,0.45,0.55,0.02319487193357482,Lift down
-0.9699853515584,-0.99731445312,-0.90588378906,0.00046473238202421975,0.02144959342747497,0.26205078124559994,0.24194335937,0.28198242187,0.00017505886579510143,0.013164660160336477,-0.23828613280879998,-0.27307128906,-0.22521972656,0.0001374464805817817,0.011664991031971002,1.0327546191755996,0.97369037178,1.06426261806,0.0005149870733221036,0.02257957489832088,969.6990587251217,969.65572397476,969.72281605659,0.0002703200995043843,0.06709208182996917,0.016359000535159245,0.0005380036482756022,-0.5958939006379755,0.41,0.59,-0.5906611333417194,Lift down
-0.9594946289031,-0.98388671875,-0.92346191406,0.00028084455716385155,0.016674414880055406,0.28931640624610006,0.16088867187,0.38208007812,0.005249722341144321,0.0720917825950564,-0.1494433593709,-0.25231933593,-0.07751464843,0.002629152187134957,0.05101823855508544,1.0170428193426,0.97546378316,1.05161987221,0.0003729989835759592,0.01921637306413985,969.7283781100436,969.69728577884,969.78439065489,0.0005309897827441463,0.08710487605003436,0.022927709979775668,0.0005929028260287674,-0.14183638661128795,0.45,0.55,0.6162679405085469,Lift down
-0.9802941894499,-0.99182128906,-0.97082519531,3.5229131115398396e-05,0.0059056616737029905,0.1859985351534,0.14672851562,0.22497558593,0.0004299979919953521,0.02063245046220634,-0.17045898437180007,-0.22241210937,-0.14916992187,0.00025834459247131477,0.015992534087711105,1.012573508568,1.00180139563,1.0277402062,4.004448626495943e-05,0.006296351435737195,969.747634439161,969.73284343378,969.75681596702,5.883690514894915e-05,0.023972533239998484,0.007632072857190218,6.115893475550688e-06,-1.2000901795033996,0.41,0.59,-0.43042630502308005,Lift down
-0.9778234863241999,-0.98962402343,-0.97155761718,2.1049788202093472e-05,0.004565007154438264,0.18569702147989997,0.16650390625,0.20556640625,0.0001449674834302562,0.011979891844084137,-0.17720703124690004,-0.20092773437,-0.138671875,0.00030549152934468166,0.017390704817552245,1.0111751352046998,1.00207849651,1.01941262939,1.6288661138247827e-05,0.004015691039767047,969.7653978753981,969.75567475103,969.78051702206,3.323247062408602e-05,0.024842271030024676,0.0057358648796711695,8.251872231663863e-05,0.025836948923836367,0.45,0.55,0.3200040197632036,Lift down
-0.9762182617155,-1.00146484375,-0.96508789062,7.614595121136229e-05,0.00868242429850377,0.200555419918,0.18078613281,0.21276855468,4.3244787845835826e-05,0.006543113935075368,-0.18703979491830006,-0.19970703125,-0.17407226562,4.0525395162863785e-05,0.006334046195855785,1.014066122357,1.00280658445,1.03966869511,7.152989244746273e-05,0.008415140731026909,969.7715409949598,969.76528236008,969.78108708861,9.818826888497381e-06,0.01580472852992898,0.003117793870609859,1.9608812823845553e-05,1.8435569183639453,0.57,0.43,0.868195290674627,Lift down
-0.9665234374964001,-0.998046875,-0.93627929687,0.0002603642627769728,0.016054925105686513,0.22057128905759998,0.10595703125,0.31140136718,0.003544558081871623,0.05923776245818968,-0.18272460937120005,-0.25134277343,-0.11157226562,0.0013294849974057334,0.03627933499158544,1.0105072599376,0.98281375508,1.03765134425,0.00016734599900671048,0.012871384502711563,969.8126328066817,969.76855701387,969.86488181995,0.0007010379297119241,0.0963248060800197,0.026344402639171854,-0.0002649256431795108,-0.3681441044919169,0.44,0.56,0.30955196839230037,Lift up
-1.00924316406,-1.05236816406,-0.97412109375,0.0005873544288395183,0.02411391474960304,0.17187499999680003,0.14514160156,0.18774414062,0.00015520206606931127,0.012395565554205994,-0.19925292968320005,-0.21203613281,-0.17895507812,5.416378830721866e-05,0.007322714689522355,1.0431188628491999,1.00971861532,1.08412603191,0.0005114150083866212,0.02250113015612227,969.8101043883197,969.78534436105,969.82539961036,7.537265189781845e-05,0.04005524931005766,0.00863822466591604,-0.00011172284442486598,1.347360733044039,0.24,0.76,-0.862282431794374,Lift up
-0.998930664058,-1.03771972656,-0.98046875,0.0003342716139711272,0.018191451229393876,0.178920898434,0.15698242187,0.19409179687,0.0001107291982523773,0.010470048054801541,-0.18891601562200003,-0.20068359375,-0.173828125,4.7203266258557264e-05,0.006836024692463573,1.0323372065619996,1.01334478727,1.0717457343,0.00033494387604814075,0.01820973468471354,969.7003157666093,969.60272381436,969.78534436105,0.0033453936804168213,0.18262054668991823,0.057549454763817294,-0.00197908971364909,-1.2299978944568142,0.48,0.52,-0.1601977763760601,Lift up
-0.9505468749959999,-0.98522949218,-0.92810058593,0.0003482926012378718,0.018569051543508977,0.17350097655879995,0.16052246093,0.19055175781,6.205231253871332e-05,0.007837843415973949,-0.1738720703084,-0.18627929687,-0.16674804687,2.2650824651736117e-05,0.004735432018857282,0.9818234752371998,0.96285350642,1.01435838359,0.00032805709024440617,0.018021557073182166,969.5069486584727,969.42918609937,969.60272381436,0.002701977615063779,0.17353771499006143,0.05171999457572614,-0.0017752893371782467,-1.1640225835761433,0.52,0.48,0.25330363912082426,Lift up
-0.9702148437451998,-0.99291992187,-0.93725585937,0.00033128863632925936,0.018110100771833566,0.17949707030919998,0.1513671875,0.2001953125,0.00020149269487944682,0.014123659863174712,-0.16481445312079998,-0.17993164062,-0.13842773437,0.0001597171841420485,0.012574578016801518,1.0005790297408002,0.97012407773,1.0177323779,0.00022931717815433798,0.015067315831719816,969.4046160833927,969.39132392477,969.42918609937,0.00011696309557525788,0.03786217460003627,0.010760737178256204,-0.00030406237418143753,-0.6398401494048098,0.6,0.4,0.7703910618109971,Lift up
-0.9850732421823999,-1.01110839843,-0.95239257812,0.0001660110011061474,0.012819941150219291,0.18612304687080006,0.15002441406,0.23059082031,0.0004675358473830651,0.02151419273199054,-0.1744726562472,-0.20031738281,-0.14416503906,0.0003022226660842763,0.01729741135035626,1.0179386523748002,0.99595348642,1.0483146206,0.0001809097376823755,0.013382848736556494,969.3982546765997,969.38453171436,969.41583279608,6.024251419428362e-05,0.031301081720016555,0.007722699596147761,-0.00011360674972247992,0.14690889113481553,0.36,0.64,0.36470887470865093,Lift up
-0.9754443359331999,-0.98718261718,-0.96081542968,3.257746647742364e-05,0.005679057299644846,0.17919921874680006,0.1298828125,0.21752929687,0.00043813869207046054,0.02082684097864474,-0.18463867187039995,-0.20776367187,-0.16430664062,0.000167279628810536,0.012868831824312206,1.0091033801504004,0.998998692,1.02171309264,3.781379255345886e-05,0.006118468323683982,969.3869222482591,969.36665188179,969.40246335231,8.635144392879779e-05,0.03581147052000233,0.009245968282960407,-0.0002144387297263794,0.4914820318583768,0.4,0.6,-0.8393059604117549,Lift up
-0.9758447265592,-1.01281738281,-0.94641113281,0.00028652171892896153,0.016842105026975456,0.16735351562080003,0.095703125,0.23669433593,0.0015097344523265941,0.03866053682766612,-0.19848144530839998,-0.22058105468,-0.17028808593,0.00019061623195121033,0.013737178372274936,1.0107202659808001,0.99806898656,1.03588624801,8.743564574846674e-05,0.009303831968118409,969.3743422829249,969.35528933307,969.42582977832,0.00036521762443775713,0.07054044525000336,0.01901487439331061,0.00011103648404212379,1.9157742297891875,0.8,0.2,1.7411544975219715,Lift up
-0.9691455078092,-0.97985839843,-0.94873046875,4.807178419065953e-05,0.006898627859853939,0.20259765624479997,0.17846679687,0.24633789062,0.0004018614027005247,0.019945996808219926,-0.20178710937039998,-0.21545410156,-0.19262695312,4.207423239531153e-05,0.006453951508289972,1.0106794059539999,1.00186363549,1.02338710689,2.1301873705193655e-05,0.004592260333228259,969.3750840054583,969.37035071628,969.38784211005,2.274636259621802e-05,0.017491393770001196,0.004745408198485758,-1.3470860989362837e-05,1.5206893744899785,0.72,0.28,1.5704573769519121,Lift up
-0.0512060546876,-0.75927734375,0.6953125,0.2703102828490007,0.5173076260993169,0.3192236328112,-0.61169433593,1.16052246093,0.33791579732551646,0.5783914239961216,-0.32496093749839994,-0.73986816406,0.31335449218,0.10622487756732946,0.32428787950161836,0.9272236153807998,0.40020786859,1.4730360012,0.05827092315898817,0.24018370870522898,969.3839641352431,969.25384486363,969.52172743384,0.005902345462917189,0.26788257021007666,0.07644162484071107,4.83462248459346e-05,-0.9857094225270173,0.48,0.52,-0.11003952527361335,Stairs down
-0.5043457031216,-0.80041503906,-0.14270019531,0.031040924968425195,0.17530121425346984,0.8231542968704,0.65258789062,1.08361816406,0.015053836408331403,0.12207906472548062,0.1481542968744,-0.19763183593,0.4892578125,0.03659982960527039,0.19035186184857159,1.0034051271731999,0.69652680649,1.33900218369,0.029235430536819318,0.17012664762303148,969.3722820421253,969.28535760543,969.50269641771,0.0035415935653832762,0.21733881227999063,0.05921298531343816,0.0008967508091063126,-0.7331589660989848,0.56,0.44,0.35296475669524197,Stairs down
-0.5746435546831998,-0.78430175781,-0.39880371093,0.009100625153803308,0.09491901233296349,0.7670605468715999,0.62536621093,1.08288574218,0.011083897051006666,0.1047523655126537,0.23890624999600005,0.03186035156,0.50317382812,0.022203625236182332,0.14826189322890931,0.9998176908876002,0.79207960556,1.3106844186,0.018183984596430742,0.13417207142496695,969.4442942724341,969.37523670573,969.64241076927,0.003933760082848879,0.26717406353998285,0.0624053081237517,-0.00015071806718073018,2.07582236132167,0.68,0.32,1.5222554833558037,Stairs down
-0.6035253906215999,-0.83483886718,-0.36389160156,0.02233626616103537,0.14870408030523244,0.8359277343711997,0.57873535156,1.14758300781,0.031703600883323066,0.17716253801097406,0.09095214843520003,-0.06457519531,0.25183105468,0.008598111999970034,0.09226121005043417,1.0397433790852,0.70307025696,1.41531920045,0.05276330548087864,0.22855124682676717,969.4760545788173,969.41567614012,969.53678601532,0.0009995549057789717,0.12110987519997707,0.0314572623844031,0.0008899577030264574,-0.29593099548242474,0.48,0.52,0.5344502705285158,Stairs down
-0.5914306640596,-0.86401367187,-0.34814453125,0.020254696258329836,0.14160561180880699,0.8321240234335998,0.59411621093,1.13891601562,0.03066636128886288,0.17424034457029247,0.17779296874520006,0.00231933593,0.44323730468,0.01559722919651069,0.12426285408176324,1.0425456381751999,0.7420694458,1.43601587639,0.05331581484891326,0.22974476425029608,969.5620503928533,969.51314944597,969.61135943829,0.0007346846314745108,0.09820999231999394,0.026969200677064303,0.0008373856769771806,-0.6894604434107152,0.52,0.48,0.28938189432140377,Stairs down
-0.5707128906199999,-0.80834960937,-0.38269042968,0.01805941085645935,0.1337116926371615,0.83260253906,0.59594726562,1.21228027343,0.03291314144329876,0.18051041529193204,0.0810351562484,-0.05236816406,0.25207519531,0.006650871315015225,0.08114408543982163,1.0171160785892002,0.76758559905,1.43722047368,0.048514101182496085,0.21915510528087437,969.6563671880845,969.61135943829,969.70759918035,0.0006293567759459186,0.09623974205999275,0.02496123410784129,0.0007985345066296027,-0.8294724894817378,0.4,0.6,-0.11920777164964502,Stairs down
-0.6095996093712,-0.88671875,-0.38500976562,0.01967560965609688,0.1395666634964665,0.8210058593712,0.63110351562,1.09558105468,0.01494923712024584,0.12165420152647166,0.10666992187359998,-0.10437011718,0.29333496093,0.013893826657329463,0.11728123631150965,1.037718424754,0.75205174579,1.37960074444,0.028499732045127953,0.16797242251237754,969.7293083210847,969.68779091035,969.80163641857,0.0007392979630937913,0.11384550821992434,0.027053742503817348,0.0007338837691404935,0.08437074401042466,0.44,0.56,0.3837834586259854,Stairs down
-0.6101660156219998,-0.81103515625,-0.44653320312,0.012223594261081525,0.11000617400160188,0.8055810546828,0.60375976562,1.22692871093,0.018537843732840467,0.13547127110761184,0.15277832030879998,0.01635742187,0.30017089843,0.0067233377995919085,0.08158495217621929,1.02704198726,0.76554445894,1.43928327554,0.027171012002297823,0.164010066405312,969.7615366674634,969.74176585246,969.78437693196,0.00016063286530106606,0.04261107949992038,0.012610572415558914,0.00023220983654185354,-0.9819924325349096,0.56,0.44,0.4612185023680429,Stairs down
-0.5856738281212,-0.77526855468,-0.42419433593,0.010606422183659514,0.102471254319555,0.8371777343719999,0.59399414062,1.21203613281,0.026312340004444587,0.16139769702322318,0.2361376953095999,-0.04516601562,0.54309082031,0.01898195416018946,0.13708440691263016,1.0613614499075998,0.80990476797,1.38175465914,0.028782812986055777,0.16880457593381532,969.850260509062,969.76898534292,969.97174563202,0.0027224178514515356,0.20276028909995603,0.051915254722836715,0.0005020807526953319,0.5424804772886893,0.6,0.4,0.7668831355779568,Stairs down
-0.5009960937471999,-0.72680664062,-0.29650878906,0.013082483416687317,0.11380535392731066,0.8382275390592,0.70275878906,0.98107910156,0.0048900809913723945,0.06957858996457654,0.274233398434,0.01550292968,0.44799804687,0.01396971654423234,0.11760110279580722,1.02735027594,0.90019261133,1.20042446422,0.005051230982893751,0.0707157597220366,969.8378173099359,969.77371475052,969.91408723925,0.0013254858218759596,0.14037248873000863,0.036224728620891,-0.00012794596133409788,-0.26254627795775765,0.68,0.32,0.36101427028886374,Stairs down
-0.4527148437459999,-0.62219238281,-0.28784179687,0.008851115005145684,0.09360878086533457,0.8071923828091999,0.66088867187,1.02990722656,0.006814506463360439,0.08213623681863465,0.4117773437463999,0.17041015625,0.60498046875,0.01473451204954464,0.12077734443615323,1.0235337727807998,0.8474195475,1.20911180012,0.008631920806543463,0.09244242315343118,969.8333318213819,969.790273326,969.8755398293,0.0005325936768302285,0.08526650329997665,0.022962311296163683,-0.0002956354876648107,-0.5052612516226622,0.6,0.4,-0.078681039528561,Stairs down
-0.4981982421831999,-0.7763671875,-0.33361816406,0.010941697226659917,0.10407824102276766,0.7852587890583999,0.63159179687,1.11450195312,0.010579156972078441,0.10233946160869549,0.41654785155799984,0.14196777343,0.56799316406,0.010356481484692339,0.10125668703767379,1.0281926227692002,0.82776085026,1.27520894367,0.012851979553162543,0.11279831451591339,969.8420244293434,969.76094299179,969.92844709761,0.002770269949304611,0.1675041058200577,0.05236952596512179,6.802065634315405e-05,-1.2818415901107238,0.48,0.52,0.09946914148381161,Stairs down
-0.47293945312119995,-0.693359375,-0.31726074218,0.012549652860818562,0.11146369961655847,0.8362646484335999,0.69604492187,1.04357910156,0.00615786147845105,0.07807869660583827,0.3189941406212,0.12377929687,0.47106933593,0.010043977487085737,0.09971728893333834,1.0217680086263996,0.86064336982,1.16532656502,0.009314811865047956,0.09602949414839941,969.8253397159984,969.77280099989,969.87629435243,0.0006618818150694369,0.10349335253999925,0.025598105338457036,-0.00010245857338648151,0.01803235973123929,0.56,0.44,-0.08758004769132006,Stairs down
-0.4171142578087999,-0.68725585937,-0.22802734375,0.01321362124534059,0.11437431981387773,0.8529541015587999,0.61047363281,1.26171875,0.020946376251619863,0.14400316833008803,0.27862304687120004,0.09289550781,0.39208984375,0.006270568924802672,0.07878999451424429,0.9980837481099999,0.71067229763,1.38633787807,0.02323323050366358,0.15166047012529976,969.8216170142583,969.77461367443,969.92843470936,0.0009744580211819254,0.15382103492993338,0.031059836460775293,0.0005376668361385236,3.3200870880261233,0.6,0.4,1.4350044535350122,Stairs down
-0.43189453124639987,-0.66845703125,-0.23315429687,0.013980912343470693,0.11764821809120607,0.8954296874959999,0.62512207031,1.21044921875,0.023509346932952327,0.15255901633014946,0.31093749999599996,0.11120605468,0.55688476562,0.012230321614355118,0.11003644122840199,1.0496354761852,0.76437138084,1.42841779891,0.03282634595069093,0.18027224548217072,969.8688767165356,969.81465874935,969.93107761255,0.0016884901757159146,0.11641886320001049,0.04088526964517607,0.0008223553193228444,-1.3229939618318705,0.56,0.44,0.18748284960695139,Stairs down
-0.5054248046835998,-0.73559570312,-0.25927734375,0.020446237987820446,0.14227359420476535,0.8452978515592,0.56005859375,1.18176269531,0.023348693558508313,0.15203685942206,0.31620117187079994,0.09631347656,0.56384277343,0.01517366606779979,0.12256398087171366,1.0476323495108002,0.7190465419,1.41915993271,0.0311224687189222,0.17553131923315846,969.9181518111724,969.85374630914,970.02308344668,0.0015447090737301793,0.16933713753996926,0.039105779406538844,0.0005385213856779407,0.3268675564714236,0.6,0.4,0.6274641965049735,Stairs down
0.5142382812471998,-0.18212890625,0.98779296875,0.10978079550173124,0.329671029280272,0.21972167968759998,-0.50207519531,1.40795898437,0.32240299080023743,0.564959255957662,-0.46305664062199986,-0.92553710937,0.32531738281,0.08894079608069629,0.2967345415011359,0.9866626818844001,0.45331492225,1.40944998958,0.07025269453098144,0.26372365761469263,969.9630593274769,969.88580119948,970.21078115934,0.008160891955397442,0.32497995985988837,0.0898848320677269,0.002246107593108312,1.178376788807503,0.76,0.24,1.526488156874068,Stairs down
-0.2711669921848,-0.9677734375,0.65185546875,0.16666520123409365,0.40620013444329717,0.6707568359355999,-0.13220214843,1.34191894531,0.14258323857108243,0.3757092042862027,-0.36981445312119987,-0.77868652343,-0.01550292968,0.04093151155149012,0.20130125790956999,0.983086413484,0.67027681473,1.436873849,0.04083662202911396,0.20106778908821477,970.0154875336651,969.88003270517,970.21078115934,0.005553683838864271,0.33074845416990684,0.07414949089829025,0.000687823310704525,0.6314761882690205,0.72,0.28,0.602160690383986,Stairs down
-1.0077880859339998,-1.29992675781,-0.73693847656,0.026637079739914138,0.16239060607841513,0.3682275390583999,0.23706054687,0.72766113281,0.011813830992456182,0.1081466258490371,-0.18747070312280006,-0.54541015625,0.16369628906,0.03464803946093065,0.18520680081012508,1.1084371143567997,0.7877757373,1.40599512863,0.030412864049394365,0.17351868893263464,970.1289558918132,970.0113029204,970.23055646877,0.0024985585406147558,0.21925354837003397,0.04973502744755057,0.001396968793195579,0.005394043291297557,0.48,0.52,0.0478067264401372,Stairs down
-0.9924169921839998,-1.36291503906,-0.71362304687,0.031313932688785184,0.17607042159856756,0.34687988280879983,0.19091796875,0.66015625,0.01174095529492241,0.1078125490931978,-0.2219189453096,-0.51196289062,-0.01330566406,0.016025546199106042,0.12595749575596915,1.0857780971164002,0.8180244598,1.45209561568,0.0343845569934128,0.18450125046589433,970.1937849462233,970.1473271426,970.24753489022,0.0007944972273791215,0.10020774761994744,0.028045538951949743,0.0006919857886082372,-0.7884108865139572,0.44,0.56,0.29977229945056266,Stairs down
-0.9664025878867001,-0.97387695312,-0.958984375,1.2914898115565847e-05,0.0035757165903368498,0.18503784179289998,0.17309570312,0.19873046875,3.34827752594971e-05,0.005757425423477245,-0.24278320312249999,-0.25219726562,-0.23278808593,2.395482979710435e-05,0.004869833826644735,1.0134951020154004,1.00745583662,1.02164018948,1.4116827206751258e-05,0.0037384032600408083,970.2459902507584,970.23709837735,970.25386644472,2.2532685336917673e-05,0.0167680673699806,0.004723066639753085,0.00010683646415033619,-0.6538995464504107,0.59,0.41,-0.011701943712234795,Lift up
-0.9899377441357998,-1.01452636718,-0.958984375,0.0003428896433836835,0.01842446056062013,0.18735595702780003,0.17663574218,0.19873046875,2.3950344390490968e-05,0.004869377880857683,-0.2582519531211,-0.27136230468,-0.24462890625,6.496244005708697e-05,0.008019527146691137,1.0401037206213999,1.01131018559,1.06722958539,0.00038868479066563754,0.01961626729933555,970.2468835998085,970.22554395301,970.25524293443,3.8531726145931465e-05,0.02969898142009697,0.006176277915093536,-0.00011564593357898828,0.4388563637292435,0.57,0.43,-0.6384091959621162,Lift up
-0.9833129882777,-1.01220703125,-0.96069335937,0.00034457068855232067,0.018469569070955538,0.18333129882330007,0.16345214843,0.19470214843,9.328890780020621e-05,0.00961020388556893,-0.25621093749669993,-0.2666015625,-0.24340820312,4.431192321485215e-05,0.006623352926026487,1.0325827924481,1.00947486926,1.06345768851,0.0004131000824272887,0.020222983993541006,970.1448382358656,970.02871550898,970.22554395301,0.003087752945619519,0.19682844402996125,0.05528901713869875,-0.0018894083535649668,-0.9424392097530521,0.49,0.51,-0.3330137565319744,Lift up
-0.9384631347626998,-0.97143554687,-0.91235351562,0.0004755267275411218,0.02169726849780199,0.16895019530840003,0.15954589843,0.18127441406,4.938693962206637e-05,0.006992357987535085,-0.23882446288650003,-0.24743652343,-0.22106933593,4.441279803788694e-05,0.0066308875769016075,0.9830628124688997,0.95669323148,1.01512949667,0.0004499876951214066,0.021106582342250307,969.9428145791779,969.8614860154,970.02871550898,0.0027890072957577313,0.16722949357995276,0.05254633405671755,-0.001810938679495472,-1.2797871211865786,0.49,0.51,0.10817269740114194,Lift up
-0.9502478027313,-0.97509765625,-0.9189453125,0.0003312438590885835,0.01810887684252388,0.18940307616719995,0.16589355468,0.21374511718,0.00018417205923159331,0.013502975177318419,-0.24040039062040006,-0.25122070312,-0.22497558593,5.62413533584517e-05,0.0074618322029423294,0.9983849769695997,0.96226760641,1.0227496114,0.00043448295927076957,0.020739771688185527,969.8305991483472,969.8195484163,969.8614860154,0.00011511800907923073,0.041937599100037914,0.010675524764077802,-0.0002795926530853299,2.2838880050308816,0.69,0.31,1.709657325303768,Lift up
-0.9626953124954,-0.97302246093,-0.94714355468,3.1154565140551015e-05,0.005553649204725259,0.1755859374965,0.1103515625,0.20764160156,0.0008052051669403876,0.02823390010733522,-0.26470581054360004,-0.30505371093,-0.23132324218,0.00041603574094792794,0.02029471319182532,1.0143474787358,1.00288750579,1.02331639075,2.1127458160419894e-05,0.004573421430265933,969.8357447969088,969.77001721574,969.90560997291,0.0014900036569623666,0.1355927571700022,0.038407077738259944,0.00011065935055744524,-0.7019571097300741,0.6,0.4,0.2229600892479263,Lift up
-0.9627673339813001,-0.97412109375,-0.9541015625,2.6657272770223254e-05,0.005137187950865826,0.1469970703077,0.12182617187,0.17175292968,0.00010035435357794501,0.0099674876494614,-0.28316772460490003,-0.30798339843,-0.26733398437,7.498273192059735e-05,0.00861585193706295,1.0143430544923,1.00601349177,1.02476206087,2.1394479732625995e-05,0.00460223151691652,969.7888505196537,969.76836790093,969.81160779852,0.00013565012446921178,0.043239897589955945,0.011588512554444581,5.180675694203397e-06,-0.8356871841184188,0.51,0.49,0.12018463716929106,Lift up
-0.9553198242151,-0.9716796875,-0.94421386718,5.005705838163484e-05,0.007039636908095366,0.16101562499630004,0.11682128906,0.19348144531,0.000341093877363774,0.018376151354136595,-0.30146850585669993,-0.31689453125,-0.28283691406,7.06852852128295e-05,0.008365311253067706,1.0148158998544,1.00204214552,1.02698755072,5.168213719339147e-05,0.007152993486747877,969.7792137615542,969.75198270845,969.81401011267,0.0004061421450195417,0.062027404219975324,0.020051950617567017,-0.0004258192923173544,-1.2097345997595255,0.52,0.48,0.34806969043745584,Lift up
-0.9470422363241,-0.99719238281,-0.91162109375,0.000590733222013021,0.024183173691492414,0.37092651366799984,0.27221679687,0.45825195312,0.002912525472843495,0.053697301776858955,0.03261352538949999,-0.07861328125,0.11474609375,0.0026205940842765458,0.050935136629185356,1.0204150219165,0.97847789607,1.06069570097,0.0003585002633403699,0.01883919479985719,969.6933162025223,969.67348599936,969.7190475441,0.00021096751237991112,0.04556154474005325,0.014451914657100353,0.00037837377123300714,-1.4112258593318197,0.48,0.52,-0.019981278702342422,Lift up
