avg_accX,min_accX,max_accX,var_accX,std_accX,avg_accY,min_accY,max_accY,var_accY,std_accY,avg_accZ,min_accZ,max_accZ,var_accZ,std_accZ,avg_magnitude,min_magnitude,max_magnitude,var_magnitude,std_magnitude,avg_pressure,min_pressure,max_pressure,var_pressure,range_pressure,std_pressure,slope_pressure,kurtosis_pressure,Pressure_below_avg,Pressure_above_avg,skew_pressure,Label
0.9446313476524998,0.70971679687,1.33728027343,0.031206796620620484,0.17576896385430016,0.24725952148080002,0.14221191406,0.40686035156,0.004276434994369121,0.06506666308045488,-0.1112780761688,-0.40051269531,0.09155273437,0.010219959928016381,0.10058707833880165,0.9905984855046,0.75125501849,1.36283159901,0.03011036799023077,0.1726535962855349,970.7761003675182,970.75577369314,970.80302559379,0.0002534761474337789,0.04725190065005336,0.015841129567030283,0.00044836824575388126,-1.5062620011967525,0.49,0.51,0.036924916059853395,Stairs down
0.9925634765592,0.74182128906,1.43823242187,0.034853284912683254,0.18575454789467852,0.18654541015249998,0.02600097656,0.33898925781,0.006259027268001169,0.07871745038630988,-0.12098388671579997,-0.32604980468,0.07421875,0.011001271882092932,0.10436119567766557,1.0250313800601,0.78717408967,1.48905988534,0.035880468692770624,0.1884719183481797,970.8283355352878,970.80003567894,970.8749969566,0.0003917617710772204,0.07496127765989513,0.01969375924922533,0.000584172861981934,0.016772738546058097,0.57,0.43,0.7050373358238926,Stairs down
0.9972790527306,0.65747070312,1.47033691406,0.0492214158010988,0.2207469176298682,0.21504272460550003,0.08508300781,0.37084960937,0.004944613381828371,0.06996547182725267,-0.0617077636707,-0.2646484375,0.11218261718,0.010945397041347562,0.10409583599229166,1.0293163130884002,0.67967654909,1.47549558876,0.050085828373186606,0.2226768288112949,970.8881806090279,970.85156356342,970.92565723882,0.0005176527956873374,0.07409367540003586,0.022637938681126953,0.0006481686693748117,-1.2381652011834285,0.49,0.51,0.048589471885150635,Stairs down
0.9487902831991,0.71911621093,1.21960449218,0.014919800738585889,0.12153436851853895,0.20320068359000004,0.10620117187,0.3232421875,0.0029033846266042413,0.05361297212744504,-0.08698852538900001,-0.24182128906,0.04614257812,0.006508883771926625,0.08027325167331494,0.9798307727087,0.75192159611,1.23266205661,0.013213058739414401,0.11437188532161327,970.9219030586237,970.89925651047,970.94522714704,0.0001177285936720571,0.04597063657001854,0.010795893095771954,0.00020236696853377588,0.027934109236684268,0.6,0.4,-0.08508209338526204,Stairs down
0.9839270019485998,0.66784667968,1.29272460937,0.044252457659686543,0.20930822507271346,0.22233886718350004,0.08935546875,0.41979980468,0.004602600227621714,0.06750240162650138,-0.11083129882470001,-0.30529785156,0.00952148437,0.006987887577025458,0.08317456763491592,1.0194301334610003,0.70510080147,1.38520366482,0.04634061901638841,0.21418966554487293,970.9732559248656,970.92165922132,971.02651337673,0.000607506858397581,0.10485415540995291,0.024524106299998075,0.0007656825091530799,-1.0181388119821773,0.57,0.43,0.21444593750661636,Stairs down
0.9875512695281999,0.61743164062,1.39978027343,0.06318200958446207,0.250100358833444,0.23428222655910003,0.11499023437,0.42761230468,0.006458137709643768,0.07995971693638823,-0.09410888671520003,-0.30603027343,0.03625488281,0.0073367940715503965,0.08522573631735247,1.0256921036589,0.64444736744,1.43305052565,0.06380306528211066,0.251326549789889,971.0613345429706,971.02028201835,971.11339360414,0.0006973094881754467,0.09311158578998402,0.026274253429806375,0.0008378076768044647,-1.0780824765874246,0.57,0.43,0.19105827510182688,Stairs down
0.9867114257764,0.72058105468,1.40063476562,0.02732229745155384,0.16446602833727791,0.2590222167938,0.11169433593,0.51354980468,0.01043261214189616,0.10162817532789419,-0.08145263671740001,-0.30517578125,0.10485839843,0.009596309462822349,0.09746972026323932,1.0327581050945,0.78186723168,1.4344256739,0.027893820007688315,0.16617726020009907,971.1288394217742,971.09856302041,971.15881309877,0.00021869533435290962,0.060250078360013504,0.014714223765098195,0.0003885824961522467,-0.6418669940338235,0.57,0.43,0.2911395858020909,Stairs down
0.9925012206995999,0.68762207031,1.45886230468,0.0495121771802379,0.22139795710086288,0.2863671874959,0.13549804687,0.72961425781,0.019123624575163117,0.1375950156415976,-0.09949707031010002,-0.29797363281,0.07006835937,0.008799493216213783,0.09333540745103995,1.0471275391364,0.72451321974,1.48928443259,0.053903303082401696,0.2310070779252828,971.176205268785,971.14687245234,971.22100646271,0.000379352287211348,0.07413401037001677,0.019379338593957084,0.0004687086553927107,0.07710128374618108,0.53,0.47,0.6803041360403079,Stairs down
0.9587512207000001,0.8232421875,1.15087890625,0.004591430406067975,0.067420442760392,0.21795166015290007,0.06079101562,0.32482910156,0.00493370475803536,0.0698882515910579,-0.11928344726359999,-0.26086425781,0.02197265625,0.006595325606765031,0.08080453174604368,0.9996249447601002,0.86529135247,1.18928149508,0.005189640527074912,0.07167805885906901,971.2116814121721,971.1908760286,971.23386968426,0.00011097492399650711,0.04299365565998414,0.010481658969673744,9.847479363527647e-05,-0.3020308297669634,0.4,0.6,-0.09367779154368239,Stairs down
0.9659960937456,0.87976074218,1.14538574218,0.004914866649628546,0.06975469864555549,0.2749414062452,0.20971679687,0.38720703125,0.0020068531325821296,0.044573362014282795,-0.14509765624800003,-0.2744140625,0.04602050781,0.00903228663412733,0.09456195729671661,1.0206617303363998,0.92820895454,1.18329627953,0.0038774327571713,0.061956907844078105,971.2176492806705,971.19926668949,971.26154722996,0.0002343179665751441,0.06228054047005571,0.015230718528992408,0.00016557836797417944,1.196077223823254,0.68,0.32,1.3747641454579629,Stairs down
0.9750537109344001,0.82409667968,1.14636230468,0.009043363465209042,0.09461992301073253,0.25490722655840004,0.16284179687,0.40051269531,0.003444937744534756,0.05839938670131227,-0.11315917968400001,-0.32995605468,-0.01867675781,0.007780937233161006,0.0877674647054898,1.0195060778923999,0.85963344155,1.19336757875,0.009279127780296501,0.09584537809666951,971.2156382502103,971.19926668949,971.25252753155,0.0001417481071546358,0.05326084206001269,0.011846122829140741,-2.225053571811762e-05,1.4602695255871687,0.61,0.39,1.1330078432073571,Stairs down
0.9676416015588001,0.79541015625,1.25524902343,0.014857998905544553,0.12128239326666138,0.2148535156208,0.06970214843,0.39416503906,0.004631220596056792,0.06771195160454485,-0.1560351562464,-0.33471679687,0.00915527343,0.006847233820125588,0.08233323437060111,1.0084420147523998,0.84888929347,1.34068801682,0.016118246360587153,0.12632127254338946,971.2175199484077,971.1972189134,971.24040290779,0.00018888494842599662,0.043183994390005864,0.013674651693616794,8.606456213486484e-05,-1.4588681489009996,0.52,0.48,0.055317103739721214,Stairs down
0.9958740234339999,0.79602050781,1.32287597656,0.022679458964688287,0.14984213150860276,0.23951660155960006,0.06433105468,0.4521484375,0.00956545974276112,0.09731292383508733,-0.10551269531000003,-0.23791503906,0.06103515625,0.007360322162077711,0.08536228054859438,1.0378311131024,0.85636420393,1.32983627585,0.022608051497839766,0.14960605262776427,971.2113616280863,971.18001674873,971.24253032433,0.0003409520820448876,0.06251357559995085,0.018372331404164218,4.879851880066955e-05,-0.7636171815500834,0.48,0.52,-0.08358047422282176,Stairs down
0.9724658203087999,0.806640625,1.30810546875,0.01579332602144426,0.12504156413461012,0.2085498046832,0.04943847656,0.35107421875,0.0044072650660655615,0.0660544655220592,-0.1447167968724,-0.31530761718,0.00866699218,0.00816577627180177,0.08991172620455995,1.0100967915628,0.83806820746,1.36699767838,0.018093857939063405,0.13383915480782435,971.2193465825851,971.20364704372,971.25901920481,0.0002584440919025426,0.0553721610899629,0.015995613491939505,-8.830805164377884e-06,0.7937253919250997,0.64,0.36,1.3575782114610575,Stairs down
0.9539697265587997,0.82250976562,1.16015625,0.008513206087187598,0.09180454251460393,0.25052246093439995,0.1181640625,0.38659667968,0.005484610518888757,0.07368693516288942,-0.08852050781,-0.32104492187,0.07775878906,0.01188176891996905,0.10845714006357239,0.9977161507599999,0.85520232419,1.26290311821,0.01094837889715733,0.10411001444714987,971.2183636493978,971.19883506299,971.24277916724,0.00013284949211026206,0.043944104249931115,0.01146826042559025,9.747557917752518e-05,-0.3470385514573633,0.4,0.6,0.16472842549867567,Stairs down
0.9641699218704,0.63525390625,1.32690429687,0.04097768287478853,0.20141476124167423,0.21311035155840002,0.09948730468,0.31701660156,0.003946413897552029,0.06250559781792754,-0.1342578124968,-0.37756347656,0.06091308593,0.00941523479657029,0.09654575313603694,1.0033429894504002,0.67794095279,1.37660618192,0.040569297145861716,0.20040859306527525,971.2533058403374,971.2290763024,971.28502967039,0.00026002494460615076,0.05595336799001416,0.01604445995227291,0.00047180725620675035,-1.025655859481881,0.49,0.51,0.26524343922671323,Stairs down
0.9982226562456,0.83776855468,1.32995605468,0.011086521822844688,0.10476476795476732,0.18258789062080003,0.01623535156,0.36877441406,0.007485107075109245,0.08608284384450918,-0.065698242186,-0.18395996093,0.04968261718,0.004213724473140856,0.06458782569811007,1.0227322759560002,0.88324751305,1.34454168241,0.010787131136178775,0.10334050427986592,971.3026280711899,971.27881418208,971.32149511028,0.0001335409035432563,0.042680928199956725,0.011498064815777642,0.0003209351791411121,-0.8399327647670902,0.53,0.47,-0.020486488358546964,Stairs down
0.9417578124971999,0.67639160156,1.3359375,0.03941648574804938,0.19754068160905208,0.1790771484332,0.03356933593,0.30444335937,0.0047608060066455325,0.06865273444356806,-0.05497070312239998,-0.31103515625,0.15637207031,0.009490082624761711,0.09692874598649306,0.9671772223348001,0.70025129107,1.35998214667,0.040098082750531616,0.1992413158032899,971.3365281578434,971.30122588402,971.36995272056,0.0004039613926701827,0.06872683654000866,0.019998044372975095,0.0006388228393973631,-1.0276077723322379,0.45,0.55,0.17208163491063877,Stairs down
1.0054296874956,0.68420410156,1.40454101562,0.05081994499842444,0.22430279879760795,0.19541015624720004,-0.0302734375,0.30236816406,0.006086988882530958,0.07762808121875515,-0.0914208984344,-0.27136230468,0.10583496093,0.0069031931170052945,0.08266898563448835,1.0345541161724001,0.70770089699,1.43784465493,0.050809669465319694,0.22428012121154764,971.3997747504367,971.36144908581,971.44524802518,0.0005891413941334695,0.0837989393700127,0.02415056894137558,0.000757965543017094,-0.9839599380944581,0.57,0.43,0.15790210489497375,Stairs down
0.9513085937467999,0.63354492187,1.36206054687,0.05359129872010469,0.23033754737971757,0.19371582030799994,-0.0458984375,0.36169433593,0.00963234891792284,0.09765257512602324,-0.1056249999976,-0.30236816406,0.07775878906,0.008370220684946209,0.09103031625835839,0.9852122016320002,0.65983868471,1.39761122475,0.05444984605242232,0.23217525189368934,971.484955627312,971.43148925203,971.56615499359,0.000977422132219233,0.1346657415599566,0.031107039571406356,0.0009297144990690644,0.08524134460734789,0.45,0.55,0.3497326788111092,Stairs down
0.9893261718715999,0.68505859375,1.373046875,0.03883150018831774,0.19606933770081075,0.1935400390588,0.01354980468,0.40185546875,0.005981858475153481,0.07695479121147654,-0.09436035155999999,-0.23193359375,0.02331542968,0.004070840700555852,0.06348332295611418,1.0175791174739999,0.73083470607,1.38609627735,0.038440398046378194,0.1950794557761386,971.5668748601847,971.51809802598,971.617361524,0.0005969557823484689,0.09926349802003642,0.024310208236972886,0.0007654929581268713,-0.7308524600126565,0.53,0.47,-0.24954068409368602,Stairs down
0.9868261718715999,0.66491699218,1.30712890625,0.018120255036997823,0.13393674808142778,0.2497460937452,0.16748046875,0.51879882812,0.006026814585946186,0.07724342328047562,-0.09410156249760003,-0.421875,0.03967285156,0.010353610154164796,0.10124264937576036,1.0299550475424002,0.75561601333,1.35910196412,0.018588264562610098,0.135655379240869,971.6289303523382,971.60363212749,971.64993365499,0.00020854785453296108,0.0463015275000771,0.014368798696746763,0.0004247278150760462,-1.0315802087231098,0.53,0.47,-0.19674718642876324,Stairs down
0.9440966796836,0.93249511718,0.95080566406,1.798552696502525e-05,0.004219676728776151,0.29658203124560006,0.28552246093,0.31518554687,4.536575741623756e-05,0.00670164903901086,-0.17157714843320002,-0.19323730468,-0.15209960937,0.00012217035197840416,0.010997665591325284,1.0044352131579999,0.99405706537,1.00874341065,1.1847171932757618e-05,0.0034247189977325205,971.7122133688162,971.69488431996,971.72838358042,7.676540976351565e-05,0.03349926045996199,0.008717669164741254,0.0002851070076503977,-0.47712107726882413,0.52,0.48,-0.23793426562273343,Lift down
0.9191992187460001,0.88488769531,0.94873046875,0.0005004116019284445,0.02225775114222369,0.28741210937040007,0.27905273437,0.29858398437,4.757307994897905e-05,0.006862750844194277,-0.16536132812160007,-0.17919921875,-0.14868164062,4.490563363616043e-05,0.0066675765687241135,0.9772189705504001,0.94361613315,1.00651267603,0.0005124628332420015,0.022524169350046665,971.7297832051935,971.71919403683,971.74450638246,2.1132512896172287e-05,0.025312345630027266,0.004573968492153238,0.00011144060957028657,2.7906883756304746,0.68,0.32,0.9453283170101487,Lift down
0.7548132324179,0.56127929687,0.92297363281,0.013144770431488146,0.11407595157250833,0.5877062988243,0.25732421875,0.78308105468,0.034663917890143774,0.1852492340368573,-0.032105712890299995,-0.17590332031,0.14001464843,0.009087499793396974,0.09485053924708602,0.9844830946376001,0.90703266153,1.12852171186,0.003326009008981797,0.05738247919785253,971.8293716840275,971.75475680275,971.94496170789,0.0038648158612341844,0.1902049051400354,0.06185602398006069,0.0006735225487164227,-1.4521712350024694,0.56,0.44,0.3034963258366237,Lift down
0.8989208984336001,0.62255859375,1.06005859375,0.017380554844537533,0.131174499412394,0.3801806640576,0.13110351562,0.73291015625,0.03189830837803322,0.1777057266782725,-0.0049609375,-0.23083496093,0.29211425781,0.02811071593225781,0.166822087185526,1.0135378283004,0.94058316603,1.11853486288,0.0019974584181873542,0.044468908621704224,971.9909820238773,971.87222445298,972.10827184979,0.006123768044613031,0.2360473968099086,0.07786225249867165,0.002582269671153512,-1.3973631251420513,0.48,0.52,-0.00973274558637247,Lift down
0.9918261718712,0.90539550781,1.02893066406,0.0009289347523013712,0.030325655883729166,0.319731445308,0.20520019531,0.47875976562,0.006790596162409959,0.0819920130304523,-0.06809570312319999,-0.1416015625,0.06677246093,0.004083277817627252,0.06358022522334267,1.0494700847888003,0.98433117541,1.10832667181,0.0008906049381047218,0.02969341490505386,972.215502282777,972.12825144814,972.25328254719,0.0015603891892346637,0.12503109905003384,0.03930375678408258,0.0012354678619822667,-0.6231179684070067,0.36,0.64,-0.9318860693949514,Lift down
0.9781738281215999,0.93896484375,1.01379394531,0.0005421638488764797,0.02316769756336859,0.19624023437119995,0.12622070312,0.30432128906,0.0026136275494093235,0.05086738910063332,-0.109702148434,-0.18444824218,-0.03515625,0.0021166773997467296,0.045776747653686174,1.0059385066804003,0.95583799281,1.05888806013,0.0006831251158123091,0.026005650629318738,972.2467421296495,972.23561109307,972.2551943745,3.85632262675168e-05,0.019583281429959243,0.006178801987832401,-5.827369661461791e-05,-1.1982258986906744,0.36,0.64,-0.5438024663946043,Lift down
0.9705957031224002,0.9501953125,0.99096679687,0.0001300866194352736,0.011348381084582984,0.17381347655880006,0.09289550781,0.21545410156,0.0007773099764053762,0.027740527692192922,-0.193002929684,-0.20642089843,-0.16833496093,7.47489447396277e-05,0.008602409853769548,1.0051666800316,0.98871203596,1.0234210326,0.0001308523794158933,0.01138173341902429,972.2443914756778,972.23885238818,972.24843826649,5.489444633144753e-06,0.009585878309962936,0.002331212171127567,-3.741184000229236e-06,-0.21778506127294195,0.64,0.36,0.1223982641923615,Lift down
0.9660158318945762,0.72229003906,1.19543457031,0.01170591898963812,0.10773447120739073,0.24117886817745757,0.0458984375,0.58703613281,0.023574138153325656,0.15288674671637764,-0.0273592674137288,-0.28039550781,0.29821777343,0.04157459800579342,0.20303268432459196,1.0291521579478815,0.89470734174,1.2912492757,0.009229762066045435,0.09566370128450932,971.6657413542359,971.65254820089,971.68209583698,5.664840109621021e-05,0.029547636090001106,0.007494553348964808,-9.158634135415334e-07,-0.6631890078112868,0.41,0.59,0.007745657110949539,Stairs up
0.9908634380668611,0.83020019531,1.20385742187,0.013279784885194757,0.11481660223507084,0.2647500142521898,-0.0107421875,0.53845214843,0.01401635293769676,0.11795780513457398,-0.021650996519416047,-0.23950195312,0.29577636718,0.025129175552367745,0.157942239167676,1.0435412229335768,0.8783504933,1.2912492757,0.01554955186709471,0.1242419071348423,971.6702157310104,971.65587345627,971.68618256017,8.802889740160465e-05,0.030309103899980983,0.009348066682755455,8.420238653346353e-05,-0.9015335529294588,0.61,0.39,0.3177430545683713,Stairs up
0.989384688726378,0.81457519531,1.23864746093,0.01644190635035285,0.12772017272468164,0.21787820650440945,0.09252929687,0.38073730468,0.007512052788718481,0.08633019614688749,-0.14872104914661416,-0.30981445312,-0.02319335937,0.006915791612348189,0.08283318513906401,1.0298820018207877,0.8207379464,1.31899542264,0.018587024310240625,0.13579642774429945,971.6564363450942,971.62855730568,971.68876208974,0.00017969914807159648,0.0602047840599198,0.013352310442383103,-0.0001046749426707289,0.5996068350462846,0.39,0.61,0.5167460442970992,Stairs up
0.9532345691318674,0.77856445312,1.32250976562,0.017291482222632364,0.1311004068150604,0.16874970585042168,0.04431152343,0.32299804687,0.004666531425499539,0.0681059453381727,-0.10827857327415664,-0.36437988281,0.01525878906,0.007823648863326253,0.08818457035381495,0.979012695063253,0.78857857434,1.38728716846,0.020114425495357375,0.1413975044243481,971.6633925157082,971.63357358289,971.72504393009,0.0006866218040755362,0.09147034720001557,0.02612442397733145,1.225008756974606e-05,0.8746687817994641,0.71,0.29,1.2789424618671588,Stairs up
1.0141359839072772,0.83654785156,1.25695800781,0.015344681882005216,0.12356665452423692,0.1610095335676238,-0.27038574218,0.37634277343,0.021257402882987622,0.14543785000903328,-0.11376107092777227,-0.37377929687,0.04650878906,0.010784293364885712,0.10359008530728428,1.0478608710779207,0.87543347384,1.27373305208,0.016558806266923243,0.12836211270648798,971.6558749467939,971.63882044064,971.67990224915,0.00012662546806997224,0.04108180851005727,0.011224910214213324,-7.403842995818373e-05,-0.40854863862900537,0.59,0.41,0.4513800761298849,Stairs up
0.9425189138793101,0.72924804687,1.28674316406,0.020831309276421694,0.1439152149988541,0.19127576104155175,0.03125,0.4052734375,0.009436662587670418,0.09686293870535742,-0.023031300512298843,-0.25598144531,0.14794921875,0.010764788713267026,0.10345492792258201,0.9718290905354597,0.74860818186,1.32927354629,0.021929953705216155,0.14766150306873999,971.6172455286332,971.58591240564,971.67573192251,0.00042670499741268773,0.08981951686996581,0.02059739473431896,-0.00026686788790413016,0.5108708582607244,0.55,0.45,0.8137106682532692,Stairs up
0.9777050142928104,0.78112792968,1.20385742187,0.013491839486970691,0.11577416607144925,0.16974954043816995,-0.04602050781,0.42456054687,0.017199107794368295,0.13071608671133045,-0.09529223472960784,-0.24438476562,0.0537109375,0.004899368229404389,0.06976636879495104,1.0072373151107188,0.82826118429,1.21764111201,0.014293033678253672,0.11916213810384896,971.5900475461074,971.57276620271,971.60411092093,0.0001157481717985371,0.03134471821999796,0.010723415864352825,-8.510700186183822e-05,-1.5697077251697265,0.56,0.44,0.07466713470690864,Stairs up
0.9920039616531205,0.77624511718,1.29992675781,0.02608121008197667,0.16092307777577428,0.0854933718384397,-0.08471679687,0.20068359375,0.004738543134865406,0.06859253928792586,-0.02424870484269504,-0.16162109375,0.11975097656,0.00394649061413673,0.0625979338237374,1.0003036103441136,0.79334597705,1.31589188417,0.026066204810330548,0.1608767792739153,971.5502800379847,971.51306344864,971.57555732618,0.00030871204671274266,0.06249387754007785,0.01750778682680755,-0.0003937164750680972,-0.8520143410583279,0.4,0.6,-0.5083132828614003,Stairs up
0.9666522686256154,0.79895019531,1.28601074218,0.022675127203283803,0.15000234380793498,0.10247896634238464,0.01782226562,0.287109375,0.0034215674950963944,0.058268754449825974,-0.02949876051569231,-0.1279296875,0.11975097656,0.003199095113830971,0.05634258327303093,0.976162596384077,0.80532212833,1.28875539762,0.022136023961838117,0.14820845743222402,971.5001786945887,971.46197623378,971.53273589181,0.00037295963072707427,0.07075965803005602,0.01923774182409963,-0.0004119085482013624,-0.8786046939238985,0.36,0.64,-0.24629255300175812,Stairs up
0.9517102544667628,0.69030761718,1.31567382812,0.02975558644268976,0.17199880474350526,0.24590111880890167,-0.29260253906,0.61779785156,0.04658657140810246,0.21521450896296754,-0.031030555680115604,-0.25109863281,0.0498046875,0.00425221285125286,0.0650202551995662,1.0125930834513874,0.79786740944,1.35513440606,0.022094130445116596,0.14821072399944485,971.4452859229042,971.40512291278,971.54415761255,0.0012970030848487527,0.13903469976992255,0.035909691688883486,-0.0004974893064882734,0.7099225388236672,0.59,0.41,1.1721654181624606,Stairs up
1.0003747558558502,0.80944824218,1.28442382812,0.023103870714868562,0.1516190995926774,0.0952978515587,-0.01477050781,0.21215820312,0.0032492123894899633,0.05685917980012122,-0.0028942871088,-0.14978027343,0.13220214843,0.005240729494181456,0.07221167389494962,1.0094857956187,0.81998474294,1.29111235655,0.022325609589057965,0.14904355585235035,971.3963992888471,971.34466808527,971.41594386377,0.0001738451663349498,0.07127577850008038,0.013152031801333019,-0.0001687460453931192,0.11867305890869861,0.47,0.53,-0.5338417467498091,Stairs up
0.9508390204809304,0.78247070312,1.27209472656,0.018006939825241833,0.13379928368504054,0.037985158519127905,-0.12683105468,0.14331054687,0.003254176298338626,0.056879316703852226,-0.003080146257616279,-0.15673828125,0.13220214843,0.008004482089687456,0.08920731137703627,0.9575208516097674,0.78996291577,1.27918680896,0.017900543481303703,0.133403412827734,971.3372545618865,971.3074177598,971.37815710919,0.00033789753040252884,0.07073934939000992,0.018328475383319057,-0.00027409917405609964,-0.6601874650358011,0.43,0.57,0.13642687397221587,Stairs up
1.0081531798877126,0.79150390625,1.25817871093,0.013738867219441807,0.11682923735806751,0.04650799121594771,-0.12683105468,0.21179199218,0.011363430535402815,0.1062504576347308,0.006035698784575166,-0.15673828125,0.14221191406,0.008432788457821997,0.09152962467634065,1.0189684154418301,0.79811099444,1.2626267818,0.013680945946710932,0.11658270883517335,971.3024932548784,971.27660231119,971.32041269837,0.00017136883804837695,0.043810387179973986,0.013047941610972776,-0.0002288319159056114,-1.2343548744333266,0.44,0.56,-0.240846000289429,Stairs up
1.0128893955117986,0.75854492187,1.36413574218,0.029062660883771112,0.16986340686716772,0.08288047296431654,-0.14270019531,0.318359375,0.010944369233975739,0.10423834594172415,0.022092091949280575,-0.11572265625,0.12438964843,0.004776778960940248,0.06886518456139133,1.0236441540030938,0.76963027084,1.38349478533,0.030133215965996347,0.1729636673975846,971.2728546558341,971.24362729456,971.30746130495,0.00034330961204730523,0.06383401038999637,0.018461846026961222,-0.00039215426510715197,-1.0081463881663597,0.36,0.64,-0.24079695712290128,Stairs up
0.9595161851949612,0.81091308593,1.25256347656,0.013654824532509399,0.11640005661314864,0.06890727198302325,-0.14270019531,0.28833007812,0.016505165983376934,0.1279735088221386,0.006227478499457366,-0.20275878906,0.19128417968,0.012647799444639266,0.11202568673167809,0.9768329062487596,0.81167459744,1.2557027016,0.013839002255501227,0.11718243540842323,971.2277010681923,971.207794498,971.24362729456,4.676620176159095e-05,0.03583279656004379,0.00681202415334566,-8.802162499158148e-05,2.1954706903437406,0.4,0.6,-0.22677108073245283,Stairs up
0.5957800292936999,0.33996582031,1.10119628906,0.02547602330041302,0.15881203690970308,0.6461901855434999,0.27783203125,1.04663085937,0.04845095044882035,0.21901242189504264,0.28766113280999994,-0.08227539062,0.56909179687,0.02233218378462401,0.14869049043828514,0.9572257717088998,0.76775768596,1.38600719087,0.03462617622385482,0.18514835797709972,971.1816955904915,970.98154135291,971.52946636634,0.025215478473747274,0.5479250134300173,0.15799785976085184,-0.0027076817629375013,-0.43967141386847963,0.49,0.51,0.5977586709757948,Stairs up
0.9481970214807999,0.77026367187,1.27941894531,0.020141602662712397,0.14120972571351192,0.32697998046429994,-0.03820800781,0.67370605468,0.03044066368279488,0.17359797535100152,0.1316113281218,-0.08227539062,0.3193359375,0.010353363137867704,0.1012414416456474,1.0287711631914,0.82166946437,1.31785407661,0.025526472561552452,0.1589692040488878,971.0860740911471,971.00631491671,971.20187287789,0.0027962544069307996,0.1955579611799294,0.052614559419057114,0.0003571914730981627,0.11437788492579504,0.48,0.52,0.8070368199800511,Stairs up
0.9482763671839,0.72973632812,1.24536132812,0.025030806534324827,0.15741822788032386,0.30983032226229995,0.13977050781,0.55822753906,0.009178826801332102,0.09532595938839945,0.028494873044999994,-0.10900878906,0.1552734375,0.006239122891057291,0.07859218575753392,1.0045259180878003,0.7804314044,1.27777354274,0.02727959949265745,0.16433746833187762,971.0738936588244,971.03455973114,971.10663884551,0.00032202174875590816,0.07207911437001258,0.01785501417720941,-0.0005331995090500728,-0.5755339078276767,0.57,0.43,0.1268163841937862,Stairs up
0.9481420898399,0.72009277343,1.25,0.02600978732733202,0.1604670977305276,0.35397705077669994,0.11889648437,0.51147460937,0.009385769289023202,0.09639456206722954,0.029337158202300002,-0.0986328125,0.1943359375,0.005160621336542506,0.07147737490407073,1.0199232672164,0.80746651365,1.29997971042,0.025293928304527202,0.15824344858945008,971.0177014880438,970.99315458895,971.04023865667,0.0002481658267188818,0.04708406771999307,0.01567431556565367,-0.0005156172208279601,-1.4108157250256934,0.45,0.55,-0.1910779293144259,Stairs up
0.9598657226525,0.71398925781,1.28564453125,0.032092813162995365,0.17824669711207952,0.2855712890584,0.07092285156,0.40954589843,0.008229413417804003,0.09026139420386749,-0.007487792969,-0.25134277343,0.12255859375,0.008937572655688402,0.09406485490942681,1.010667594196,0.80068665852,1.31493485056,0.030573180794905303,0.1739754263882007,970.971071654526,970.89982622208,970.99315458895,0.00029130343999921173,0.0933283668699687,0.016982061288289465,-0.0002882733858160477,1.6650110857241405,0.29,0.71,-1.126039403063883,Stairs up
0.9413159179650998,0.75756835937,1.29956054687,0.02806080791083664,0.16667393267013372,0.2393505859339,0.12121582031,0.33129882812,0.004490029667321551,0.06667180341529945,-0.03320678710920001,-0.22277832031,0.13220214843,0.011773495497116537,0.10796184762287728,0.9800069612029999,0.78204872309,1.31982594051,0.028216663483297818,0.1671361625994352,970.900328677513,970.87454335266,970.91529710135,0.0001025422542029634,0.04075374869000825,0.01007555614648312,-0.00017785687121763295,-0.6542219594019065,0.36,0.64,-0.4403791210439052,Stairs up
0.9583386230431998,0.77746582031,1.25610351562,0.01721895743338255,0.13056327147804134,0.25247314452810005,-0.07434082031,0.63317871093,0.024091732206530915,0.15443709037813944,-0.0351684570311,-0.21423339843,0.15844726562,0.007237851468591703,0.08464911667528366,1.0059567120799,0.82918712592,1.2892992438,0.01970361071966552,0.1396659393426646,970.8586901738487,970.8296204121,970.88348971762,0.00019596369010997845,0.053869305520038324,0.013928533778143293,-0.00043626957583170554,-0.4361180745274451,0.49,0.51,-0.11596849399811394,Stairs up
0.9859338378864001,0.78344726562,1.3037109375,0.021845522509889675,0.14706144050970935,0.32723144530879983,0.14367675781,0.55651855468,0.014330699853269888,0.11911084272532534,-0.0192028808591,-0.28662109375,0.10827636718,0.008009911093284154,0.08904949175796184,1.0488260541925,0.85442781042,1.34846243586,0.023457456860384772,0.15239055840760254,970.8344276103927,970.8189055447,970.84547009014,3.845199273473053e-05,0.02656454544001008,0.006169884343112375,-7.991965029407959e-05,0.28574067004488546,0.68,0.32,0.1342625101474431,Stairs up
0.8635278320273,0.55200195312,1.38610839843,0.04543256698815433,0.21208074245030542,0.39519897460539993,0.10583496093,0.68237304687,0.015632450416576658,0.12440307838800008,0.0467871093755,-0.13256835937,0.33190917968,0.018709692111190963,0.13609774131145252,0.9735513552029,0.79464923203,1.45864814244,0.035582122246892764,0.18768670977036128,970.821226044019,970.77604316344,970.91320345861,0.0016729111345459042,0.1371602951700197,0.04069621632535935,0.0004569595069959777,0.17987885439257312,0.64,0.36,1.2174168383837356,Stairs up
0.9436132812466,0.7255859375,1.24487304687,0.0222255363850009,0.1483350296496107,0.2793249511687,0.02197265625,0.61730957031,0.022543406503192948,0.14939200928483765,0.03942138671689999,-0.23669433593,0.24523925781,0.014456763959171575,0.11963359193629464,1.0013544645267998,0.77362583256,1.31006599279,0.02616685330294634,0.16095087688458512,970.7354325237325,970.67827403081,970.81991253132,0.0014620758654201767,0.14163850050999827,0.03804543476904916,-0.0006110834944778956,-0.5193788604133132,0.6,0.4,0.501258785615003,Stairs up
0.9795251464804999,0.78149414062,1.40844726562,0.02169213386960555,0.14654423404183972,0.25911376952860005,0.02062988281,0.45703125,0.012278271510152533,0.11025193329393825,0.01325805664,-0.236328125,0.17419433593,0.010622967039738166,0.10255114513910016,1.0245608292892001,0.79440223148,1.43638756976,0.021421999993908623,0.1456289119439184,970.6857112088941,970.66855360948,970.70974630821,0.00010904050973544748,0.041192698730014854,0.010389903976365375,-0.00022917970329294958,0.39462438473699857,0.49,0.51,0.8273459676403752,Stairs up
0.9631689453088998,0.78479003906,1.22888183593,0.015941308026389076,0.12562601221930586,0.24809082030849997,0.08618164062,0.54345703125,0.012915171011482646,0.11307528156660862,-0.0835986328117,-0.28112792968,0.08923339843,0.011147293393470103,0.10505151336147138,1.0105160738711998,0.845824887,1.27718397768,0.014841619082807147,0.12121552248775351,970.6607767833717,970.63698103399,970.68992205423,0.00018778123779162456,0.052941020240041325,0.013634640641165001,-0.00036821382869546456,-0.8076196395360635,0.45,0.55,-0.07849413958339717,Stairs up
0.9804125976529999,0.7451171875,1.25561523437,0.02298501086322143,0.15084813805476424,0.14442504882579998,-0.08190917968,0.28942871093,0.009241242497265259,0.0956495168429648,-0.15685913085640002,-0.46765136718,0.03063964843,0.017018161185227587,0.12979976723159142,1.0146393322204001,0.77869403439,1.35860609912,0.025720390185749505,0.15957188437783146,970.6149713856253,970.57551272127,970.63981867582,0.00031522848818356787,0.0643059545500364,0.0176656786821716,-0.00046050372562630114,-0.6495046246476073,0.57,0.43,-0.33167403281240854,Stairs up
0.9985986328076999,0.74499511718,1.26184082031,0.024156666006825922,0.15464507540415784,0.1379467773402,-0.02734375,0.25354003906,0.005736567402011738,0.0753604785546882,-0.05587402343480001,-0.23034667968,0.12475585937,0.005067574279141647,0.07083006802446423,1.0171244762888,0.76219966085,1.27556223393,0.024090169947320633,0.15443208296156413,970.55653846947,970.50970063075,970.5899060433,0.0004915595623628493,0.08020541254995806,0.022060008312310784,-0.0005358839751845643,-0.7964765795340258,0.49,0.51,-0.2301183043291653,Stairs up
0.9641699218707999,0.75537109375,1.34704589843,0.027519494138191512,0.16505847205402574,0.17598876952880002,-0.28747558593,0.47875976562,0.04003314432992779,0.19907991582936868,-0.0438891601542,-0.23657226562,0.17578125,0.010011960285598458,0.0995582275994429,1.0083615147341998,0.79514608571,1.38855101197,0.022745406048847235,0.15005982802988532,970.5070564360992,970.46409214562,970.56713658031,0.0009639936568222313,0.10304443468999125,0.0308926159503207,-0.0007125936504114538,-0.6863195628258025,0.45,0.55,0.41381924460989133,Stairs up
0.9943408203094998,0.78747558593,1.275390625,0.024826041833128476,0.1567730251503657,0.07921020507610001,-0.23498535156,0.22839355468,0.01054546083283127,0.10217634865517047,-0.036519775390399994,-0.20678710937,0.08715820312,0.005757516397925183,0.07549795516400382,1.0061838514373,0.8070086824,1.27966641046,0.02488222574958254,0.15695032173298248,970.449527234381,970.41955527924,970.50158943549,0.0003805559419276308,0.08203415625007437,0.019410058797138006,-0.0004271041585226956,0.8369028341533467,0.57,0.43,0.7694071604925788,Stairs up
0.9790478515579,0.74768066406,1.27429199218,0.026418394970089545,0.16172263607914833,0.055007324216899994,-0.13049316406,0.28308105468,0.011849854563855755,0.1083113845272841,-0.0101489257819,-0.12719726562,0.10009765625,0.004094459498339351,0.06366722000649909,0.9883747989301002,0.75076353427,1.27611939783,0.02698771801421318,0.1634559293328665,970.4039099847515,970.3645636434,970.42905162968,0.00026604219104962493,0.06448798628002805,0.016229040918647308,-0.00032857256208499466,-0.4751784746563965,0.45,0.55,-0.37538718450376457,Stairs up
0.9758105468711,0.72302246093,1.31884765625,0.02581170493940793,0.15985489635921024,0.1126940917944,-0.11450195312,0.228515625,0.008895948587526318,0.09384555983982969,-0.05235839843440001,-0.24865722656,0.12121582031,0.007216942333988803,0.0845267585481007,0.9924478103228,0.747363812,1.33010700659,0.024444724531225422,0.1555643830891672,970.3702171686035,970.34173668307,970.4047779647,0.00025062921673865577,0.06304128162992129,0.015751918123557817,-0.00031993621561798836,-0.44268217135274,0.44,0.56,-0.057273189925340015,Stairs up
0.9849511718713001,0.75122070312,1.32275390625,0.02997814286841524,0.1722740881262504,0.062380371092100005,-0.09423828125,0.2021484375,0.008286904198371822,0.09057612906493688,-0.0139550781246,-0.18908691406,0.10815429687,0.006888226691802579,0.08257932201758836,0.9954975355565998,0.76644181451,1.327584555,0.028183094540085114,0.16703671331382292,970.3244923555995,970.30087950262,970.40839620315,0.00019182383667524735,0.10751670053002726,0.013780624017383787,-0.00020673777170979255,11.731040834692696,0.56,0.44,2.209307645817976,Stairs up
0.9460229492144999,0.75646972656,1.13854980468,0.011521408467537657,0.10679978643640763,0.16880493163879998,-0.18469238281,0.39562988281,0.018484703631724404,0.13527696254502153,-0.09759155273140002,-0.34362792968,0.05993652343,0.010335428080621021,0.10115371372230884,0.9802373123523997,0.82235700049,1.18440084982,0.011913346070889721,0.10860116302407088,970.2932392603543,970.25980340916,970.40839620315,0.0010690625046896553,0.14859279399001935,0.0325326279240205,-0.0002960629741384136,2.4754660636037373,0.64,0.36,1.5061610176145754,Stairs up
0.9753247070271999,0.7978515625,1.17736816406,0.012694193865287706,0.1121037551852516,0.1627319335912,-0.125,0.4267578125,0.01400319750253929,0.11774194463959689,-0.09258056640359999,-0.25805664062,0.00549316406,0.005649705179998525,0.07478775386517862,1.0023594777592002,0.8269071531,1.20630093427,0.013747707629156688,0.11666289278457448,970.2940715228317,970.27169675463,970.35415982694,0.00048167704748387416,0.08246307230990624,0.021837130695424145,1.2098732359630802e-05,0.3274721524254329,0.57,0.43,1.0596026608970885,Stairs up
0.9656811523401998,0.76940917968,1.21411132812,0.01874447290933239,0.13622418353669463,0.1771582031206,-0.00817871093,0.380859375,0.008627367163959057,0.09241803661796472,-0.126635742184,-0.37902832031,0.00610351562,0.012590908040858313,0.11164675974003782,0.9988878699362,0.78768856046,1.28088369017,0.021967547517926643,0.14747159741030602,970.2960085749032,970.26550160151,970.37340423609,0.0009917240807559141,0.10790263458000027,0.03133379708794252,2.3696313510174197e-06,-0.02403351075248139,0.64,0.36,1.1223479041876248,Stairs up
0.9786767578088,0.74938964843,1.23583984375,0.01829577963791342,0.13458388403346921,0.18151611327740003,0.02026367187,0.44287109375,0.010512600336461118,0.10201702962298259,-0.1167626953098,-0.22253417968,0.0166015625,0.003695269570082601,0.06048402164523929,1.0094478216936,0.80121683508,1.26698085779,0.01776114242127082,0.1326029071968564,970.2979654332707,970.25970081815,970.37334740352,0.0009042810481399864,0.11364658537002015,0.02992053204170318,0.00017336972955673695,0.785763312239026,0.63,0.37,1.1576439456041714,Stairs up
0.9929785156218,0.80456542968,1.25756835937,0.014996117558106455,0.12184480449541289,0.1941235351522,0.02868652343,0.3779296875,0.006669016685245796,0.08125470151562515,-0.04305419921860001,-0.16650390625,0.07666015625,0.006543160236965448,0.08048433782168922,1.0186665075484,0.82724610059,1.27943983953,0.015948183222509103,0.12565309940580063,970.283286689911,970.26235759721,970.31453970273,0.0002254962863164861,0.05218210552004621,0.014941262445098849,-5.441475545281509e-05,-0.8278452519559871,0.49,0.51,0.3669327003511287,Stairs up
1.0008398437462998,0.75109863281,1.33032226562,0.02944030734021535,0.17072171586184692,0.0741772460906,-0.16088867187,0.21862792968,0.00988408658797418,0.09892040093981846,-0.0046301269526,-0.12182617187,0.07250976562,0.0031591458916539446,0.05592454231138065,1.0104051523024997,0.75934959141,1.33599552786,0.02863053269218057,0.16835743929288888,970.2574519771371,970.22873373969,970.2886831222,0.00028267934848513044,0.05994938251001258,0.016728794188472736,-0.0005191164026552893,-0.826343520641557,0.53,0.47,-0.013225076049951033,Stairs up
0.9804541015589,0.79626464843,1.30773925781,0.01548304229084349,0.12380715596416492,0.10343383788690001,-0.11486816406,0.27783203125,0.0064108850541770915,0.07966665678711088,-0.0144006347656,-0.13806152343,0.06884765625,0.004140215526192657,0.06402197568749914,0.9915643937738001,0.79753547299,1.33057743732,0.015755884894759115,0.12489325860834734,970.2100730644961,970.17716839349,970.23332708357,0.0001968518483838778,0.05615869007999663,0.013960061959032955,-0.00035584833194917716,0.4608478841420576,0.45,0.55,-0.5928664355923228,Stairs up
0.9902294921818,0.81433105468,1.26159667968,0.018520608068658344,0.13540827887530274,0.16714843749720004,0.05859375,0.380859375,0.00692625240844661,0.08280694345501556,-0.0270288085936,-0.15490722656,0.0869140625,0.004743853054408273,0.06853039124260266,1.0099530269696002,0.83164783831,1.27227592733,0.019300296518118907,0.1382291342407154,970.1774328363308,970.14242682553,970.23862341852,0.0006835185790312257,0.09619659298994065,0.02601313885791012,-0.0006880009997784019,0.11735765911118756,0.57,0.43,0.6821406391150847,Stairs up
0.9877514648403999,0.73547363281,1.337890625,0.03322879510146729,0.1813739428651553,0.1480786132774,0.0537109375,0.23046875,0.0019486223868853433,0.043921932596556926,-0.028879394531600003,-0.15380859375,0.07653808593,0.004818970560511465,0.06907083939627742,1.0028869112212,0.75701251523,1.35104911623,0.032554059495062945,0.17952303167034672,970.1106309623673,970.07243149614,970.14776460643,0.00042593112785294736,0.07533311028998924,0.020534649170960234,-0.0005896255640069684,-1.3398603717516409,0.53,0.47,-0.00520401110129503,Stairs up
0.9613305664024,0.75671386718,1.23937988281,0.023404503886197504,0.1522184576433999,0.248840332028,0.01965332031,0.45739746093,0.015845363940609373,0.12524739638492802,-0.0162182617182,-0.27319335937,0.25415039062,0.014348535229824596,0.11918493981005465,1.0091274792082001,0.79732348406,1.25727252742,0.021277929787491927,0.14513838392932796,970.0635416089975,970.0038280669,970.11055386878,0.0006551998225070293,0.10672580187997482,0.025468565414682447,-0.0005041028252938349,-0.12004219946311956,0.52,0.48,0.0801864454504748,Stairs up
0.9369970703088001,0.70849609375,1.18701171875,0.023966147225053514,0.15403404088967795,0.21067138671539998,-0.04345703125,0.47143554687,0.014497730882268405,0.11980297814931698,0.08012207031099998,-0.09704589843,0.31286621093,0.012621223179590248,0.11178108492850812,0.9760476040791999,0.7503870323,1.25713404133,0.026940216103095483,0.16331201407754584,970.000774733758,969.95490275872,970.10631210501,0.0014208061259643548,0.15140934629005187,0.03750464057559693,-1.501156398192591e-05,1.1575677452189455,0.52,0.48,1.2459972353514408,Stairs up
0.9112792968706,0.62707519531,1.20495605468,0.023743941326350316,0.1533183026030709,0.32924316405980003,-0.07092285156,0.58679199218,0.024581283848383033,0.15599830450969396,0.17833496093520004,-0.24877929687,0.52075195312,0.03387493005864229,0.18312886380375942,1.0123008291167999,0.7428280325,1.33425230963,0.027534910432917475,0.16510469808151523,969.9419126383159,969.80561925398,970.23440270036,0.012410894016628217,0.4287834463799527,0.11084577157682622,-0.0019352329803158815,0.5304848494911729,0.69,0.31,1.072793351051273,Stairs up
0.9788647460906,0.74633789062,1.33032226562,0.02833694701872326,0.16749202234296423,0.1595288085908,-0.20727539062,0.40393066406,0.015572478078224835,0.12416421907072338,0.12197509765299999,-0.11315917968,0.42370605468,0.014405378361560459,0.11942078788027173,1.0135156836360002,0.76189562382,1.40878972019,0.029314313943578883,0.17035601194012231,969.8955727037473,969.83593257416,969.9493227811,0.0009400434671308403,0.1133902069400392,0.030506442474656593,-0.0003723839769822665,-1.045108038644419,0.52,0.48,0.15986329589162146,Stairs up
0.9658325195272,0.68005371093,1.33325195312,0.04279850543746801,0.2058410075351686,0.254260253902,0.09338378906,0.64050292968,0.015098440074895239,0.12225978764150658,-0.049335937498399984,-0.16137695312,0.06774902343,0.004680423639861026,0.06807069416028028,1.0098550985841999,0.70977463829,1.35605792671,0.042483881356964515,0.20508301378562505,969.8511716985017,969.82939557445,969.88464305807,0.00027708457936800255,0.0552474836199508,0.016562419315254717,0.0004765484738142024,-0.8355108621993921,0.58,0.42,0.6730710218229948,Stairs down
0.9482035117533663,0.71752929687,1.21960449218,0.021124665120360667,0.14462195552598187,0.27414333229841586,0.17297363281,0.44445800781,0.004047609747629934,0.06330508987114697,-0.009748704362871287,-0.13354492187,0.16088867187,0.0070037922345881146,0.08327333160753168,0.9928146430567328,0.78120464193,1.29462731004,0.020721241100174356,0.14323435445870636,969.8995234371622,969.8779733727,969.91853529797,0.0001557973574196953,0.04056192527002622,0.012419935963056773,0.00038212828469383076,-1.1041543784036734,0.53,0.47,-0.1453819293069331,Stairs down
0.9418737792923,0.67102050781,1.26647949218,0.02897607198108138,0.1693703376074765,0.26941528319889996,0.14050292968,0.46179199218,0.006901148706628439,0.08265674333992451,-0.0112768554686,-0.17150878906,0.20336914062,0.007540539291956208,0.08640100635430496,0.9868445581986002,0.71071196741,1.29474169137,0.02925189772169029,0.17017455375135668,969.9391613295297,969.89086991885,969.97308359726,0.00047902489982103863,0.08221367841008487,0.021776929324926142,0.0006854208641805923,-0.29077334089194595,0.41,0.59,-0.6209712984521504,Stairs down
0.9394025706244443,0.60595703125,1.45361328125,0.04400197219188581,0.20870435507269897,0.284516305629798,0.15270996093,0.71520996093,0.01950281922009661,0.1389453887185762,-0.07100299873464647,-0.22229003906,0.05908203125,0.005385820403695636,0.0730165609803398,0.9921937773354544,0.62871473962,1.47951436545,0.05274719895353393,0.2285047022800719,970.0019459285062,969.96673791488,970.05399493169,0.00039158625116072387,0.08725701680998554,0.019688342603742266,0.0006622117021918156,-0.5053158051388134,0.45,0.55,0.047214353265111045,Stairs down
0.9551928710895998,0.64282226562,1.45361328125,0.048237351100744515,0.21852912297846497,0.2612426757793999,0.18762207031,0.55126953125,0.008475051534355826,0.0915985863374117,-0.0159106445296,-0.20300292968,0.11010742187,0.005196051531055902,0.07172231881182693,0.9970048398506001,0.69584879391,1.47951436545,0.048651539573986304,0.21946531429418736,970.0782550762149,970.04137038936,970.12147708151,0.0005376196235936971,0.0801066921499114,0.023070401543054255,0.0007345113809328001,-1.1747445269362964,0.38,0.62,0.007511402507489775,Stairs down
0.9647338867152001,0.61254882812,1.39392089843,0.050738912790461534,0.2241239024793137,0.2670336914026,-0.01245117187,0.72241210937,0.026801073918174132,0.16288972705174623,0.0137573242182,-0.21826171875,0.2275390625,0.0078431399478662,0.08811758365041303,1.0131589970284,0.62936603727,1.41464087212,0.06085441476618252,0.2454503424697564,970.1496216930382,970.10571714559,970.19408291923,0.0007086335658055218,0.08836577364002096,0.026486736872394577,0.0008440371349795472,-1.0105399016276932,0.54,0.46,0.09509076691219939,Stairs down
1.0023388671836,0.73046875,1.41735839843,0.029594322864039367,0.17116769448525904,0.25840820312080004,0.07678222656,0.54370117187,0.012195500243670974,0.10987968529821272,-0.020961914061,-0.10388183593,0.10974121093,0.0037285884457986924,0.060756090734515704,1.0420580064184002,0.74731148211,1.45433487823,0.031389641056705164,0.1762831377249058,970.2104184931508,970.18626703315,970.23542519751,0.00022489320419137652,0.04915816436005116,0.014921269119932887,0.0002976897134853003,-1.190525779459841,0.58,0.42,0.28146239597671785,Stairs down
0.9433740234332,0.62902832031,1.41455078125,0.03960130831205717,0.1980032707531282,0.28099731445020004,0.10803222656,0.58447265625,0.010429439296217348,0.10161272018431144,-0.0442285156229,-0.22998046875,0.1572265625,0.0073522091149667386,0.08531522152474945,0.9945483039995,0.66389550745,1.4188843863,0.03894242280637359,0.1963491751403857,970.2801655838863,970.24813047094,970.31681942556,0.0004430709335895959,0.06868895461991542,0.02094373950023491,0.0006602883790827968,-0.9914280233266353,0.58,0.42,0.22660182330608367,Stairs down
0.9723657226524,0.6806640625,1.3466796875,0.02563009502312484,0.15929153798269885,0.23732055663690002,0.08666992187,0.39477539062,0.004474277344351642,0.06655474867286425,-0.05911254882780002,-0.22155761718,0.07836914062,0.006978935476834484,0.08312127358303732,1.0075437192271002,0.71411283052,1.41927908157,0.02715006791151742,0.16394684270336604,970.3332771067559,970.30818295136,970.35079725677,0.00012298675736925155,0.0426143054099839,0.01103435044737836,0.00017428752586801563,-0.6813114796062427,0.4,0.6,-0.4237152727181083,Stairs down
0.9645190429647996,0.759765625,1.30749511718,0.029733045600515585,0.17156839786076697,0.26281005859089995,0.10681152343,0.5185546875,0.01218070701537259,0.1098130226576924,-0.0177722167955,-0.16711425781,0.1162109375,0.005640886375901601,0.0747293617806454,1.0063570134034,0.78234912802,1.39177927589,0.034350118186391644,0.18440883114571202,970.364878533957,970.330359499,970.39859097414,0.000353650013517328,0.06823147514000993,0.018711320460677132,0.0006163487550407093,-1.0589596993017745,0.58,0.42,0.16960516360558914,Stairs down
0.9664910949061385,0.62463378906,1.45043945312,0.05815775860092626,0.23996237040177337,0.29654142171574255,0.12438964843,0.70251464843,0.018101265994012537,0.1338732442970823,-0.0022286896663366337,-0.10278320312,0.14855957031,0.0033195825376006118,0.057329882118865215,1.0182514733349508,0.6535021268,1.48034913578,0.06464147012321263,0.25298508961505467,970.4381377419118,970.39859097414,970.48039208365,0.0006322803456824311,0.08180110951002462,0.02502039456603414,0.0008187412636463309,-1.1487152963862204,0.5,0.5,0.1401129791056234,Stairs down
1.0063745117152,0.69226074218,1.43774414062,0.054054010269663076,0.23132978659689818,0.26885864257450004,0.04467773437,0.66589355468,0.023287331363809595,0.15183694560340544,-0.0806579589818,-0.27331542968,0.05151367187,0.009257090023666254,0.09573149493990779,1.0572102531521002,0.71622960149,1.44709507069,0.060221476598978904,0.24417055889887526,970.5111734792399,970.47967598704,970.54266868107,0.000431775467258362,0.06299269403007202,0.020675050485688747,0.0006103992068883468,-1.439786615007173,0.45,0.55,-0.2676053814082434,Stairs down
0.8616552734340999,0.12414550781,1.35009765625,0.10551204731956176,0.32319796850593935,0.4770727539024,0.12878417968,0.84484863281,0.0455514615176893,0.21235806295620707,-0.08611328124730004,-0.3486328125,0.06066894531,0.01151875694569029,0.1067874963478093,1.0217981321823002,0.51455366213,1.56519052602,0.09001563491536463,0.2985221575799877,970.5653605728386,970.5328637322,970.60244962963,0.00044017012488039035,0.06958589742998811,0.020875067032984265,0.0004261708588854673,-1.1747105084493104,0.49,0.51,0.18202844732808085,Stairs down
1.0040869140584001,0.75073242187,1.39050292968,0.03202766977143869,0.17806569875673503,0.2829980468708,0.13916015625,0.49975585937,0.008023636172492047,0.08912575279214828,-0.0313037109348,-0.15222167968,0.08947753906,0.004334286101733371,0.06550529170010647,1.0502572864419997,0.78563012583,1.48420295722,0.03046435983510393,0.1736655297885936,970.6270123992505,970.58773495736,970.662724318,0.00028248670849715285,0.07498936063996098,0.016723093057571057,0.000487041555294771,-0.7537298985774261,0.53,0.47,0.14232192136649463,Stairs down
0.9081809303944445,0.21118164062,1.36169433593,0.07074360773355517,0.2646299790977142,0.34645897450636365,0.06811523437,1.36657714843,0.06133703725559144,0.24640915409681247,-0.04773195825383838,-0.18920898437,0.10778808593,0.005444096660668084,0.07341052911747606,0.9958627121533333,0.25349157657,1.91191275406,0.09243147584303568,0.30248607335197086,970.6555856945135,970.62492137425,970.69535462561,0.00037652241781371766,0.07043325135998657,0.019305935902414174,0.0005411635867752883,-0.6912735700916355,0.63,0.37,0.36015531175065224,Stairs down
0.9730529785119001,0.41345214843,1.55883789062,0.05897641403977687,0.2416332963384374,0.3116711425745,-0.23937988281,1.36657714843,0.05457869722772565,0.23244980158186498,-0.0090368652338,-0.16491699218,0.12548828125,0.005692927058758093,0.07507328278535921,1.0489969440802,0.56219879669,1.91191275406,0.06233700433096594,0.24842229023913348,970.7024832245618,970.65096028352,970.73334342579,0.0004389909055273131,0.0823831422700323,0.020847086042707266,0.00047123648986958146,-0.6057758200011922,0.46,0.54,-0.5161884471829224,Stairs down
1.0162634277309,0.86193847656,1.18371582031,0.008060052194706816,0.08932777660257613,0.25859130858949997,0.10961914062,0.62390136718,0.016131257402502538,0.12637224706587089,0.0846069335932,-0.07568359375,0.333984375,0.016272436939650314,0.12692404252250164,1.0665689923452,0.88790064452,1.25939568107,0.009402875023284376,0.09648236249725403,970.7154789011861,970.70037091882,970.74341301941,0.00013386112941827177,0.04304210059001434,0.011511842516473591,0.0001817679262400346,0.3802681907401291,0.52,0.48,0.8735412956283234,Stairs down
0.9734631347617,0.72534179687,1.21960449218,0.017377465329685704,0.131162840303147,0.2935546874971,0.15515136718,0.568359375,0.013560983267667243,0.1158679137422892,-0.07774047851509999,-0.31860351562,0.06555175781,0.010276020588688808,0.10086258167825132,1.0304071855135,0.8162434338,1.26761917494,0.01910279578532645,0.13752006336339867,970.7164711804216,970.68817660113,970.76805084208,0.0002610212765518765,0.0798742409500619,0.016075169168203417,0.00013719417261701228,2.276109521317582,0.6,0.4,0.8897584149428314,Stairs down
0.9657263183548999,0.77856445312,1.34313964843,0.022996900916922074,0.15088714957793076,0.30520874023089994,0.15625,0.57397460937,0.011750676973430905,0.10785717502186211,-0.10318115234250003,-0.36010742187,0.03601074218,0.011764849863547481,0.10792220051922591,1.0264538951729,0.83352265988,1.45624445824,0.029157325087964432,0.16989924024869796,970.7203083592738,970.7012252344,970.75450545712,0.00023603143059246283,0.05328022271999089,0.015286304860447414,9.591983973725911e-05,0.07496875808370884,0.6,0.4,1.0722390326950604,Stairs down
0.9606311035110999,0.77038574218,1.14611816406,0.011093381828563738,0.10479717558349605,0.26750366210480003,0.02380371093,0.42626953125,0.009254681912099673,0.09571904247838398,-0.09467529296790002,-0.29919433593,0.02917480468,0.008018633686751386,0.08909796490315518,1.0088157205297998,0.82574565525,1.22143046568,0.01384607054303468,0.11707950220941467,970.7210855382884,970.70401614779,970.7455349948,0.00015769889480845157,0.04151884701002473,0.012494875183865066,-3.759280641485077e-05,-1.0257174910698368,0.7,0.3,0.5900760344918133,Stairs down
0.9551083404199999,0.76354980468,1.18383789062,0.01521533113903166,0.12273827559514983,0.2205460047923762,0.08215332031,0.38220214843,0.005134518842929022,0.07129994405819687,-0.1186124593867327,-0.25036621093,0.01831054687,0.005236058565399127,0.07200150277171494,0.9929572367289111,0.83557401758,1.24252812495,0.014453005502959877,0.1196240211603595,970.7184462897607,970.69511558152,970.74407217814,0.00012636922098944347,0.048956596619973425,0.011185617577210809,-7.16471386997744e-05,0.6214626270494703,0.54,0.46,0.6344185127771945,Stairs down
0.9964599609340001,0.66247558593,1.41076660156,0.05559573871936211,0.23460558674543217,0.2157031249964,-0.0341796875,0.43249511718,0.011260052497987621,0.10558149446284489,-0.06741699218479999,-0.3154296875,0.14624023437,0.012265954980468934,0.11019662168444297,1.0319005425099996,0.6903659408,1.48140528907,0.05809812304803726,0.23982731666254553,970.7560607197147,970.71627991217,970.79456459754,0.0005425135809165285,0.07828468537002209,0.02317516871799132,0.000687897672060791,-1.0005412170980068,0.41,0.59,-0.13041488679767702,Stairs down
0.9778320312463998,0.67114257812,1.31176757812,0.03429304830956309,0.18425557746366175,0.165742187496,-0.02587890625,0.4482421875,0.009476907662714536,0.09686144014047794,-0.0817871093728,-0.27197265625,0.12329101562,0.008976849642216893,0.09427131666522284,1.0038308415748,0.69753878716,1.32960780338,0.03521016602991551,0.18670314504479124,970.7941451815899,970.76721731589,970.82414564157,0.0002471792480210681,0.05692832568001904,0.01564312806125608,0.0005125612229986097,-0.7784876706451227,0.45,0.55,0.12035309997327824,Stairs down
0.916015624996,0.65368652343,1.25451660156,0.039392571256640745,0.19748074727444784,0.2277832031204,0.09704589843,0.42736816406,0.006292995780439109,0.0789307660081588,0.000546875,-0.20178222656,0.16723632812,0.00805883229329341,0.08932101639793669,0.9505766627420001,0.68794233007,1.32799178184,0.04099098537197787,0.2014474510095824,970.8623494663942,970.81895756294,970.9840565457,0.0019829650546991733,0.16509898276001422,0.04430728387243097,0.000572435613845617,1.9188720506543522,0.61,0.39,1.642497068856033,Stairs down
1.0171923828084,0.63537597656,1.53979492187,0.06875260391603968,0.2608928475004236,0.22993652343359997,0.11901855468,0.48510742187,0.008025572613037333,0.08913650703784033,-0.05926757812279998,-0.27990722656,0.13037109375,0.007908904335318257,0.08848624351821628,1.0515857076799997,0.65805774294,1.54988078247,0.06976919568682738,0.26281458051249573,970.942416862088,970.90008375632,970.99446238574,0.0007184609108612341,0.09437862942002084,0.02666976381133927,0.0008586608763544428,-1.251898822227733,0.41,0.59,-0.07502317718882638,Stairs down
0.9514862985284849,0.63732910156,1.41589355468,0.04651217834414979,0.21457483161096866,0.23823932685898994,0.07397460937,0.45166015625,0.008108462655288211,0.08959106535868118,-0.06144945549121212,-0.28833007812,0.06774902343,0.007067305037187648,0.08364160518318677,0.9903459846840404,0.66412874901,1.4265898776,0.04661066966550462,0.21480189668715335,971.036477623068,970.99446238574,971.10790914413,0.0007328137333334272,0.113446758389955,0.026933465696246137,0.0008944694278725841,-0.699676554257119,0.49,0.51,0.18634505629946724,Stairs down
0.9497521972616001,0.548828125,1.37414550781,0.04973998625343042,0.22190670650274658,0.28791015624650007,-0.021484375,0.52490234375,0.0176140402061358,0.13205264027680189,0.0131567382813,-0.30041503906,0.49047851562,0.024177745008022583,0.15471253200029517,1.0136008812509,0.66184748193,1.44741854458,0.04881242557130918,0.21982789021322133,971.121390328374,971.07319650627,971.25992639477,0.0018126099463187993,0.18672988849994,0.04236134850138285,0.0009509604474470759,2.7338620285021618,0.77,0.23,1.8375083328813364,Stairs down
0.6952905273404998,0.32556152343,1.2724609375,0.06325790929716744,0.2502505348729464,0.5170922851530999,0.2265625,0.98645019531,0.03949959229346046,0.1977488214137466,0.38224243163729993,0.09362792968,0.6708984375,0.02749000446219626,0.1649700106612541,0.989442527113,0.65350031404,1.41635754896,0.04734458772693448,0.21649744074622485,971.1369660450646,971.02667208948,971.43376590752,0.007617782271326725,0.4070938180399253,0.08684241157760106,-0.001678581786398659,3.1509960097537624,0.55,0.45,1.616406561495359,Stairs down
1.0368469238241,0.77563476562,1.36328125,0.026235263268054435,0.16116113252075975,0.19214599609050004,-0.01867675781,0.51098632812,0.013830870034675917,0.11701521838773433,-0.0802062988267,-0.54284667968,0.26477050781,0.018389917796533733,0.13492968027297922,1.0717833693350998,0.78899862956,1.43038499212,0.02783492670046094,0.16600173924828718,971.1838407198903,971.09892777385,971.25541840334,0.0008490359123079789,0.15649062948989467,0.028992163651319628,0.0002758968304861271,0.41783586510932347,0.61,0.39,0.28066199539753245,Stairs down
0.9912292480445999,0.81701660156,1.296875,0.0156668916422597,0.12454004466771762,0.21637207030880007,-0.07739257812,0.36254882812,0.011837835407821337,0.10825644116514788,-0.08919799804459999,-0.26110839843,0.07019042968,0.006972482196415736,0.08308283441512801,1.0280913214678997,0.86129065192,1.3110855519,0.014615403756177127,0.12028819442744727,971.1785281315149,971.14565796671,971.22050102342,0.0005820989501833938,0.07484305670993763,0.024005790149077784,-0.0002903028184835595,-0.9266034418765603,0.59,0.41,0.564617988367627,Stairs down
0.9356955348817823,0.76037597656,1.20202636718,0.013538331271220321,0.11577689055829256,0.2852674427555446,0.17639160156,0.51013183593,0.005636268883573413,0.07470250491892354,-0.10627731473910892,-0.36022949218,0.0263671875,0.009774248853608492,0.09837415368115578,0.9907099528829707,0.81220368337,1.31023667668,0.015508076838447642,0.12391340332351254,971.1809577060098,971.15695495676,971.20398032182,0.00021246826162172564,0.04702536505999433,0.014503951718999035,2.4792037310435692e-05,-1.354681286923468,0.56,0.44,0.30640193810496497,Stairs down
0.9800732421840002,0.80981445312,1.20275878906,0.011239462765809106,0.10548491900812654,0.2557128906212,0.10302734375,0.48901367187,0.011474901979556187,0.10658401831306899,-0.08956542968519997,-0.19372558593,0.12854003906,0.008749562706065282,0.09307022659800838,1.026270750516,0.82093925147,1.22347173216,0.011992165132057662,0.10895982507666341,971.1861769520307,971.12224040973,971.30672297265,0.0021507098356032977,0.18448256292003862,0.04614328485540735,-0.000190208541380642,1.3269827745992497,0.68,0.32,1.1747896436852643,Stairs down
0.9644091796836,0.79565429687,1.21606445312,0.010719445113040594,0.10301577870360534,0.16200195312159998,0.03259277343,0.26708984375,0.003318396867067404,0.05731677676210282,-0.1305126953104,-0.30993652343,0.03210449218,0.01081605352494978,0.10347894950037077,0.9931504699555999,0.81875076585,1.2527772152,0.01173814433246716,0.10779964234236813,971.162574078511,971.13619802611,971.19523153413,0.00024238702479408995,0.05903350801997931,0.015490744157274984,0.00020767368372931382,-0.837044213443447,0.48,0.52,0.14458178636394994,Stairs down
0.9698876953084001,0.62194824218,1.39685058593,0.045011364715023615,0.21109536012871857,0.19354003905959996,0.0322265625,0.474609375,0.009023429311897587,0.09451558082548407,-0.0800683593728,-0.24743652343,0.10302734375,0.007864909846224628,0.08823979118154338,1.0005509738184,0.67535335025,1.40270139867,0.0451810969981506,0.2114929928583193,971.1928180084398,971.15559927807,971.23302134112,0.0005040664612237522,0.077422063049994,0.022338885303692185,0.0006291859386244505,-0.967807724545116,0.52,0.48,0.05042972632004268,Stairs down
0.9832421874959999,0.69018554687,1.40979003906,0.02777696320517638,0.16582880803142924,0.1958642578084,0.04528808593,0.3515625,0.006564085074205813,0.08061292838908506,-0.04915527343599999,-0.248046875,0.13464355468,0.008176322801759322,0.0899697703328275,1.0103288198812002,0.71833483481,1.47398487028,0.029163758335062077,0.16991798242596767,971.2445266814348,971.20407256992,971.26658110074,0.0002810285731155964,0.06250853082008234,0.01667987671970151,0.0004431810783367531,-0.46770453509389975,0.48,0.52,-0.57885929393016,Stairs down
1.0075830078087997,0.63916015625,1.46960449218,0.05243901570616786,0.22784781225437778,0.21063964843400002,0.03332519531,0.44213867187,0.008782209868345627,0.09324370096506343,-0.0418359374988,-0.32336425781,0.15844726562,0.012224462922699445,0.11001008269005369,1.039312692296,0.65436931607,1.48784539956,0.05442745861364156,0.23212751673919477,971.3018303575192,971.25815638984,971.35075309824,0.0006485015308946942,0.09259670840003764,0.025338044825632212,0.0008339438962661176,-0.7000240005396816,0.44,0.56,0.0018247656836993282,Stairs down
0.9465751262582829,0.66833496093,1.29675292968,0.047565065525464384,0.2169898852899288,0.21257496842989898,0.04235839843,0.37609863281,0.005746740775047277,0.07542342400362528,-0.05768377130494949,-0.27905273437,0.06872558593,0.007083921186536858,0.08373987357929848,0.9778863439695958,0.68469352538,1.31488667065,0.048534216853335074,0.21918935247555918,971.3791825959132,971.34022459197,971.41644872564,0.0005036071466583209,0.07622413366993896,0.02232756605147512,0.0007391709408656127,-1.073840687380035,0.44,0.56,0.005958658324764001,Stairs down
0.9173962402299,0.60998535156,1.28247070312,0.044264662655704945,0.20933708708479704,0.25786376952760004,0.1279296875,0.52014160156,0.006961538087268527,0.08301760479799355,-0.07085083007559999,-0.28735351562,0.03527832031,0.006010713930740494,0.07714017624709636,0.9609176725029998,0.66034490383,1.31684988566,0.04690019953999056,0.21547899559954947,971.4465128010203,971.41057895247,971.46683405083,0.00024779886154160924,0.056255098359997646,0.015662722398299512,0.0004944503513108525,-1.2310044117786574,0.41,0.59,-0.39872550689826464,Stairs down
0.9647827148402999,0.60998535156,1.36743164062,0.047776387647426075,0.21748246773234806,0.26344238280900006,0.01928710937,0.4736328125,0.012685341449793493,0.1120646600641592,-0.0778320312481,-0.25939941406,0.05163574218,0.008924446322332918,0.0939957544738569,1.0138711819283999,0.66034490383,1.41642459093,0.047497920323304174,0.2168477371799649,971.4950773033785,971.46431834327,971.53695640788,0.00025621317412441403,0.07263806461003242,0.01592642591365589,0.0004123436304080767,1.8208758016726705,0.61,0.39,0.892192637504137,Stairs down
0.9403930664025999,0.693359375,1.22900390625,0.02075172418894969,0.14333250485169158,0.23270874023030003,0.10607910156,0.38610839843,0.005248217683560867,0.07208145050375483,-0.07619628905909999,-0.31628417968,0.107421875,0.008215470145039639,0.09018489587280812,0.9779916127802999,0.74262855876,1.27804304223,0.02192324728369057,0.14732282515229495,971.5288458324733,971.4981277222,971.56558202353,0.0003363160099640149,0.06745430133003083,0.018246995639402526,0.000492139317191389,-0.38466104980880766,0.49,0.51,0.45720611854361193,Stairs down
0.9569067624501979,0.66198730468,1.27526855468,0.04038741230373961,0.1999688399086109,0.2815388594482178,0.06384277343,0.51196289062,0.014309991515408814,0.11903070373268335,-0.07647282061950494,-0.26989746093,0.09094238281,0.00730067538112933,0.08501994746213787,1.008703869059802,0.70251435148,1.33944427607,0.04513035022047682,0.211384756001418,971.5833125184862,971.55434799207,971.64354056442,0.0005230945975882049,0.08919257235004352,0.022757755670466246,0.000578398411024526,-0.11658298649852306,0.49,0.51,0.5201345363480723,Stairs down
1.0085058593712,0.81457519531,1.23449707031,0.017615895945363964,0.13205959634161513,0.19073730468400002,0.015625,0.36437988281,0.008351675332188245,0.09092941536635085,-0.10199707031080002,-0.22814941406,0.04516601562,0.0059480511538013555,0.07673702263095267,1.0377888749916002,0.84163689033,1.26393151895,0.018645360894545132,0.13586356128704885,971.5982786686965,971.54386288213,971.69238551572,0.0016124804208557328,0.14852263359000517,0.0399544192380164,-5.020726099021753e-05,0.07437720577440432,0.64,0.36,0.9107980770462506,Stairs down
0.983823242184,0.79748535156,1.19958496093,0.015535260836156676,0.1240157579817787,0.2082470703088,0.01354980468,0.38024902343,0.005831227736154501,0.07597970425576132,-0.126416015622,-0.29406738281,0.00720214843,0.007489055093866203,0.08610554304414751,1.0203137398892002,0.85575830445,1.2219898187,0.014932205637417002,0.12158488220598329,971.5943870354467,971.55924120339,971.67293391271,0.0006081542849932716,0.11369270932004838,0.024537170622207827,0.00022140747400246563,2.041669083873524,0.72,0.28,1.3341726676440715,Stairs down
0.9822070312463999,0.76953125,1.22644042968,0.012376241346818717,0.11069091621876896,0.237167968746,0.123046875,0.3798828125,0.004630685237914402,0.0677080378207437,-0.1421874999968,-0.25415039062,0.01000976562,0.005676237019298568,0.07496315527714653,1.0252523093759998,0.81795901608,1.26521676744,0.012636986737929373,0.11185086888598622,971.5969359487312,971.57313937671,971.65491442144,0.0005675124174449347,0.08177504473007957,0.023703107249271882,-7.073997579047993e-05,0.8519071810290142,0.52,0.48,1.2866364393226,Stairs down
0.9783642578088001,0.75671386718,1.22888183593,0.015108774743942092,0.12230162303298624,0.2618798828088,0.11828613281,0.41516113281,0.007593572404567843,0.08670430600911447,-0.09612792968520001,-0.23742675781,0.0283203125,0.007817003606159546,0.08797064038699474,1.024143791054,0.80967148538,1.26577375267,0.016527197308228766,0.12791374177603623,971.6039518714769,971.58243057138,971.64243582519,0.00035029661564205475,0.06000525381000443,0.018622396448514197,-8.27058366457887e-05,-1.182745019097674,0.6,0.4,0.5551073089456912,Stairs down
0.9401660156207998,0.75805664062,1.23937988281,0.01839375216566676,0.13494374622045327,0.21872070312039998,0.09338378906,0.35681152343,0.0054509631070083905,0.07346055728034132,-0.0792675781232,-0.30224609375,0.0830078125,0.009936932216800363,0.09918448918370432,0.9771484840783999,0.8133246107,1.27375256554,0.01682717466788741,0.12906937251419692,971.6040126366029,971.58436216285,971.62290536949,8.173612672097999e-05,0.03854320664004263,0.008995485837561537,0.0001600896687579416,-0.4718082351332744,0.52,0.48,0.03742688203312629,Stairs down
0.9715673828083999,0.60681152343,1.37377929687,0.06078212901807693,0.24530452039841452,0.17793945312200005,-0.04162597656,0.34985351562,0.010165487539806029,0.10031865561503488,-0.07393066406080001,-0.29931640625,0.11145019531,0.01127173067285321,0.10563623131352555,1.00032773664,0.63615046925,1.43534878771,0.06243731764531225,0.24862209167501412,971.6467842807542,971.59531487214,971.69287176399,0.00044425478308681197,0.09755689184999028,0.020971700819340904,0.0006178004880642205,0.15088271358619032,0.56,0.44,-0.05595347072808435,Stairs down
0.9874625157785858,0.63415527343,1.39270019531,0.044386230334002325,0.20961365550233793,0.18390324139434341,0.025390625,0.30554199218,0.0061622825547216825,0.07810273539634294,-0.058990786771717166,-0.20104980468,0.08532714843,0.005594597891353086,0.07441832302290505,1.01403363666899,0.69698549301,1.40507391917,0.040099371701045085,0.19923435331902145,971.7081240382134,971.68309526323,971.73731594667,0.0002386538616646424,0.05422068344000763,0.015370205483249818,0.00039470238953216914,-0.8231262788053182,0.44,0.56,0.04150789948957938,Stairs down
0.9613012695275998,0.658203125,1.33374023437,0.05481288288009645,0.23294796425660277,0.23946166991810003,0.04248046875,0.43432617187,0.008202068448935059,0.09011130763919536,-0.0388549804667,-0.28295898437,0.14294433593,0.00900656451421081,0.09442721466329874,0.9992926005322998,0.69698549301,1.39565962865,0.05622962713877437,0.23593925249391343,971.7609602142786,971.72094252732,971.79816504346,0.0005574921246338621,0.07722251614006836,0.02349291815393574,0.0007571318804120712,-1.2467191006741833,0.41,0.59,-0.05687242421863429,Stairs down
0.9172508315242572,0.60571289062,1.30847167968,0.05182133414912819,0.22651324825007518,0.2406320099753465,0.1357421875,0.43432617187,0.0027341060796814923,0.05202918145096003,-0.06969006226534655,-0.2705078125,0.04663085937,0.005001546294920846,0.07037063332509588,0.955793359710396,0.66483294728,1.32065203775,0.0500312830979492,0.2225666728406471,971.8350542621041,971.79629364024,971.87656351442,0.0006153323381024823,0.08026987417997589,0.024682786283467453,0.0007657596965110945,-1.340113241739314,0.49,0.51,-0.08878752798962929,Stairs down
0.9764013671839998,0.65881347656,1.484375,0.05646459709560846,0.23643170499036795,0.23846679687080005,0.08410644531,0.44763183593,0.006270270299268855,0.07878811836994311,-0.05155761718520001,-0.26965332031,0.08581542968,0.0060210503468010506,0.07720647539768306,1.0138772753179999,0.70399907142,1.48838315699,0.053540868782917674,0.23022914692776955,971.9030140623861,971.85381024165,971.93459228949,0.0004899367541962219,0.08078204783998899,0.02202356434944761,0.0006524725289713538,-0.9379830579701909,0.6,0.4,-0.10837392539735971,Stairs down
0.9274658203083999,0.63610839843,1.47033691406,0.05289028148455988,0.2288260882629301,0.2691650390588,-0.01843261718,0.47302246093,0.013950048070541376,0.11751828619340891,-0.0432763671872,-0.29711914062,0.21484375,0.014361085457697813,0.11923705214035121,0.9806748397299999,0.67085147121,1.48606468201,0.053718959226746056,0.23061172917802467,971.9744478294967,971.92709680823,972.04798312807,0.0007672809223452371,0.12088631983999676,0.027560988972128428,0.0008030819242276427,0.21985215310336992,0.68,0.32,0.7837007819124057,Stairs down
0.9788964843708,0.57397460937,1.47900390625,0.04220981227017697,0.20442043476001903,0.21057128905880002,0.03369140625,0.39050292968,0.00832543349009625,0.09078644808117171,-0.02207031249960001,-0.30004882812,0.1513671875,0.01271761667788461,0.11220713217574792,1.0140320775007998,0.6504655056,1.48377195958,0.037803003229510586,0.1934553519477181,972.036572666294,972.016473441,972.05589469577,0.00019216214627863518,0.03942125476999081,0.013792770744699877,0.0002482362298813443,-1.489345865932508,0.52,0.48,-0.11317104235707898,Stairs down
0.9412402343712,0.57287597656,1.44445800781,0.06196504997458294,0.24768003446954925,0.27609374999599995,0.14294433593,0.77734375,0.021248955052622847,0.14503953082555326,-0.04024414062399999,-0.24084472656,0.11743164062,0.008397206777945882,0.09117694176800636,0.9951368600968,0.61552588202,1.45270859484,0.06482652303338769,0.25333428074986974,972.0787659950662,972.04994842435,972.11760872647,0.00032504791749490017,0.067660302120089,0.017938713396449344,0.00048204626146014273,-0.8837585509842167,0.48,0.52,0.15012444408567044,Stairs down
0.9712744140583999,0.6220703125,1.49377441406,0.06045411056963089,0.24464171652425631,0.26276367187079996,0.01538085937,0.60021972656,0.022127429740714726,0.1480072817239327,-0.04353515624880001,-0.337890625,0.10681152343,0.011321043582246455,0.10586705411233464,1.0190792202488002,0.66833215164,1.6307927375,0.06944964182064292,0.26221202375641833,972.1524715368945,972.12597348127,972.21402127005,0.00047200833387911495,0.08804778878004527,0.02161685107827511,0.0004445944110477461,1.0973599152319338,0.52,0.48,1.1479416203203305,Stairs down
1.006406249996,0.79479980468,1.26782226562,0.017644041861062536,0.13216505378674012,0.2578906249964,0.06726074218,0.48803710937,0.011897921417709841,0.10853083526598671,-0.1155859374988,-0.373046875,0.04565429687,0.013742606230120608,0.11664124556870696,1.0558276808727998,0.8431574984,1.3310598148,0.02101096520880539,0.14422501709730298,972.1695724493153,972.12291915763,972.24212910136,0.0009609567301793299,0.11920994372997029,0.030843916140424463,9.994670606214966e-05,-0.35640545658568934,0.52,0.48,0.5678273231191888,Stairs down
0.9566845703092,0.77319335937,1.26538085937,0.018334095742797023,0.13472473709519367,0.2750976562468,0.05712890625,0.58740234375,0.016499846872644785,0.12780785736377218,-0.0688378906232,-0.27722167968,0.10095214843,0.010273611810028005,0.10085075950099595,1.0070593190719999,0.80403170667,1.41844522861,0.026414898458693752,0.16171193361686953,972.1855069544562,972.1665624785,972.22856590845,0.0002571708451574589,0.06200342994998209,0.01595616296939475,0.0002648535901653094,0.3693765641529674,0.48,0.52,0.8658446614079665,Stairs down
0.9495479699304041,0.77722167968,1.15124511718,0.011460114940929512,0.10650988782339622,0.31584275370515147,0.15600585937,0.56457519531,0.014257290140513593,0.11879931442896138,-0.06469479955686869,-0.26892089843,0.08630371093,0.00932747550712486,0.096089846408507,1.012562985239293,0.84003417052,1.28130639347,0.015143466481180028,0.1224357062841119,972.2033335428437,972.17801158896,972.243300215,0.00030425673389669714,0.06528862604000096,0.017354637234880663,2.816234181769903e-05,-0.024229100757727107,0.6,0.4,0.8082002742667826,Stairs down
0.9581616210892,0.79040527343,1.21704101562,0.013129393446255489,0.11400920801318169,0.27463378905829994,0.13696289062,0.38427734375,0.003761233103473113,0.061021477960127954,-0.09807006835570002,-0.28015136718,0.02978515625,0.005621394393002124,0.0746001370579981,1.0063013411197,0.86242711201,1.2723683333,0.012888545578349512,0.1129586655488016,972.2053905154161,972.17801074734,972.22983691054,0.000215509132933203,0.051826163200075825,0.014606643748783324,-0.00016097289894123935,-1.1263379090440166,0.57,0.43,0.06464238740618146,Stairs down
0.9723577216077226,0.79174804687,1.17919921875,0.008595085881841769,0.09224958548213381,0.22659271542009896,0.11901855468,0.34436035156,0.00331255597054331,0.057269174838446416,-0.08189346766475247,-0.259765625,0.04907226562,0.007457270521716012,0.08592692337163517,1.0068447251220791,0.86784781841,1.22949292074,0.009056889735287052,0.09469539355053207,972.2034740505418,972.18355216797,972.21992595059,0.00011297464380607431,0.03637378261998947,0.010576203618326908,7.051378245521634e-05,-0.9261595849685009,0.37,0.63,-0.35843924560254165,Stairs down
0.9286279296836,0.59484863281,1.27954101562,0.03152659290952307,0.17666727761650666,0.22861816405840002,0.08862304687,0.48571777343,0.008604816330720199,0.09229717312796204,-0.06693847656079999,-0.17456054687,0.05993652343,0.005128143868943614,0.07125210474262622,0.9650494734007995,0.64142639927,1.30786611909,0.03291245236007029,0.18050852566144787,972.2167580190161,972.18974170259,972.24951005946,0.000294750700841453,0.05976835686999493,0.017082247915102933,0.0005039037614856386,-1.0641222130920363,0.64,0.36,0.2612659401144047,Stairs down
0.9689843749959999,0.60681152343,1.42578125,0.062312329562471166,0.24837311905044487,0.3306738281215999,0.19323730468,0.6328125,0.0133838139640498,0.11510853932010996,-0.0021826171876,-0.13354492187,0.11999511718,0.004174715725573808,0.06428816818294071,1.0318640881052,0.64695310167,1.49696609522,0.06324173509852273,0.2502185399756331,972.2700972112043,972.25335837361,972.29364942288,0.00014194195720324668,0.040291049269967516,0.011854220245600898,0.00020755915293928264,-0.7148297045532477,0.56,0.44,0.5507275905627834,Stairs down
0.9396142578091999,0.72387695312,1.2314453125,0.020382549690903674,0.14205183629223045,0.2299023437456,0.099609375,0.34716796875,0.004581649953647753,0.06734859652666324,-0.0237451171852,-0.1435546875,0.15576171875,0.007747894729737883,0.08758090992014472,0.9750415807232002,0.77348460429,1.26786806173,0.01815430405737127,0.13406252651952205,972.2943537889372,972.26555105463,972.31534720895,0.00015252713042910332,0.04979615432000628,0.01228828137392745,0.00034088999705648656,0.3768408688268452,0.48,0.52,-0.5845565136114563,Stairs down
0.9595751953087998,0.67016601562,1.43579101562,0.04914486730936464,0.2205751995040943,0.23525878905920003,0.06494140625,0.3740234375,0.006384159916707898,0.07950042966890694,-0.0267626953116,-0.20556640625,0.16394042968,0.008787072402821925,0.09326951098185145,0.9959038764687999,0.70196341887,1.44737785305,0.04918778040922461,0.22067148117763738,972.3469825558346,972.3004439455,972.38769762231,0.00045328193842042496,0.08725367681006446,0.021183699370889417,0.000675450321345409,-0.3313391737524962,0.6,0.4,0.048920353026627166,Stairs down
0.942495117184,0.68298339843,1.2900390625,0.038107493815311,0.19423289854491152,0.27265624999599997,0.1591796875,0.53588867187,0.00806562828298927,0.08935867053710779,-0.0099316406264,-0.18383789062,0.12145996093,0.004416117619530484,0.06612077164806214,0.9866653224875995,0.71918674343,1.38148445538,0.03970909372144433,0.19827254672351863,972.4230481844509,972.38540557217,972.45529808455,0.0004401362820202113,0.06989251237996541,0.020874264518780276,0.0006647034745680276,-1.120811041580666,0.44,0.56,-0.1516769369178035,Stairs down
0.9674560546827999,0.70202636718,1.28515625,0.03497103368400473,0.18606806106144247,0.26282714843399996,0.0849609375,0.48120117187,0.009115964378807505,0.094998972284017,-0.05333007812400001,-0.2275390625,0.12634277343,0.006907279226051575,0.08269344855422985,1.0119312569312,0.73851822778,1.32751366626,0.03472009160764571,0.1853992737083111,972.482544105053,972.44057800657,972.51455567277,0.00046567967350407915,0.07397766619999402,0.021471443285653584,0.0006407000267228557,-1.2164626397972635,0.52,0.48,0.11848923968866984,Stairs down
0.9548144531216,0.65270996093,1.44384765625,0.047334510485541346,0.2164743989036254,0.30236328124679995,0.09265136718,0.53369140625,0.014829029314415506,0.12116409955622726,0.0106738281248,-0.18737792968,0.18432617187,0.009582299270199154,0.0973985435080893,1.0136513556403999,0.70052172555,1.46192712975,0.047219630535533456,0.21621154971503748,972.5512268161864,972.51156296383,972.58967076952,0.0006533839220693355,0.07810780569002418,0.025433247587530818,0.000746755009868759,-1.162830238178314,0.48,0.52,-0.08433109640498135,Stairs down
0.9876819957336361,0.64245605468,1.50598144531,0.05246806056269253,0.22789927633270002,0.21638010968838386,-0.07995605468,0.50842285156,0.01519281858356481,0.12263505114603006,-9.740964303030301e-05,-0.17797851562,0.10729980468,0.005925071476009266,0.07658473914025489,1.0209841686614143,0.68172310054,1.59802112749,0.05330854170747843,0.22971737328556818,972.6141736668817,972.57977824522,972.68966425894,0.0006735242450345313,0.10988601371991535,0.025820940529581067,0.00035952581912224667,3.15103846608197,0.65,0.35,1.8411316201211958,Stairs down
0.9695214843715999,0.62487792968,1.41125488281,0.045806021064104495,0.21295060660506102,0.2193432617145,0.0263671875,0.54418945312,0.013979783870892097,0.11764346999380448,-0.05450317382709999,-0.1904296875,0.10632324218,0.005482804141118497,0.07367479962448023,1.0067335915905,0.64728753254,1.41816030212,0.04676473644196619,0.21516758370522854,972.654541901147,972.62234357999,972.72223469369,0.0007101290876071924,0.09989111369998227,0.026514671348729188,0.0007748167041328759,1.0355848278036976,0.65,0.35,1.343946984430461,Stairs down
0.9429871209732673,0.89636230468,0.96911621093,0.00037337195168352544,0.019226939425885204,0.2746690806733663,0.24584960937,0.29296875,0.0001203394231270023,0.010915490996290605,-0.2816693900792079,-0.31042480468,-0.26147460937,0.0001133508729408392,0.010593799463371856,1.021858762040891,0.96816646013,1.04853570935,0.00041529349720822355,0.020277615254368095,972.7270080251761,972.69420211683,972.7664185369,0.0002961296351706736,0.07221642007004903,0.017123015464129716,-0.00025248256606956356,0.6675787316240962,0.55,0.45,0.293781499440234,Lift up
0.8170079703242423,0.4189453125,1.02490234375,0.03072223652769133,0.17439011126265014,0.4883909899752524,0.2216796875,0.79211425781,0.029647519848351872,0.17131272559530938,-0.06577616990222222,-0.34289550781,0.31225585937,0.04564052841539103,0.21255472936834816,0.9996947775368689,0.65805365566,1.21492905025,0.01606639965522972,0.12611150934797893,972.7236777372891,972.30140861137,973.69787918692,0.12543897861034017,1.3964705755499836,0.35238036015126717,-0.005436759596247014,2.1737758003703584,0.52,0.48,1.530875431397671,Lift up
0.6383593749976001,-0.0546875,1.49377441406,0.187834206348755,0.43122600140212725,0.7991796874948,0.23864746093,1.64331054687,0.11189839613557973,0.3328354130410764,0.19899414062440002,-0.47814941406,0.87158203125,0.12451653249146721,0.3511002238201402,1.1793178232188002,0.70533837458,2.28145833893,0.1161673212365608,0.33912482661137505,972.457464409683,972.20537326072,972.78536956734,0.027665436970451877,0.5799963066200462,0.16549556671025165,-0.001975371003059051,-0.741249654907493,0.59,0.41,0.29991571318419435,Lift up
0.9482958984344001,0.45446777343,1.13195800781,0.018874715169431934,0.1366966276750733,0.18939941406119998,-0.18347167968,1.02160644531,0.09932245519329129,0.3135749203003301,0.16862792968399998,-0.06591796875,0.30114746093,0.008525694259134806,0.09187185268918581,1.0411023827568,0.91238192584,1.22208894724,0.005185951813119519,0.07165258051869677,972.3027004508403,971.57648228799,973.08115066505,0.21191248250851766,1.5046683770600566,0.4580320487514301,-0.012414099516732285,-1.4820101610439846,0.48,0.52,0.06910902135045759,Lift up
0.44024902343680006,-0.27465820312,1.14916992187,0.20703720097302736,0.45273262414287874,0.8246289062471999,0.26000976562,1.26513671875,0.09411629869480798,0.30524602488461644,0.0024414062496,-0.27746582031,0.59802246093,0.058280034497151204,0.24020248573272446,1.0967768399972,0.75083127247,1.40075949541,0.02702803857270749,0.16357798808819118,971.9693172495193,971.79393555075,972.27332443067,0.02061574420803091,0.47938887991995216,0.14286212502252163,-0.004052781533851376,-0.5190034446904406,0.64,0.36,0.797072267936071,Lift up
-0.3060644531208,-0.35266113281,-0.24572753906,0.001247049004165625,0.035136569470054536,0.5686865234340001,0.375,0.77502441406,0.010653311218923628,0.10269750779222635,0.785434570308,0.65734863281,0.90393066406,0.004765369097338586,0.06868562736384665,1.0247490119816,0.97161906451,1.05530421275,0.0003796061683988849,0.019385822312063424,971.7520938514281,971.6408835893,971.90904367247,0.006666525097617491,0.26816008317007345,0.08123952145748592,-0.002608617289835198,-0.725606809295297,0.68,0.32,0.7300011287382064,Lift up
-0.32173383353544555,-0.34558105468,-0.193359375,0.0008352665853817461,0.02875754890789282,0.6008276608868316,0.54821777343,0.94384765625,0.002436325544169159,0.04911418847011905,0.7554738261871285,0.65588378906,0.78454589843,0.0005941375292973007,0.024253968324838678,1.0191604264278216,0.99293157506,1.16551267297,0.0003905872993726908,0.0196652001868479,971.4922864417258,971.37614331668,971.621326822,0.004719719207112708,0.24518350532002842,0.06835926648211621,-0.0023277772951377784,-1.0126449014298557,0.52,0.48,0.09162522943684522,Lift up
-0.49875244140379993,-0.66845703125,-0.13500976562,0.022327901010723936,0.14867623213081738,0.7972814941370998,0.64501953125,1.03637695312,0.008897151626293573,0.09385190520192244,0.31917480468419995,0.06872558593,0.65588378906,0.013931718402615893,0.11744105422972724,1.0124595095414,0.80980943891,1.16551267297,0.005975029810084299,0.0769108543183825,971.2463938939453,971.12821991731,971.37614331668,0.005684397963478093,0.24792339936993812,0.07501702462670265,-0.0025725381564707687,-1.2278831093981792,0.53,0.47,0.11523320500089693,Lift up
-0.39441406249649985,-0.47290039062,-0.36181640625,0.0007860467650561501,0.02789599070485916,0.8602099609342999,0.8134765625,0.89404296875,0.0005706695354064419,0.023768946969783444,0.3928332519487999,0.34777832031,0.42321777343,0.0004607406213457538,0.021357275461357336,1.0254261858218,1.00251525963,1.0581699452,0.00014344768626223058,0.011916929529019137,971.0019436078329,970.88525038017,971.12821991731,0.004851725274350163,0.24296953714008396,0.06930518033745141,-0.0023915365719288048,-1.2097337912004522,0.49,0.51,0.05162255534567782,Lift up
0.42617675781089986,-0.36206054687,0.88806152343,0.26575246155525406,0.5129278087018694,0.6154101562463998,0.38696289062,0.88684082031,0.032098381302577556,0.17826215944375795,0.38363281249619985,0.1826171875,0.81665039062,0.0273796278055661,0.16463848738223527,1.0099568033132003,0.76787684599,1.22796778752,0.009591763166134432,0.0974466291591099,970.7870521704208,970.56560594472,971.55306719879,0.045452711188407637,0.9874612540700127,0.212127754140102,-0.0042380258195328846,4.265551560927675,0.49,0.51,1.8434032369127742,Lift up
0.9514953613241,0.85571289062,1.00573730468,0.0007789145138895766,0.027769144184700414,0.3173278808555,0.19689941406,0.49621582031,0.005014001532919831,0.07045467704553497,-0.059180908200600006,-0.13061523437,0.27368164062,0.005517006430293588,0.07390423780806249,1.0097755023439,0.95467368145,1.11542763179,0.001104085456657049,0.033061225054290995,970.5254872145728,970.47081349509,970.56651759686,0.0012076587342681761,0.09570410176991118,0.03457719113701248,-0.0011424579435609123,-1.496653208340504,0.45,0.55,-0.34206999232466057,Lift up
0.343671875,-0.36962890625,0.9921875,0.2742956634448654,0.5211071932054064,0.6672509765597999,0.31298828125,1.23059082031,0.08048868097373328,0.28228318080253373,-0.17514282226189998,-0.48217773437,0.05810546875,0.022212346351119416,0.14829100744012844,0.9604181828254003,0.43087192631,1.30192596883,0.04528572680430957,0.2117377376290454,970.3609376445252,970.14333256185,970.51271234311,0.006800603338463022,0.36937978126002236,0.08205240584576659,-0.0011324832150706875,-0.8138870388910431,0.53,0.47,0.2510877851486416,Lift up
0.21807059856292935,-0.21850585937,0.78601074218,0.13619253834705222,0.36717414960959116,0.5361525410323231,0.15710449218,1.1923828125,0.08094097482534145,0.28306075182024987,0.6230320785950504,-0.27685546875,1.08068847656,0.08950311896497444,0.2976559205798489,1.0017943903989899,0.61208400369,1.23913487635,0.023366622444045904,0.15208746153023958,970.2051079400253,970.09556230049,970.26109760571,0.0025443104711327063,0.16553530522003257,0.05018575859109523,0.0011838359408304383,-1.0421206975499775,0.39,0.61,-0.5464869601657907,Lift up
0.9463659667927,0.62915039062,1.37243652343,0.04934629516616883,0.22102676809496885,0.1568725585903,-0.04235839843,0.31091308593,0.005910593903241457,0.07649501921176988,0.0095324707039,-0.11071777343,0.1865234375,0.005255863249228647,0.07213393526445344,0.9655802900857,0.64103571588,1.39672342668,0.048354281749677985,0.218793827454481,970.2904750520607,970.21655590978,970.36780767302,0.0009201072892417215,0.15125176323999767,0.030181222910102636,0.0009548877552999331,-0.08129882539815947,0.51,0.49,-0.042418463072834416,Stairs down
1.0211865234349,0.77514648437,1.421875,0.03099854014131279,0.17518149085990695,0.16243896483969997,0.0615234375,0.29064941406,0.004990758769510418,0.07029118850763098,0.09739990234080002,-0.02172851562,0.25988769531,0.008002920433613957,0.08901062424945584,1.0453725438143,0.81253203915,1.42778140824,0.02974102596855175,0.1715914208486725,970.3187151861739,970.24299094607,970.38902828089,0.0013713137478233866,0.1460373348199937,0.0368456321745896,0.0009420181154357376,-0.0628695547436533,0.44,0.56,-0.38693057674463327,Stairs down
0.9438305664018999,0.71948242187,1.30261230468,0.03187742950295998,0.17764755896980508,0.22363159179300002,0.06958007812,0.38940429687,0.005284859825591753,0.07233264288919516,0.02633911132639999,-0.14135742187,0.15673828125,0.005600671531581571,0.07446250611056382,0.9748320080929002,0.72552946956,1.31887080692,0.033897841373051775,0.18319078295405927,970.3884308584769,970.33466507444,970.55477395875,0.0025343436353215884,0.22010888431009334,0.05008992113158467,0.00015375095046703816,2.4054910801853477,0.67,0.33,1.447974886688458,Stairs down
0.9869323730435999,0.59680175781,1.34899902343,0.046140367146191005,0.2137263752435087,0.1515319824181,0.05712890625,0.40075683593,0.006914253299516797,0.0827351845741679,0.024034423828399994,-0.05212402343,0.12048339843,0.00306817073216427,0.055113419643881896,1.0025722398966,0.60628455791,1.36472706244,0.04847027397946432,0.2190560915374637,970.4446201913343,970.36710832269,970.52478072295,0.0020493492262114743,0.15767240026002582,0.045042821114461284,0.0013726377236217401,-0.7599757090910564,0.35,0.65,-0.0520805368546462,Stairs down
1.0385461425746998,0.59680175781,1.45422363281,0.06563547490083309,0.25491002363937115,0.1233459472624,-0.09448242187,0.32202148437,0.0096332907598936,0.09765734919756251,0.025739746093899996,-0.07592773437,0.16870117187,0.00416832651114676,0.0642389542725852,1.0522598027298,0.60628455791,1.49028751983,0.06651199626244944,0.25660646192141173,970.5322891381114,970.48026000599,970.65359512514,0.0007327715340409406,0.17333511915001054,0.026934064281139064,0.0006248829379703995,4.571646705715212,0.59,0.41,1.460645656047794,Stairs down
1.0088391113244999,0.72668457031,1.39379882812,0.03622195518826557,0.1893666698138374,0.20592529296470005,0.068359375,0.39245605468,0.008878965516010605,0.09375593773650018,0.071756591795,-0.07348632812,0.31701660156,0.009721355322022188,0.09810271030303885,1.0403471385964003,0.74802475341,1.42436422189,0.037638860368886126,0.19303489779104002,970.5936544118372,970.55113479759,970.68224957576,0.0012471339191122192,0.13111477817005834,0.035137765721814145,0.000535491605717313,-0.2149305631762628,0.64,0.36,0.8892086748086769,Stairs down
0.9456518554653001,0.7294921875,1.26708984375,0.01992636364519881,0.14045319508201592,0.20061279296429999,0.03491210937,0.48193359375,0.018838149483824774,0.13656415338216146,0.0658007812482,-0.10693359375,0.31701660156,0.010784294845810309,0.10332691758371682,0.9816137639124998,0.74567638327,1.29319406833,0.024566066314043917,0.15595001010228718,970.6553852621984,970.62517269096,970.72145260882,0.0006845415361243437,0.09627991785998802,0.02603259727270985,0.0005672404272692359,0.8803778860643865,0.56,0.44,1.2240077222955503,Stairs down
1.0120726305989898,0.75415039062,1.35656738281,0.026396973247006482,0.16164880807974544,0.23519250117969698,0.00390625,0.55407714843,0.027935237134513458,0.16629210150227708,0.10767957899030305,-0.05297851562,0.26782226562,0.007788335452225062,0.08780470031354859,1.0580103083125252,0.76482994293,1.46213171083,0.03364855138467684,0.18250662187234704,970.7006997061591,970.6574787322,970.77236267866,0.0007137963221618095,0.11488394645994049,0.026581690283004753,0.0003956033859121248,0.1898246563992867,0.64,0.36,0.5474005409601961,Stairs down
1.0322869933434653,0.83764648437,1.21423339843,0.008730779773878906,0.09297492355351036,0.1997541673076238,0.00073242187,0.44665527343,0.01259318380678758,0.11166243244082391,0.1731585512026733,-0.06262207031,0.37109375,0.01669360477127852,0.12856252002711097,1.0778508797698017,0.86422099234,1.27149198093,0.011494492457693151,0.1066802962204192,970.7149950507278,970.68527579736,970.77480135651,0.0007777912220684535,0.08952555915004723,0.027750501236548087,0.0006479742784295385,-0.35614389056659856,0.63,0.37,0.9693681844682596,Stairs down
0.9675378417918,0.75085449218,1.23840332031,0.013444753083127717,0.11537029753058817,0.19105590819870005,0.02319335937,0.42517089843,0.007977669183350126,0.08887008772087841,0.0132202148448,-0.1005859375,0.20104980468,0.006331114304947589,0.07916945851714607,0.9928423629729001,0.79856115417,1.26919601122,0.014693588820138746,0.120609505976674,970.7183335590438,970.64629429389,970.78986740912,0.0018743218302180301,0.14357311522996952,0.04307642756677775,-0.0003600256710129101,-1.2027378719269648,0.57,0.43,-0.11945155071530902,Stairs down
0.9884143066368999,0.81713867187,1.21948242187,0.013205097207885317,0.11433742272679782,0.25706787108970003,0.11950683593,0.64526367187,0.014587171601401685,0.12017195964694788,0.0325085449215,-0.12109375,0.24694824218,0.009001036392608986,0.09439823106755177,1.0309363820531,0.84893995198,1.35867954419,0.017877864357485562,0.13303791081458965,970.716819137317,970.6796334153,970.75624760837,0.00024032290090524448,0.07661419306998596,0.015424644952030242,0.00015312478376487942,0.8371663595309795,0.43,0.57,0.009198061598272585,Stairs down
0.9773571777305,0.83557128906,1.21667480468,0.012744624655230076,0.11232621425418812,0.17039794921479998,0.05334472656,0.3251953125,0.004729824084249598,0.06842898394253054,-0.03281250000009999,-0.1767578125,0.12890625,0.007892373836192668,0.08839372204987604,0.9987013821015002,0.84606764516,1.247660074,0.013179674595308005,0.1142273078092753,970.7176096218828,970.69468487041,970.76201155872,0.0003543132075940444,0.0673266883100041,0.018728856759506276,4.0682920598727507e-05,-0.5258852173302375,0.49,0.51,0.6816786661461683,Stairs down
1.0051953124957,0.7822265625,1.35192871093,0.020129211719388432,0.1411662835176819,0.17898925780820002,0.01013183593,0.43933105468,0.013523203579920201,0.1157064023471519,0.0027575683586,-0.23620605468,0.25268554687,0.01164961285438915,0.10739234947539447,1.0318517839126,0.80064165712,1.38342218374,0.022821493702989325,0.15031060762953302,970.718068357018,970.68463215842,970.7530045852,0.00044597760895607466,0.06837242678000166,0.02101232573673162,9.560799444529753e-05,-1.1774314802529509,0.4,0.6,-0.17702263759345382,Stairs down
0.9767712402305,0.73828125,1.40380859375,0.03199477848824533,0.17797424168503395,0.2110156249967,-0.01586914062,0.49890136718,0.01954363618214744,0.139097806669717,0.0160522460939,-0.13452148437,0.25268554687,0.008548076555493486,0.09199236810702588,1.0111709578813,0.7462273523,1.42910679765,0.036248731907415926,0.18943665059418088,970.7363626870741,970.68559213692,970.78128507585,0.0005336313140018571,0.09569293892991482,0.022984668822104846,0.0006153592914193187,-0.41813284086237523,0.43,0.57,-0.5475336787146596,Stairs down
1.0071337890589,0.82385253906,1.40380859375,0.01132844021831154,0.10590163273589517,0.1389099121059,0.07055664062,0.21362304687,0.0018730447674702529,0.043061750078179015,0.044182128904700003,-0.09716796875,0.2001953125,0.006737083443381222,0.08166830847365096,1.0218627357958998,0.85884728267,1.42910679765,0.011214368884589623,0.10536709731099043,970.8010379934531,970.77443595171,970.85149523983,0.00039368099739865443,0.07705928812004004,0.019741939809063035,-4.226961041501241e-06,0.9168000292304654,0.52,0.48,1.0287663630385988,Stairs down
0.9644421386684999,0.67321777343,1.35217285156,0.03842202740954394,0.19503283604421204,0.13482421874740003,-0.07946777343,0.37377929687,0.011089339545007878,0.10477808048231176,0.042166748045699996,-0.18493652343,0.27282714843,0.010950916419404886,0.10412207861549268,0.9849876634571999,0.67961679288,1.35581627713,0.040162835166120604,0.19940212339506166,970.8217815124682,970.77968777791,970.87429124624,0.0006268768817313939,0.09460346832997857,0.02491200740434379,0.0006075442982355785,-0.7395172376796695,0.67,0.33,0.5159078580077323,Stairs down
0.9710961914017,0.66137695312,1.4384765625,0.043732884430201305,0.2080758409472356,0.1200805664021,0.01147460937,0.2451171875,0.003592990715146138,0.059641099989811354,0.04875244140469999,-0.09313964843,0.27014160156,0.0074641508221820335,0.08596225517027932,0.9849616895136001,0.67225500937,1.46366764411,0.044360153359538086,0.20956276345272482,970.8938563318228,970.84504336642,970.92095811052,0.0005264675066972909,0.0759147441000323,0.02282986709620356,0.0005792832809461752,-0.5306084934621893,0.31,0.69,-0.7171965379375577,Stairs down
0.9590100097620001,0.69091796875,1.20422363281,0.0272702602712745,0.16430933530558073,0.1606237792934,-0.03674316406,0.37292480468,0.0097212478529871,0.09810216804157403,0.04203857421679999,-0.12976074218,0.16845703125,0.007214783050178425,0.0845141125474121,0.9806192689464,0.70981615313,1.25866077086,0.02971466328645835,0.17151535398789744,970.9553259423373,970.90746923281,970.99897018973,0.0007360819760312612,0.09150095692007199,0.026994835733357384,0.0007656841812591841,-1.0426362328342533,0.59,0.41,-0.08722292941415045,Stairs down
0.9453186035122998,0.66564941406,1.29943847656,0.04343997540370225,0.20737785718264434,0.11540649413769997,-0.04699707031,0.36596679687,0.009409821723999573,0.09651799576638326,0.0391259765588,-0.11462402343,0.10046386718,0.0018805278909891459,0.04314768373944602,0.9614927663108002,0.68223242223,1.30202611861,0.044731754549359695,0.21043867753781884,971.032216761529,970.98000599838,971.17406574264,0.002784086927101053,0.1940597442600165,0.052499962455510786,0.0005154525728548559,1.564746738487961,0.67,0.33,1.501291181302742,Stairs down
1.0481152343717,0.81958007812,1.48999023437,0.028864111478901392,0.1690428063069008,0.1043737792955,-0.06225585937,0.43054199218,0.013201635730924475,0.11432243600280406,0.0155419921858,-0.13732910156,0.14953613281,0.006418853660523612,0.07971615346915815,1.0584138530773002,0.82716386728,1.49324539392,0.027638610876090607,0.16541530995445888,971.0698588594682,971.03555456322,971.11357682223,0.0004587934106101122,0.07802225901002657,0.021312096952294746,0.0003705257718606451,-0.9372031912375309,0.51,0.49,0.0946380127774369,Stairs down
0.9734631347619999,0.6982421875,1.38549804687,0.040965914694403305,0.20138583750467476,0.18097045898190003,-0.09167480468,0.39953613281,0.020211412597171484,0.14145422747730013,0.0825378417958,-0.06616210937,0.40148925781,0.01446759952828967,0.1196784171561722,1.0080369078063,0.70601362686,1.41405744709,0.04640742135862471,0.2143439925564476,971.1292911908166,971.0694692735,971.30265469538,0.002883706574456248,0.23318542188007996,0.05343097892338943,0.0014069560044396737,2.2837089799889387,0.63,0.37,1.532731443505692,Stairs down
0.9857690429643,0.79968261718,1.21313476562,0.016034079073643282,0.1259910246124971,0.1883093261681,0.08093261718,0.3310546875,0.004104892610197865,0.06374828377372904,-0.0212194824202,-0.14038085937,0.13439941406,0.005996468408491689,0.07704871007620291,1.0078874732949001,0.81301703874,1.26276368607,0.017866870394271914,0.13299699880196242,971.1899609324998,971.12842534479,971.30015837049,0.0018567120713908712,0.1717330256999503,0.04287359269616861,0.00014123037102241323,1.1040068192439492,0.64,0.36,1.103750831230744,Stairs down
1.0027734374958999,0.85656738281,1.20153808593,0.010069522014692729,0.09984401231193486,0.17178466796630004,-0.02880859375,0.30871582031,0.007416514621650226,0.08568751061522165,-0.0168225097654,-0.15551757812,0.11218261718,0.004719325296027641,0.06835299586022081,1.0227251701913997,0.87726424375,1.22927038178,0.01147885909337577,0.10660239444985282,971.2049141566891,971.16566815012,971.26643796192,0.0009706281656997816,0.10076981179997802,0.030998740039601347,-8.703748963667231e-05,-0.8689513617027624,0.56,0.44,0.6008088440148357,Stairs down
1.0084936523393997,0.791015625,1.22204589843,0.013586606395341013,0.1159773267987653,0.16956909179330001,-0.06677246093,0.30603027343,0.006873510068787673,0.08249105992833282,-0.05366333007560001,-0.18188476562,0.08972167968,0.00445231190050204,0.06639117999777545,1.0294402909372,0.81461167107,1.24607333701,0.013746331489421306,0.11665705368526626,971.1954287582283,971.15213207247,971.25953050062,0.0009835673017944688,0.10739842815007705,0.031204673188106363,-4.1680751990709225e-05,-0.29831109720510085,0.56,0.44,0.8608638788653866,Stairs down
0.9730383300747999,0.82470703125,1.2138671875,0.008999922557012015,0.09439239021998487,0.1578027343715,0.07263183593,0.28076171875,0.0038932080461790692,0.062082815381692205,-0.056788330076399995,-0.16088867187,0.06811523437,0.004630873990113102,0.06770941773647128,0.9912168196805999,0.84917087858,1.25028344755,0.009866858719585621,0.09883415468546167,971.1892849318979,971.1483979912,971.22050219069,0.00041793017030302245,0.07210419949001334,0.020340866957924687,4.3730127091564584e-05,-0.8148974910654023,0.39,0.61,-0.5051347661276283,Stairs down
0.9939221191373,0.80883789062,1.29455566406,0.014381336833182214,0.11932109396435482,0.14573852538819998,-0.01916503906,0.26208496093,0.007283200186498729,0.0849138868774345,-0.052139892576,-0.16796875,0.083984375,0.004812142058569181,0.06902188521029753,1.0114869859147,0.84397500181,1.32742927504,0.014764665309221194,0.12090086292549355,971.1985978396472,971.15616630202,971.24392036505,0.0007201930207029997,0.08775406303004729,0.026701893013342137,-0.0001462571578391157,-1.1741593130640902,0.44,0.56,-0.10706441432242289,Stairs down
0.9691186523395998,0.75048828125,1.2314453125,0.013937704183929284,0.11746628087281043,0.12453613280979998,0.00402832031,0.29174804687,0.005468363111639316,0.07357771048709605,-0.012280273438,-0.13708496093,0.11987304687,0.003909325358393851,0.06221118954665561,0.9820839282210001,0.78420503606,1.25339686662,0.013580214603773458,0.11595004293977525,971.1744601897018,971.14031835315,971.23570317258,0.00044454245551545194,0.09538481943002353,0.020978489720670967,-0.0002514699144218997,1.01839560737797,0.49,0.51,0.5243250605100556,Stairs down
0.989648437496,0.61022949218,1.36511230468,0.05143583242367792,0.225657869571263,0.1804394531214,0.01782226562,0.4541015625,0.011359245102939603,0.10604552160232986,0.04880615234179999,-0.07019042968,0.25231933593,0.006916559518642435,0.08274898140434123,1.0147295771628,0.6294704063,1.41763837239,0.05422512373095541,0.23169564625526706,971.1977654518273,971.1535234971,971.27247890929,0.0007242497691525314,0.11895541219007555,0.026776991456491265,0.0007026769679242743,0.45780209555961315,0.43,0.57,0.5510749450462721,Stairs down
0.9955151367144001,0.65405273437,1.39306640625,0.03539800150838532,0.187200484757122,0.08800292968439999,-0.1845703125,0.30883789062,0.009462553346818378,0.09678805615028227,0.0718701171848,-0.08117675781,0.31408691406,0.0078136304168388,0.08795165781649833,1.0096938986768,0.66010610401,1.42784610838,0.03699584969443627,0.19137892046276128,971.2436270838375,971.20901185509,971.27562981873,0.0003692579481824029,0.06661796363994199,0.019119763824393305,7.107118118386434e-05,-1.2170505736370256,0.43,0.57,-0.0480802104668175,Stairs down
0.9986755371054999,0.68566894531,1.39306640625,0.04574456792165684,0.21280771189606892,0.1198510742162,-0.01354980468,0.30883789062,0.006629887969536127,0.08101598045966465,0.0192248535144,-0.12438964843,0.103515625,0.004122340767417036,0.0638836235645949,1.0106203830730998,0.69253596453,1.42784610838,0.04713633677154047,0.21602077076944493,971.3068464282022,971.27019071286,971.33910831805,0.00045101859727565485,0.0689176051899949,0.021130745640012286,0.0006418455588101269,-1.3311986424269364,0.43,0.57,-0.04681989857793701,Stairs down
1.0049084472615,0.65002441406,1.44958496093,0.062420917368460026,0.24858943701367406,0.09401977538880002,-0.02795410156,0.22497558593,0.004630652429452713,0.06770779796417976,-0.0091821289065,-0.21276855468,0.12670898437,0.006430245884026946,0.07978686248491462,1.0144313590395,0.65427763042,1.4614355034,0.06307174985186557,0.24988203687609664,971.360331362986,971.32948932698,971.41421296776,0.0006024519126015402,0.08472364077999828,0.024421863022208702,0.0007161929491566119,-0.7530784630275091,0.59,0.41,0.6165598330087654,Stairs down
0.9833593749963001,0.72253417968,1.31274414062,0.0360270717167781,0.18885656197127576,0.0803369140594,-0.02954101562,0.17065429687,0.0024604259354904442,0.049354044172038626,-0.0089184570317,-0.17553710937,0.11291503906,0.005763102606703165,0.07553457208878682,0.9909099608413999,0.72418073741,1.31360505904,0.03579268968710617,0.18824123562661588,971.4241528956202,971.38577050687,971.47649601509,0.0004240987260162845,0.09072550821997538,0.020490430419005883,0.0006337860102669212,-0.6227520337007402,0.51,0.49,0.0969375103408577,Stairs down
1.0026440429649,0.59216308593,1.44995117187,0.05441912232645251,0.23210973935444412,0.09819946288680001,-0.07482910156,0.35168457031,0.009807161120986554,0.09853471220730636,0.0526782226557,-0.10729980468,0.21618652343,0.009945636872722347,0.09922792199776796,1.0123986937630998,0.60590719529,1.46668234325,0.055046435365323096,0.23344372129416946,971.5053649260459,971.46482142662,971.57947790122,0.001155124709628768,0.11465647459999673,0.03381676304042834,0.0005690442521856181,-0.09265664512320981,0.67,0.33,0.9491308051526747,Stairs down
0.9777709960894001,0.76342773437,1.20495605468,0.011547894941349933,0.106922476551642,0.1240624999968,-0.01928710937,0.30090332031,0.007008370389517937,0.08329637858648332,0.021921386718,-0.10510253906,0.19421386718,0.005438382029020896,0.07337573310523506,0.9922814131272001,0.7795552755,1.20825004153,0.011151989843245691,0.10507364058037218,971.5293709690517,971.49359587631,971.59499115535,0.0005214176493749308,0.10139527904004808,0.022720111638836228,0.00017231779284590775,0.8566072408514303,0.56,0.44,0.7321034043916407,Stairs down
0.9896362304645998,0.7421875,1.31823730468,0.03198699171475499,0.17795258300347155,0.19180419921540004,0.00415039062,0.646484375,0.01887769458881573,0.13670741619578497,0.0270117187508,-0.14489746093,0.236328125,0.009014812406533308,0.09447044131614912,1.0208309975320002,0.7592360703,1.33337071547,0.03442740468336923,0.18461617111330075,971.584132269763,971.5278820183,971.78075705051,0.003415420245359463,0.2528750322099995,0.05814865469558061,0.0003184511631285721,3.30528208297177,0.67,0.33,1.9096182609544303,Stairs down
0.9834428267019192,0.80139160156,1.19470214843,0.012362566363461383,0.11062410205624112,0.2649480646276768,0.01403808593,0.68090820312,0.026286478028179933,0.16131013002318642,0.051529701308787874,-0.12744140625,0.32824707031,0.014303810026063934,0.11899297078612557,1.0361636268033336,0.81855420181,1.31734410505,0.01898728682251245,0.13709666679583232,971.6274424846732,971.51843539803,971.72983189032,0.003208371934686492,0.21139649229007773,0.056355693034212846,8.369232904149079e-05,-0.9366192798847441,0.53,0.47,-0.005459944446201657,Stairs down
0.9946023166733663,0.7958984375,1.22583007812,0.014810446680631664,0.12109421371264945,0.1644577177423762,-0.05603027343,0.34643554687,0.011843235834653111,0.10828654613530701,-0.0021839708395049507,-0.11096191406,0.11853027343,0.003421508342006816,0.058203367787344806,1.0145914158424751,0.81099534094,1.25786919791,0.016833220118484173,0.1290990107350037,971.6181273789872,971.58022547302,971.66518076357,0.0007236528254783549,0.08495529054994222,0.02676729246707954,6.155865067125719e-05,-1.2110736993750986,0.52,0.48,0.2947188854562476,Stairs down
0.9908886718713998,0.78820800781,1.28381347656,0.018328048821622648,0.13470251791784152,0.19858886718360005,0.01232910156,0.51098632812,0.01426583971638564,0.11884099174620592,-0.03155029296839999,-0.17944335937,0.09582519531,0.005300086080116405,0.07243676704074554,1.0182440133494,0.78863122692,1.32486927741,0.02321968014957414,0.15161623708586888,971.607263724393,971.55282264408,971.65414087324,0.0006327524252788326,0.10131822915991506,0.025028481796266516,-0.00016226440481752753,0.06177448659395868,0.43,0.57,-0.2984627430712807,Stairs down
0.9822924804646002,0.81860351562,1.15515136718,0.010490320794434918,0.10190886902762962,0.18175048827800006,0.00244140625,0.42175292968,0.008557351099114397,0.09204225979474458,0.010603027344,-0.09936523437,0.17114257812,0.005589110086214797,0.07438561006910308,1.0051934900366,0.845365144,1.20087501765,0.012142063740900487,0.10963869345943285,971.6242442454351,971.58257298272,971.68829791818,0.0007662288521239165,0.10572493545998896,0.027542087132290418,-0.00014367333034053968,-0.2187244028068127,0.53,0.47,0.49876085950394655,Stairs down
0.9822290039016,0.82482910156,1.19091796875,0.00919668186192499,0.09541863048328529,0.1237402343724,0.00463867187,0.31311035156,0.0060925636869312684,0.07766362114955724,0.024167480468000005,-0.09460449218,0.17114257812,0.006071944121960683,0.07753208807159186,0.9962712794105997,0.845365144,1.22563945151,0.00935418627714236,0.09623224207286732,971.6132885860153,971.58249523116,971.63337634225,0.00019241248518635245,0.050881111090006925,0.013801752074808797,-0.0001700223499616791,-0.75610886550629,0.48,0.52,-0.3406868885642247,Stairs down
0.969616699215,0.63732910156,1.32666015625,0.03880796844946202,0.19600992006775422,0.122919921873,-0.13439941406,0.34228515625,0.012653926381849347,0.1119258107767411,0.0071875000002,-0.1337890625,0.14916992187,0.00635052307645453,0.07929071727314607,0.9877150396767999,0.66389693271,1.33351647589,0.03734424734329767,0.19227793651343542,971.6376121650012,971.59234939882,971.68382400563,0.0006135618242136863,0.09147460680992481,0.024646018055084467,0.0006285549216903079,-0.8619026520239466,0.43,0.57,-0.18322767627632094,Stairs down
0.9916381835903998,0.64306640625,1.37963867187,0.04691047755693046,0.2155026050454174,0.10590332031019999,-0.0615234375,0.3369140625,0.01119908790377624,0.10529528491218625,0.044938964843599986,-0.06030273437,0.20043945312,0.00412010545056861,0.06386630094238216,1.0045628776384,0.64814141419,1.42101428421,0.04953748488791316,0.22145453266762014,971.7081423003073,971.65329285531,971.75140765948,0.000753347290132545,0.0981148041699953,0.02730959203707041,0.0007174358811281241,-0.3679931028210066,0.39,0.61,-0.6273260760000634,Stairs down
0.9561132812469998,0.71850585937,1.39758300781,0.033726219721190914,0.18272645545727365,0.0699829101538,-0.12707519531,0.23510742187,0.00720009794706326,0.08442805794043014,0.05589599609159999,-0.12951660156,0.23608398437,0.009471102344277763,0.09683176813853492,0.9687859903638,0.72116181784,1.40723618789,0.03386033066084797,0.1830893971649901,971.753355427888,971.71483526044,971.80496601515,0.0006825191969956824,0.09013075470988952,0.025994114815198564,0.0008281499819273244,-0.8887299992432078,0.55,0.45,0.545260683064508,Stairs down
1.0125610351518,0.65759277343,1.349609375,0.0460029300117781,0.2134078272033627,0.10161132812200002,-0.083984375,0.34558105468,0.013240735337707829,0.11449160661083742,0.04832763671740001,-0.14099121093,0.294921875,0.010987605861568338,0.10429635565518412,1.0290601731174,0.66302135978,1.37013817769,0.04899433432661331,0.22023712444396648,971.8310780650675,971.78886097186,971.87825635093,0.0006092679091563028,0.08939537906996975,0.02455962601638591,0.0005300602887316415,-0.5466762839044237,0.55,0.45,0.2550831011407228,Stairs down
0.9852856445266,0.71960449218,1.42883300781,0.04373369687158759,0.20807777368780095,0.08640380859180001,-0.09899902343,0.29455566406,0.008018099713514184,0.08909499826802311,0.0390405273424,-0.09533691406,0.20593261718,0.005537818591569483,0.07404350346690645,0.9957657900071996,0.73077941856,1.44460029065,0.045398780505544085,0.21200186956838057,971.8921621601266,971.85908149684,971.92808252124,0.0003285471769479863,0.069001024399995,0.018035013312401697,0.0004966760547971843,-0.6880491878059476,0.51,0.49,0.07440629508994903,Stairs down
1.0388208007776,0.68920898437,1.44677734375,0.05668066215627418,0.23688363289748712,0.1026171874978,-0.04174804687,0.29956054687,0.006537862955687778,0.08045175154172159,0.0280102539042,-0.11584472656,0.16491699218,0.005095868525653867,0.07102752875045934,1.0490133252898002,0.69294955539,1.46346918845,0.058248293621521105,0.2401370664543604,971.9742950245424,971.92410817224,972.03359824802,0.0011454804967313736,0.10949007577994507,0.03367529794618096,0.0010912969529415977,-1.1803508412029342,0.51,0.49,0.22674759587359605,Stairs down
0.983823242183,0.69445800781,1.40161132812,0.047472938287273066,0.21679070299346404,0.17026367187199998,-0.03234863281,0.47937011718,0.016639846141766407,0.12834892940865827,0.0152172851566,-0.07604980468,0.14562988281,0.0030618434058160907,0.05505656156860806,1.0058053343282,0.70279019119,1.47012142314,0.052513097554744204,0.2280086984726608,972.0579504981735,972.01603978799,972.10793311659,0.0005166687286807177,0.09189332859989463,0.02261641088665287,0.00044569223080250794,-0.6410685976115778,0.51,0.49,-0.13853152505191071,Stairs down
0.9699121093715999,0.72045898437,1.283203125,0.02090452129221135,0.14385922312903415,0.06835693359100001,-0.07495117187,0.25573730468,0.0070546182052764845,0.0835707605758361,0.08713134765300001,-0.06665039062,0.287109375,0.005524510259372842,0.07395448030227184,0.9823133790377999,0.74508092949,1.31601204898,0.021417455190290258,0.14561346310828321,972.0986926974915,972.06520133365,972.12828324976,0.00023802585950450766,0.06308191611003622,0.015350752454178348,0.00017726733343211769,-0.3926450036498488,0.52,0.48,-0.21331909487627104,Stairs down
1.058037109372,0.69396972656,1.49206542968,0.0573700107467241,0.2383197655236696,0.1688500976534,-0.00109863281,0.36279296875,0.011382080262088298,0.10615205819703835,-0.0016333007805999999,-0.16345214843,0.12316894531,0.006921887331007281,0.0827808459590575,1.0778231951536,0.70781400987,1.52413190518,0.06178782474618386,0.24732558803876728,972.1637439899115,972.12283028288,972.22054004325,0.0008513364619449142,0.09770976036998036,0.029031415696198232,0.0008641105498218329,-0.7304291821902735,0.58,0.42,0.4361465963056093,Stairs down
0.9695703124956,0.70654296875,1.28393554687,0.020901159228656874,0.1438476542609239,0.2029296874966,0.00732421875,0.64868164062,0.017044520739145332,0.12990025223899251,-0.03326171874860001,-0.13391113281,0.10009765625,0.004377294814555867,0.06582949085638068,0.9997347722747999,0.72310879945,1.37966630537,0.02503385961033904,0.15742782795375043,972.2155971835888,972.17330935186,972.28297443656,0.0009597854276256933,0.10966508470005465,0.03082511270619195,0.0003422406512554923,-0.3840516963790095,0.66,0.34,0.6371750382835089,Stairs down
0.9983398437477998,0.8330078125,1.2802734375,0.012773946680226364,0.11245535653504506,0.19624023437120003,0.02709960937,0.39416503906,0.008816711228389494,0.09342667775376366,-0.03357666015579999,-0.20092773437,0.12634277343,0.007255600804541666,0.0847528453592931,1.0248411018022,0.87405162744,1.32011613006,0.01472583584632485,0.12074178020826759,972.2218985003611,972.186231982,972.28959726994,0.000546084453780246,0.10336528794005062,0.023251314140117836,0.00010053842770814827,1.2593513156165095,0.6,0.4,1.1534943618703042,Stairs down
0.9960327148402002,0.81604003906,1.26599121093,0.015668689752970682,0.12454719127881196,0.23129150390359995,-0.03991699218,0.46142578125,0.015632074776169794,0.12440158370538575,-0.025739746091800006,-0.17724609375,0.17004394531,0.006833584025367012,0.08225112877713801,1.0316612149128,0.82994302884,1.34309624693,0.019866268738198814,0.14024124233197888,972.2256563392278,972.18844057177,972.27800753337,0.0006039014298597964,0.089566961599985,0.024451225236400698,0.0001295916667907461,-0.24806125066774332,0.46,0.54,0.34062756573977665,Stairs down
0.99640380859,0.84167480468,1.24072265625,0.010174882658974704,0.10036500302588028,0.14084472655900002,-0.06201171875,0.26940917968,0.008684507523678432,0.09272358086507254,-0.0538574218726,-0.15441894531,0.0888671875,0.0031537305223357432,0.05587658916856312,1.0133221822760001,0.84167814191,1.26264240717,0.010635912187620857,0.10261361052874345,972.2288996689389,972.18733729566,972.29776182708,0.0009008621053020372,0.11042453141999431,0.029863916090309,-9.649051035681012e-05,-0.030174034361200253,0.62,0.38,0.8477938060264657,Stairs down
1.0019653320268,0.86376953125,1.18737792968,0.0074676300840079155,0.0859822876130185,0.17914062499619995,-0.02978515625,0.49060058593,0.017495649775710134,0.13160810490981562,0.02188476562360001,-0.12438964843,0.21533203125,0.008214427990780001,0.09017917559432556,1.0302457100086,0.86465421734,1.22379436476,0.008024788741340615,0.08913215387236645,972.1996444581114,972.160777712,972.25396527557,0.0006812958736958492,0.09318756356992708,0.025970808900742593,-0.00010316073566327573,-0.527978797474892,0.54,0.46,0.5862693286876242,Stairs down
0.955810546871,0.72827148437,1.21130371093,0.019828586265162918,0.14010817393182773,0.21342529296440002,0.03076171875,0.46520996093,0.011083030273237444,0.10474826953465662,0.1809887695276,-0.04113769531,0.40026855468,0.01233193826772353,0.11049261914284725,1.0081628272319998,0.7769697526,1.28586952219,0.01848477265396322,0.1352772151081755,972.2159673732831,972.0079888625,972.55174488643,0.023791359617863543,0.5437560239299728,0.15347131986688883,-0.0019343391332638132,-0.4205060165759882,0.62,0.38,0.7384343097536485,Stairs down
0.9595849609346,0.64074707031,1.41076660156,0.060275474485971495,0.2442800027450298,0.22559814452719998,0.046875,0.43432617187,0.009984340481016813,0.09942080806454273,0.10659179687199999,0.05041503906,0.17114257812,0.0014062848958467855,0.03731249183434842,0.9963342610333998,0.67802385639,1.4218967719,0.06194657614022757,0.2476431109052406,972.2405950378047,972.17886102923,972.33650089051,0.0012445844008599932,0.1576398612800176,0.035101831246409254,0.001053728102488694,-0.11084597532701723,0.62,0.38,0.2565270974562596,Stairs down
0.9913476562463999,0.70080566406,1.31616210937,0.02594580773155211,0.16026961550536203,0.17251953124599992,0.06311035156,0.34692382812,0.005719697258674076,0.07524958661738505,0.11618652343300001,0.03161621093,0.23608398437,0.003698563937087809,0.060510976671319154,1.0172387378002001,0.71482701099,1.34983309866,0.026533586860600485,0.16207483145755383,972.3186318589795,972.27573142063,972.36100109272,0.00037825276234403093,0.08526967209002123,0.019351233416001954,0.00011435505340805367,0.14704915265575913,0.48,0.52,-0.2834158518674311,Stairs down
0.9369238281210001,0.57360839843,1.35437011718,0.04045100527598366,0.20011620429946153,0.24123535155859993,0.017578125,0.49035644531,0.01229279209853641,0.110317107365771,0.1178710937472,0.01513671875,0.36120605468,0.006678953315087295,0.0813152124878022,0.9830652671202,0.62439771481,1.37505172502,0.042753083888582025,0.2057317502227019,972.3665680122562,972.32737571793,972.4403243734,0.0008595480799401046,0.11294865547006339,0.02917109184005123,0.0006616703595553208,0.7530231729076275,0.58,0.42,1.0203518755819048,Stairs down
0.9141406249970001,0.64599609375,1.36682128906,0.04266540375618576,0.2055206795400986,0.25057617187,0.09350585937,0.49035644531,0.008396236607660505,0.09117167455730918,0.1624731445288,0.04699707031,0.3203125,0.006157326872872985,0.07807530726256705,0.9675711054906,0.66581504911,1.41081700998,0.04574945076135288,0.21281906929065206,972.43144808651,972.391788661,972.47366909304,0.0007100432143502878,0.0818804320400659,0.026513068140198052,0.0007152798687669005,-1.244490984031818,0.42,0.58,0.0434922910567462,Stairs down
0.9591235351519998,0.60534667968,1.28442382812,0.04931852733887644,0.22096457196910024,0.3440649414034,0.16247558593,0.52685546875,0.008692247151099697,0.09276488926090894,0.1642187499964,0.07507324218,0.32287597656,0.004297705635999806,0.06522828052033726,1.0360194128367999,0.64291551538,1.39729266483,0.054157180793646446,0.23155044587672463,972.5007488357269,972.44638519449,972.55064030366,0.00079901799251041,0.10425510917002612,0.028125216667348643,0.0005780206747244559,-0.6718519568245358,0.46,0.54,-0.30477785190977263,Stairs down
0.8902294921831999,0.62194824218,1.28662109375,0.035728787870160754,0.1880731240540741,0.3311474609346,0.10546875,0.60559082031,0.016427676220066238,0.12752803400768623,0.14415527343440002,0.03588867187,0.30285644531,0.005002083706069879,0.07037089504197869,0.9687104889078,0.70061201733,1.38355352729,0.04155038736742611,0.20281736487232016,972.5390492549271,972.49652487352,972.58638239828,0.0005750771566952808,0.08985752475996378,0.023860561291141665,0.000379722543220873,-0.6758692873290828,0.44,0.56,-0.3276884552004448,Stairs down
0.9781518554651999,0.62231445312,1.35668945312,0.035412017438191154,0.1872375423461044,0.2125585937474,-0.07019042968,0.46435546875,0.01712403697173168,0.13020290550527036,0.1567138671842,0.00622558593,0.44860839843,0.009616895757492996,0.09757421175658078,1.0255579624476,0.71372820627,1.46024831029,0.03665023295050163,0.19048288800046217,972.6054895218997,972.55241456156,972.66652343298,0.000983867830604189,0.11410887141994408,0.031209440115102145,0.0008294182980356681,-0.6346769662434273,0.58,0.42,0.30362780648671367,Stairs down
