avg_accX,min_accX,max_accX,var_accX,std_accX,avg_accY,min_accY,max_accY,var_accY,std_accY,avg_accZ,min_accZ,max_accZ,var_accZ,std_accZ,avg_magnitude,min_magnitude,max_magnitude,var_magnitude,std_magnitude,Label
-0.7624900973531887,-1.40466308593,-0.03637695312,0.157698415853785,0.3966057538369898,0.5015199622297194,0.03479003906,1.16674804687,0.1190418140308889,0.3445840041758632,0.0008803387072449,-0.54846191406,0.36804199218,0.0469173246099095,0.2163276162613853,1.0631833854375763,0.59428378003,1.47421407895,0.0254521113253965,0.1593335572626638,Null
-1.13447204589435,-1.53295898437,-0.84350585937,0.024568098768137,0.156546090724798,0.1970233154262,-0.15966796875,0.48315429687,0.0202280502535628,0.142047457308918,0.09789093017325,-0.29968261718,0.37316894531,0.0181199940590479,0.1344421588412664,1.171479731780275,0.85195739584,1.53563265894,0.02588645082604,0.1606914269616613,Null
-1.1227722167932002,-1.40881347656,-0.85034179687,0.0173169014072599,0.1314291031459233,0.1705581665007,-0.107421875,0.51684570312,0.0237204450761408,0.153821792875556,0.1058303832983749,-0.12817382812,0.51818847656,0.013064981269705,0.1141591819195057,1.155333602281775,0.86996431217,1.45345482108,0.0201292715419521,0.1417002059387962,Null
0.1363708496079499,-1.53466796875,1.07470703125,0.492776037266963,0.7011020590283527,0.1008081054675,-0.84594726562,1.10290527343,0.1915794761474545,0.4371504631783957,-0.5016653442349001,-1.0888671875,0.19641113281,0.136626182562175,0.3691674648527001,1.0220962828143,0.39822017128,1.56319435427,0.0548128629092348,0.2338286354404903,Null
-0.664545540855404,-1.48693847656,1.1005859375,0.5746366466964922,0.7570901822460249,0.2366511797631313,-0.00854492187,0.86340332031,0.0304067929523575,0.1741551266017449,-0.0131395128049242,-0.61181640625,0.39807128906,0.0357126283244441,0.1887390921870305,1.0534655113948233,0.61481587541,1.63520256137,0.0272143400272851,0.1647592696827956,Null
-0.7648586520876365,-1.69226074218,0.81213378906,0.379160519192289,0.61495990655888,0.2207573432402078,-0.58093261718,0.90393066406,0.0650688742377833,0.2547545174767821,-0.117192573051974,-1.12976074218,0.41796875,0.1316512154602015,0.3623662018610648,1.0745048296802855,0.4529269542,1.82197425369,0.0673019808216143,0.2590891168725887,Null
-0.1075610017106026,-0.69750976562,0.98889160156,0.2438656398635811,0.4931506005500338,0.6078643380755616,-0.916015625,1.32995605468,0.3014695471419992,0.5483097693614684,-0.1471646243567671,-0.65478515625,0.28186035156,0.0521626505755205,0.2280783619813172,0.9924516761460822,0.63438749348,1.42827725819,0.0136638120762981,0.1167320734619207,lift down
-0.4707453395142075,-1.47534179687,0.88098144531,0.2080803250159297,0.4555004609225,0.7350754091955619,-0.00476074218,1.41052246093,0.0985928118022895,0.3135421545209654,-0.0143423822486167,-0.73803710937,0.81774902343,0.0720439511355347,0.2680230058778775,1.0528483833038618,0.27060939933,1.54547866259,0.0311581422202406,0.1762621607242445,Null
-0.7405029296852058,-1.32666015625,0.91528320312,0.3590347154272776,0.5983132381705578,0.2010336483195588,-0.28955078125,0.71264648437,0.0248365960923297,0.1573643774184407,-0.1124131146622058,-1.15234375,0.18298339843,0.127273169401797,0.3562286296055039,1.0471644392805295,0.71909191457,1.41678113568,0.0145263012982267,0.1203477331844837,Null
-0.4137742375720483,-1.13647460937,0.04846191406,0.0950101814160419,0.3077726533836509,0.7113184182006627,0.16296386718,1.09436035156,0.0352041417550885,0.1873448829926695,-0.0145006294714157,-0.93981933593,0.73266601562,0.3029304674008167,0.5495616673622231,1.0486893307016865,0.74225731571,1.35561693244,0.009512758152224,0.0973863710496669,Null
-0.3168773066013803,-0.626953125,0.05114746093,0.0098588128965046,0.0991391503854731,0.7160206426106441,-0.04675292968,1.43225097656,0.0345238679651327,0.1855207981053791,0.2555182521314111,-0.81298828125,0.69738769531,0.3202495590150842,0.5650373424868559,1.0144114170025154,0.5509061604,1.44447820657,0.0129091770876487,0.1134441641730676,lift down
-0.2242156121388087,-0.34826660156,-0.103515625,0.0029562441690277,0.0542860658542073,0.7528477970674607,0.52795410156,0.90173339843,0.002833199127996,0.0531443094416269,-0.640691201137931,-0.75891113281,-0.52905273437,0.0020853071644826,0.0455935319034162,1.0168955492637932,0.91468094827,1.11628930458,0.0013152912740419,0.0362100552872248,lift down
-0.7040587586202273,-1.30676269531,-0.01147460937,0.2048148908974311,0.4518295115255604,0.4425104314591883,-0.06616210937,0.89245605468,0.1007018956842618,0.3168200458896102,-0.154693603514935,-0.66882324218,0.67895507812,0.1465987221276546,0.3822600584034602,1.0729324938468503,0.68414408737,1.33474282615,0.0149563529587744,0.1220974748766163,Null
-0.9930739389599174,-1.16809082031,-0.89172363281,0.0021067006539185,0.0458355437499101,0.2145135212168595,-0.12414550781,0.4765625,0.0082287467093608,0.0905874052263533,0.0957949299418732,-0.18017578125,0.30297851562,0.0045335845922547,0.0672390911486909,1.0267890309788432,0.94037075788,1.19515548248,0.0019262303449701,0.04382834613908,Null
-1.1271405557912595,-1.67175292968,-0.6484375,0.0682359758477384,0.2608771335289264,0.2278700300370078,-0.08703613281,0.5869140625,0.0266283883953511,0.1629677809021196,0.0482520556494488,-0.18579101562,0.27197265625,0.0088344840994805,0.0938685063116072,1.165442993203412,0.6674321568,1.70373631364,0.0700520099966195,0.264325833874257,stairs down
-1.1609080693461915,-1.798828125,-0.55920410156,0.0616094127291161,0.247872184436918,0.2403708261961369,-0.11267089843,0.65979003906,0.042505244301407,0.2058853845645522,0.0668222923781917,-0.109375,0.3369140625,0.0089178593835792,0.0943049674837832,1.2083232796602192,0.56293981629,1.82073842742,0.062800644995093,0.2502570447229461,stairs down
-0.9042246689502124,-1.701171875,0.85913085937,0.4135925461881873,0.6422581130133389,0.2048838486381962,-0.876953125,1.00268554687,0.0935098798775464,0.3053880204934292,0.0114422299810079,-0.66320800781,0.29077148437,0.0309175808320182,0.1756006017466627,1.1538166332501858,0.62630758593,1.86798030988,0.0652035967958685,0.2550110643839081,stairs down
-1.0369311999442898,-1.78601074218,0.11560058593,0.2174167310534534,0.4656298029746453,0.3019839315999442,-0.35473632812,1.10766601562,0.0775845565758669,0.2781518355231607,-0.0226761756843175,-0.69018554687,0.27478027343,0.0425275908357186,0.205934770206269,1.1915978474089135,0.69710372199,1.8135597896,0.0838516439986698,0.2891678992552188,stairs down
-0.3412682399254269,-1.15588378906,0.27294921875,0.0839630097932719,0.2893643148973109,0.8432660904098072,0.29187011718,1.35119628906,0.0244484106865396,0.1561443553027543,0.114831173058292,-0.50903320312,0.75268554687,0.1084350578291217,0.3288409017466477,1.021871567382259,0.6711025233,1.36055810459,0.0128108054647294,0.1130288192879141,Null
-0.4894056532096945,-1.63671875,0.88061523437,0.3997428859632358,0.6313734941045454,0.4493218315953611,-0.55041503906,1.51501464843,0.2067118344880817,0.4540238264098449,0.0863735622817222,-0.541015625,0.76550292968,0.1439215046150848,0.3788426093482895,1.0670730943559168,0.19301806294,1.75895779492,0.05867824709895,0.2418992599577757,stairs up
-0.9462280273409552,-1.92651367187,1.23107910156,0.6133608631221495,0.7820728478532767,0.2187990338591573,-0.33361816406,0.88781738281,0.0744045724972035,0.2723886394273176,0.0612515224492696,-0.49975585937,0.78356933593,0.0704991333305778,0.2651435499067955,1.2628289049632584,0.3586591557,2.14815929345,0.1057251284143371,0.3246970090970103,stairs up
-0.7914895450341738,-1.42663574218,0.38232421875,0.3706558214890997,0.6079618161433249,0.3449724127905602,-0.27575683593,1.0859375,0.1067554134883231,0.3262765371837931,0.1358529740008683,-0.77282714843,0.96899414062,0.1096885458771467,0.3307284309646802,1.146446075119944,0.69870250973,1.46074745655,0.0351327475823627,0.1871746150649417,stairs up
-0.702798564780674,-1.8427734375,1.03625488281,0.6743680010418434,0.8200449432220683,0.3290559575769101,-0.37072753906,0.92895507812,0.0892367724507174,0.2983053927765366,0.0365833753938483,-0.51892089843,0.59606933593,0.0808660593659109,0.2839699060001948,1.1654502932595503,0.40515381299,2.09829631466,0.0876124292779406,0.295577954097575,stairs up
-1.1399252448245916,-1.49816894531,-0.77600097656,0.0260558208156669,0.1611906453157655,0.1412415410410704,-0.39514160156,0.57531738281,0.0349266679385822,0.1866233719513008,0.100417102220676,-0.14660644531,0.39965820312,0.0152833120754122,0.123451449939242,1.1743374430947322,0.78169640185,1.49896591026,0.0268345357174693,0.1635816171701812,stairs up
-1.1032285210772903,-1.43041992187,-0.86535644531,0.0177439925238639,0.1330204055734945,0.1454307513501955,-0.20825195312,0.50256347656,0.0233745679013458,0.1526737561345628,0.0648871906625977,-0.22265625,0.25524902343,0.0136565063667126,0.1166977279165443,1.1307585435251954,0.89554550108,1.44530051973,0.0185325676731653,0.1359441088254936,stairs up
-0.5799022099729588,-1.52819824218,1.13012695312,0.760122236308521,0.8706547591518139,0.2181774400656438,-0.11853027343,1.02905273437,0.0482362816624813,0.2193265316056079,-0.0215579516258904,-0.41625976562,0.43518066406,0.0421647235165148,0.2050590249807567,1.083990358885041,0.43220450391,1.72299702186,0.0576686527408383,0.2398137953328776,stairs up
-1.2213167668638274,-1.49658203125,-0.85229492187,0.020630362296763,0.1434390283403342,0.16171585452938,-0.36145019531,0.58874511718,0.0460293400289815,0.2142551556602935,0.0939977599591105,-0.29455566406,0.41650390625,0.0229023903068166,0.151131263465094,1.2625888969885717,0.85841577922,1.53474162474,0.0218511019295514,0.1476218279275959,stairs up
-1.1369147502161128,-1.43444824218,-0.78991699218,0.0193658506799357,0.1389650998915899,0.1311561262087042,-0.29345703125,0.53063964843,0.0330452577642782,0.1815273327384597,0.0785266285190704,-0.22387695312,0.39147949218,0.0145097553014905,0.1202866690508367,1.166499865114338,0.80034578159,1.46687577768,0.022015945794292,0.1481685831935222,stairs up
-0.9080923945493444,-1.51049804687,0.93737792968,0.3532985175618205,0.5935766345348762,0.1768241840607103,-0.6982421875,0.93225097656,0.0620227080004556,0.2487031303575302,0.0455272236805191,-0.4228515625,0.4833984375,0.0384614272624257,0.1958477505502386,1.1305255755957375,0.63714297619,1.54125292537,0.0325148881303347,0.180072345567484,Null
-0.1170871540627401,-0.58129882812,0.90075683593,0.0576244909162525,0.239711722426056,0.8232739119844633,-0.75817871093,1.16528320312,0.0925153249074964,0.3037334064303251,-0.4598143841553107,-0.93188476562,0.18188476562,0.0336289557263642,0.1831227967138164,1.0387251308795762,0.65122113742,1.35138562318,0.0068525990064419,0.0826634222744856,Null
-1.0322671408149178,-1.88989257812,0.22338867187,0.2390266319748396,0.4882314670353398,0.1574717091973077,-0.62036132812,0.6474609375,0.0897421774020489,0.2991582072393078,0.0759042593131318,-0.94567871093,0.63061523437,0.0790527135587542,0.2807766652951278,1.1809839889885714,0.48559409208,1.91169749919,0.1090688791008294,0.3298018182531441,stairs down
-0.5025891570594525,-1.95825195312,1.26684570312,0.8945113972394123,0.9444223391026236,0.1283641452383861,-0.84216308593,0.66589355468,0.1317151949191306,0.3624025554888364,-0.0632260896982132,-0.84777832031,0.44506835937,0.1127156383133208,0.335247385350675,1.1334072583704322,0.55409200698,2.0059705293,0.1244774404867682,0.3523048621214508,stairs down
-0.548589440027933,-0.83984375,-0.22778320312,0.017197894335659,0.1309574569265361,0.8113549941041899,0.36450195312,1.08935546875,0.0146234679261688,0.1207585204049693,-0.0050222727164525,-0.52160644531,0.91491699218,0.0811007058625991,0.2843838384614476,1.0329215804251677,0.85753734219,1.27372173343,0.0049660470778047,0.070371694863223,Null
-0.6068349854170474,-1.14013671875,0.2958984375,0.1923438521110182,0.4379589882217179,0.5778577374172981,0.07629394531,1.39514160156,0.1361441208130282,0.3684628736775661,0.0235140064616713,-0.50695800781,0.29357910156,0.0436248376363013,0.2085744950436614,1.028825015589638,0.66228472657,1.4290329159,0.0153593282876487,0.1237600284558525,Null
0.2042102599397471,-0.74169921875,1.1015625,0.1307430932507843,0.3610759440489859,0.8022779829010394,0.15649414062,1.66857910156,0.0939548809221909,0.3060897951865649,-0.3386871680749157,-0.8720703125,0.27502441406,0.0764828914808675,0.2761667103364491,1.03097138896309,0.70996356108,1.69809380048,0.0378621595804288,0.1943085309490681,Null
0.1163059950546779,-0.58215332031,1.09887695312,0.3838386231518789,0.6186787897897965,0.5199743960048179,-0.52819824218,1.21276855468,0.1129556856282878,0.3356177634564898,0.2186720391279552,-0.51477050781,0.92199707031,0.1889337200933716,0.4340558650527227,1.0016834788466669,0.58231588738,1.35121358656,0.0121894921949504,0.1102512945915386,Null
-0.2946507216135294,-0.47253417968,-0.11999511718,0.0086502625164148,0.0928764345202702,0.6568070099097479,0.2978515625,1.01281738281,0.0278504673278379,0.1666506970111874,0.6595414532961345,0.09448242187,0.95092773437,0.0458863344305555,0.213910732037666,1.016454338937227,0.89513427698,1.14497466497,0.0021924309345662,0.0467577765879025,lift down
-0.1539531330455769,-0.23107910156,-0.08813476562,0.000456301989766,0.0213318637927183,0.469324468253022,0.43835449218,0.56494140625,0.0008285179261117,0.0287444216842699,0.8732165661454945,0.73889160156,0.9052734375,0.0011753271846023,0.034235920664786,1.004315343076264,0.94468943499,1.03108529018,0.0002790417810998,0.0166815821431938,lift down
-0.1582027968501881,-0.1748046875,-0.12805175781,0.0001223950452348,0.0110483494828869,0.442649923341129,0.42248535156,0.46936035156,0.0001234485625858,0.0110957970246023,0.9098317136008872,0.87915039062,0.95971679687,0.0004530834076278,0.0212571268396819,1.0242015462037903,0.9968287206,1.07708405953,0.0004703319058403,0.0216579678815929,lift down
-0.2785532321730641,-0.45300292968,-0.12036132812,0.0075028983227607,0.0864985484533457,0.427983616051922,0.29357910156,0.78491210937,0.0107184079262144,0.1033854517653543,0.8558315606466295,0.12219238281,0.96643066406,0.0223531644654768,0.1493013710030832,1.0158977063889971,0.84956578986,1.1742039807,0.0016273720912727,0.0402844761835202,Null
-0.7835816763753278,-1.29541015625,-0.22290039062,0.1186750287576342,0.3440214819530631,0.2690232907464754,-0.71606445312,0.99780273437,0.0812477176103531,0.2846501876178396,0.3150167829979508,-0.2783203125,1.00061035156,0.1363600406917406,0.368764792617937,1.0513122964234152,0.60545246963,1.46495554688,0.0157588420509727,0.1253626144649123,Null
-0.7153831547117092,-1.40954589843,0.90270996093,0.4497580753629472,0.6696840399209736,0.2120556084151282,-0.11743164062,1.0703125,0.0585551619980914,0.2416367897790712,0.0146011395992307,-0.57495117187,0.29125976562,0.0442248004365945,0.2099971520143882,1.0335710459789458,0.40905748968,1.63288701722,0.0397618623102741,0.1991195134869271,Null
-0.1430158000709523,-1.37561035156,0.33471679687,0.2518880501461341,0.5011810864131026,0.7848324388317648,-0.06091308593,1.18481445312,0.0923850160852929,0.3035230378861397,0.3175602760597479,-0.09191894531,0.62573242187,0.0206446176535211,0.1434809729297479,1.0382141043257145,0.73127125195,1.40364036547,0.0233323408189238,0.1525351897823977,stairs up
0.2829945882128611,-0.07238769531,1.20263671875,0.0486435538369534,0.2202463004322049,0.8587398952873334,0.45397949218,1.20922851562,0.0315270497854292,0.177311800642643,0.393330213755639,-0.17736816406,0.73986816406,0.0420779854243286,0.2048440922542879,1.0295831766553334,0.73317898084,1.39174311403,0.0341912694998482,0.1846518176223498,stairs up
-0.8878259311506441,-1.3837890625,1.0205078125,0.2685801238327804,0.5175208194420181,0.2279579312161905,-0.52062988281,0.9501953125,0.053015088330312,0.2299273508792026,0.1301861076439776,-0.1591796875,0.44458007812,0.0211417868880815,0.1451983684361442,1.0808193274140057,0.5957777258,1.41185752976,0.0308410474627932,0.1753700600846733,stairs up
-1.0808037081983195,-1.37658691406,-0.81701660156,0.0162032168267047,0.1271134519424486,0.1613195082684313,-0.11791992187,0.47143554687,0.0116785868055846,0.1079160492108458,0.1403158919784033,-0.17126464843,0.32336425781,0.008363095849823,0.0913217926402457,1.1105870279184311,0.83034063339,1.4280210382,0.0166356138744737,0.1287983521489382,stairs up
-1.1261706405770229,-1.66833496093,-0.84948730468,0.022427491156317,0.1495476264795039,0.1259779340745786,-0.3564453125,0.70764160156,0.042328455663503,0.2054496422657992,0.1413008443400842,-0.2587890625,0.46374511718,0.0199460952429579,0.1410321484113955,1.168632714067472,0.87088658559,1.69871002562,0.0229227645611177,0.1511898633276209,stairs up
-1.0633919729267045,-1.431640625,-0.78527832031,0.0255077907903474,0.1594864817423208,0.1073180292671267,-0.47497558593,0.36145019531,0.0190132397159066,0.1376941585332206,0.0857810436811267,-0.2587890625,0.25866699218,0.0098015862088651,0.0988634214806887,1.0857177106369014,0.80717501361,1.44188010431,0.0251354872059806,0.1583182965316012,stairs up
-1.0344948385526316,-1.36596679687,-0.77001953125,0.0221097710992644,0.1484874580425646,0.0915899303122714,-0.16552734375,0.27368164062,0.0070753793946688,0.0839986905002925,0.0395565297134903,-0.21704101562,0.32690429687,0.0166418136069192,0.1288243548412019,1.050843356683989,0.77232080821,1.37145752713,0.0216211570846984,0.1468375452083074,stairs up
-1.0633928571395428,-1.37585449218,-0.80908203125,0.0198713844786955,0.1407643743795664,0.1393913922951714,-0.03442382812,0.38842773437,0.0074503351371427,0.0861919280752107,0.0745159040156,-0.13500976562,0.25732421875,0.0092887020204621,0.0962401312957972,1.0831795709902572,0.82147284593,1.37692959271,0.0203078959651755,0.1423020498983591,stairs up
-1.1059328189528377,-1.42199707031,-0.80090332031,0.0252416851655286,0.1586573315127875,0.1547525369074655,-0.13427734375,0.44775390625,0.0169616782480573,0.1300574944464912,0.1513083381735261,-0.18530273437,0.55456542968,0.0242169797673467,0.155403559561747,1.1440742603359229,0.8322697508,1.52669459155,0.0268356474673859,0.1635900976951065,stairs up
-1.073473736341003,-1.35852050781,-0.80871582031,0.0201604894816458,0.141784071870361,0.1059248522532378,-0.10595703125,0.31433105468,0.0083617304137107,0.0913113974308656,0.0739214440797134,-0.17858886718,0.38732910156,0.015322964243902,0.1236084904131952,1.092702972918281,0.88443295117,1.38041324234,0.0188039625970209,0.1369309426244936,stairs up
-1.0470975988016529,-1.43725585937,-0.77966308593,0.0203709188757175,0.1425266904067676,0.0885389311948739,-0.23352050781,0.24206542968,0.0075276526038668,0.0866404451871718,0.0574821237069467,-0.17944335937,0.24450683593,0.014043855865419,0.1183406833408662,1.063160643449524,0.79072145243,1.44243870693,0.0191246765956678,0.1380981754875526,stairs up
-1.0697306888170703,-1.30541992187,-0.84631347656,0.0150060114716794,0.122326370896997,0.1554223288917183,-0.11608886718,0.3837890625,0.0135838602751212,0.1163855484155145,0.0570360640388169,-0.24938964843,0.3623046875,0.0160767914478699,0.126615578470412,1.0957556941268451,0.85289077233,1.33584122004,0.0156373086690264,0.1248729751075561,stairs up
-0.8813951089307042,-1.5927734375,-0.27453613281,0.1147838241786299,0.3383200991112319,0.378532817998676,-0.1240234375,1.17883300781,0.1117043661765444,0.3337509640287674,0.0204266615309859,-0.51501464843,0.57531738281,0.042644783142272,0.2062150746007079,1.0747287240202534,0.53684523589,1.70473223277,0.0339904508110915,0.1841051413250806,stairs up
-1.0367386938785352,-1.453125,-0.76086425781,0.0247318406445544,0.157041948178852,0.1405259683064789,-0.19372558593,0.4306640625,0.0100769592690434,0.1002425731328042,0.0946632922510986,-0.30004882812,0.24487304687,0.0142969615637676,0.1194013753379839,1.061968609633183,0.78004482773,1.48694501549,0.0247957608081141,0.1572447569700501,stairs up
-1.0736642611189549,-1.50146484375,-0.7001953125,0.0387021227135655,0.1964504891398878,0.150176829534435,-0.11083984375,0.41137695312,0.0115351869481961,0.1072501826307593,0.0615772311949152,-0.34814453125,0.36633300781,0.0137322286388309,0.1170189601411093,1.097088111104322,0.70112482194,1.50425282733,0.0393975836067656,0.1982076966157141,stairs up
-0.3458795627624369,-1.92016601562,0.33630371093,0.3426647174594363,0.5845552773797283,0.6901824694687114,-0.00830078125,1.43017578125,0.1490101542520545,0.38547731303151,-0.0476091315430252,-0.70593261718,0.4912109375,0.0612114046271172,0.2470626319578791,1.0538950952243975,0.75718930762,1.93045119953,0.0390030984275787,0.1972152277361737,stairs up
-0.2004325564961017,-0.72924804687,0.34045410156,0.100225838183957,0.3161371764713527,0.5561688956540679,-0.20422363281,1.2470703125,0.1610973294781498,0.4008020113176008,-0.6045808091637571,-1.41430664062,0.12622070312,0.1143427916020371,0.3376681645726662,1.0341383121320056,0.75226004145,1.49191136826,0.0202348730361287,0.1420482748147073,stairs up
-0.2403502905074509,-1.7587890625,0.61450195312,0.498387137197403,0.7049759533461335,0.6370750448579272,-0.04455566406,1.40734863281,0.1169512003426492,0.3415019852708478,-0.1963359074080672,-0.98425292968,0.42895507812,0.1130138905353505,0.3357042225168514,1.0809630135283752,0.60955340879,1.78900365024,0.0597389381184007,0.2440729443369026,stairs up
-0.4644782210184916,-1.41162109375,1.18420410156,0.7158793574896642,0.8449140160276172,0.1598606216152513,-0.39086914062,0.83361816406,0.0697376544105041,0.2637097959749624,-0.0365423277105028,-0.58056640625,0.50244140625,0.0721970265615108,0.2683195089618929,1.0294523162330724,0.71347361725,1.58252275626,0.0383838337346946,0.195644106279816,stairs up
-1.0424672531568946,-1.32421875,-0.76525878906,0.0202947628448313,0.1422566097152134,0.1061406583835612,-0.11865234375,0.34631347656,0.0078333669789524,0.0883801430985046,0.0597285517926495,-0.19104003906,0.30456542968,0.0113275761762319,0.1062793671388459,1.0586373807809404,0.77787289269,1.33691157138,0.0202592243475155,0.1421320011807013,stairs up
-1.1297646693782306,-1.53686523437,-0.79028320312,0.0302128248482485,0.1735852105388713,0.1701689610184986,-0.15710449218,0.45861816406,0.0166608616218565,0.1289038185335167,0.1307507226019303,-0.15222167968,0.34765625,0.0167764299690615,0.1293501176845842,1.1649115022928418,0.79585033809,1.55710569491,0.0294552092025394,0.1713949847961033,stairs up
-1.0662047256340532,-1.552734375,-0.7666015625,0.030902497439611,0.1755308233114436,0.1142083342931952,-0.16796875,0.35681152343,0.0105470077336742,0.1025465921851217,0.0886512169452366,-0.24645996093,0.30236816406,0.0132551214456318,0.1149604501991613,1.0880053854109766,0.78280972234,1.55634109697,0.0311556383362334,0.1762482961377263,stairs up
-1.0485625395865676,-1.42260742187,-0.75720214843,0.0245244735456114,0.1563911480381077,0.1166913006729189,-0.09631347656,0.35241699218,0.0067248097457137,0.0818940448643175,0.0611793311853513,-0.24450683593,0.27880859375,0.0125756719591685,0.1119896587037222,1.0661829212340812,0.76400728981,1.43829233164,0.024535287443351,0.1564256240379636,stairs up
-0.5688567358560055,-1.32299804687,-0.07202148437,0.0925280541097768,0.3037649681729095,0.5388301292361156,-0.04602050781,0.94287109375,0.0591683341499878,0.2429101397313118,0.4482025062387878,-0.42956542968,0.9482421875,0.1372011832278977,0.3698962267120467,1.044655804223719,0.83842108236,1.51200649076,0.0116494339173091,0.1077837734209272,Null
-0.3610252227309455,-0.68469238281,-0.10083007812,0.011309946796494,0.1061957629670261,0.7362452291108597,0.53283691406,0.96887207031,0.0104871068559888,0.102259756694457,0.5789717972068769,0.02648925781,0.84045410156,0.0371267990225129,0.1924069086845751,1.030812804453467,0.88894358243,1.31258911443,0.0037954445942646,0.0615188539787123,Null
-0.3488642660381461,-0.52124023437,-0.13195800781,0.0055377381432722,0.0743113901030628,0.5789500032874999,0.38854980468,0.74157714843,0.0029757350777775,0.0544736291372188,0.7614303760272192,0.49279785156,0.94372558593,0.003883992377074,0.0622340926352042,1.023495002338427,0.8371766256,1.15994822117,0.0014881636675141,0.0385225055323909,Null
-0.1992469465211267,-0.76989746093,0.55578613281,0.1463847015119891,0.3820632804132378,0.7124167858674648,0.35778808593,1.14501953125,0.0476984492397422,0.2180919242220993,0.4085070972688169,-0.46032714843,1.19848632812,0.1676558519937445,0.4088808897321179,1.0299917205396338,0.6500018106,1.58508205362,0.0139915591062774,0.1181192036195831,Null
-0.6480398205092919,-1.64526367187,0.32177734375,0.3342425264195706,0.5773176454418273,0.5551041989382154,0.00366210937,1.16882324218,0.1243078867655599,0.3520734863314128,0.1020946988969972,-0.53173828125,0.82214355468,0.103695777044612,0.321561846776442,1.1208296388258356,0.66679647542,1.73535345589,0.0430358683765709,0.2071568336678217,Null
-0.1966314049402793,-1.77685546875,0.48779296875,0.2856326307838927,0.53369914209536,0.6332315626056704,-0.11962890625,1.27307128906,0.1082776819913341,0.3285958465435313,-0.4252919458120391,-1.25598144531,0.28491210937,0.1664694290089386,0.4074364129577593,1.067120528313715,0.56114442722,1.83381408697,0.0407012644390151,0.2014635792301542,Null
-1.0846358777408782,-1.55004882812,-0.72290039062,0.0246738246593073,0.1568563901759378,0.195019946215949,-0.04016113281,0.73547363281,0.0199200294434954,0.1409382799851949,0.0982285626522096,-0.24914550781,0.37817382812,0.0175709020730809,0.132367390797463,1.1214806647164306,0.72597795988,1.62079553733,0.0284670310898162,0.1684826042719336,Null
-0.3121042065637048,-1.2978515625,0.78332519531,0.4706992725843357,0.6851190645057849,0.5984791195121726,-0.1806640625,1.17749023437,0.1425575153996139,0.3770416677987189,-0.0157555710300557,-0.49951171875,0.44567871093,0.0369861413661327,0.1920497745448229,1.0469416881161282,0.86117677807,1.3123089163,0.0082021468630378,0.0904394806336882,Null
-0.8456902204212285,-1.22509765625,0.3740234375,0.1643172575549047,0.4047811503469206,0.3008238002203143,-0.46008300781,1.08471679687,0.0988748766740455,0.3139942308807686,0.0455119977667999,-0.32727050781,0.57763671875,0.02349138065061,0.153049869062929,1.0412739286448287,0.7517634363,1.36717734196,0.0093981260721436,0.0968053422253446,Null
-0.4000098334383055,-0.8232421875,-0.14611816406,0.020221975431885,0.1420063494281422,0.7311608208508333,0.15490722656,1.10754394531,0.0493668990076506,0.2218778238865466,0.4539171006904445,-0.27514648437,1.00805664062,0.088456343888139,0.2970027471620137,1.026223160798111,0.83168833117,1.28129543247,0.0051312285849138,0.0715330355302919,Null
-0.2806522402145272,-0.63012695312,0.54333496093,0.0366864547078124,0.1912624791390479,0.5039538189434096,0.27258300781,1.13928222656,0.0465549742267351,0.2154566751927432,0.7407495886650144,-0.10327148437,1.07995605468,0.0877928541137961,0.2958737883927582,1.023511224493811,0.9084415984,1.25034834061,0.0041487744293824,0.064318635118973,Null
0.2220818413602777,-0.55981445312,0.81762695312,0.1142699031430699,0.3375684919323044,0.8460493299658888,0.01892089843,1.04235839843,0.0413926866114732,0.2031691584036352,-0.1313903808584166,-0.59020996093,0.57495117187,0.0929681641248899,0.3044830360209629,1.013974414305222,0.80383463912,1.10941713548,0.0021853155322551,0.0466823865213871,Null
-0.004914382409023,-0.59838867187,0.97497558593,0.1271194656173243,0.3560255325065674,0.7486154841243391,-0.09887695312,1.23168945312,0.0801751028863488,0.2827449639863882,-0.116087113302816,-1.01403808593,0.73156738281,0.307564248477261,0.553787362771619,1.0382680784133334,0.70927340288,1.38586155361,0.0093310604641178,0.0964585251389403,Null
0.3967548909272576,-0.11328125,1.01257324218,0.1970049853572144,0.4432372560786937,0.408788115693795,-0.50415039062,1.32043457031,0.3308902567175611,0.574433340961898,-0.4233682479184487,-0.79125976562,-0.21594238281,0.0107556385486429,0.1035656532642112,1.0135725701493352,0.6040854742,1.43927486873,0.0136438991609925,0.116645207473237,Null
-0.1071034150932941,-0.18920898437,-0.06652832031,0.0004565808525578,0.0213363063274166,0.8591581456766177,0.81774902343,0.89672851562,0.00024521856409,0.0156364104902369,-0.5536236931258529,-0.61401367187,-0.49597167968,0.0004409698138463,0.0209683772334828,1.028150176442647,0.98776174921,1.07311822871,0.0001434357884787,0.0119588426911886,Null
-0.2434189051763835,-0.62573242187,0.19213867187,0.0297618101909992,0.1722796302091355,0.8947178670771233,0.69714355468,1.12768554687,0.0050231392300424,0.0707769539098335,-0.3443232288064931,-0.58239746093,0.00268554687,0.0486517271514313,0.2202690054190029,1.0285905224523288,0.82096302033,1.18492040154,0.0035506588514009,0.0595057225729709,Null
-0.2855098093887675,-0.47705078125,-0.16333007812,0.0054810632801282,0.0739304413736079,0.6015874611528291,0.36218261718,0.97778320312,0.0282195820765084,0.1677514102120004,0.6082189223318487,-0.48669433593,1.017578125,0.201321312420184,0.4480595799392192,1.023097430857395,0.93347963729,1.1633011357,0.0009916397982279,0.0314461777599743,Null
-0.4702141711827548,-1.39965820312,0.08642578125,0.1187076669859735,0.3440648901292036,0.539650656956281,0.04138183593,0.96606445312,0.0416961622665899,0.2039149254120464,0.2780748267458403,-0.94567871093,0.85632324218,0.3397972537610217,0.5821178344391695,1.0366450072994764,0.70144004262,1.44265192887,0.0138782872401936,0.1176437633023512,Null
-0.5834742459361079,-1.57104492187,0.17224121093,0.2738539567051889,0.5225667062777762,0.2830488031527273,-0.22290039062,1.03918457031,0.0711713294193912,0.2664003343515761,-0.3909152637816193,-1.07531738281,0.35620117187,0.2278140955963123,0.476620285406628,1.0556863359375852,0.58000889117,1.62744335193,0.0301977102724901,0.1735278690091376,Null
-0.4606635199620277,-0.62963867187,-0.25061035156,0.0052436473346177,0.072312389309005,0.7759202745186111,0.63244628906,1.04528808593,0.0096468147068826,0.0980816904389578,0.3419932047499722,-0.44177246093,0.640625,0.0983256485025623,0.3131333928235159,1.0202784568663332,0.77063438816,1.1513761499,0.0031647860050572,0.0561782425216472,Null
-0.0238167409148033,-0.61157226562,0.48413085937,0.1222308031221098,0.3491238435992587,0.8486523574619381,0.64990234375,1.24487304687,0.0116089476612441,0.1075933931879712,0.1528968382410954,-0.50817871093,0.66955566406,0.1581863933297362,0.397167533325986,1.0150651176969945,0.78619502988,1.24575911187,0.004016618687842,0.0632877243316463,Null
0.4649196592659663,0.22644042968,0.95849609375,0.0214315559904171,0.146190025722332,0.6771017977471429,-0.47680664062,1.14050292968,0.0566280236888599,0.2376329139108576,0.4108838848017927,-0.376953125,0.58422851562,0.0917825394723361,0.3025317264754796,1.0054209459003365,0.84546272966,1.20568902653,0.001880864879699,0.0433081557056432,Null
-0.3055131890766292,-0.82775878906,0.92822265625,0.0575815326801128,0.239624261713621,0.5729997613419382,-0.49658203125,1.01513671875,0.0880064111744947,0.2962417967713902,0.4221318277058706,-1.15734863281,1.05639648437,0.3208043844377926,0.5655999014554817,1.0278962918910393,0.78821405742,1.38286735404,0.0083153454827665,0.0910603523534602,Null
-0.3129500049624293,-0.37817382812,-0.27612304687,0.0003111601464583,0.0176147995445248,0.2235190181369774,0.18823242187,0.26196289062,0.0002261462855201,0.015016905613511,0.9438793807347176,0.90673828125,0.98547363281,0.0003426264133638,0.0184840077401962,1.019516890117062,0.98443731988,1.0616648842,0.0003185632666781,0.0178231133768643,Null
-0.3009833327829972,-0.33056640625,-0.26953125,0.0002355212501465,0.0153251925520305,0.205832430624958,0.17687988281,0.22729492187,0.0001487788242669,0.0121803972373673,0.9503758534628012,0.92639160156,0.98156738281,0.0001216802491781,0.0110154168393225,1.0181345742915406,0.99380414023,1.05031675403,9.09322164460098e-05,0.009522473646859,Null
-0.3008043536992373,-0.36059570312,-0.25,0.0005202909839311,0.0227776477141286,0.195182153730226,0.11901855468,0.22595214843,0.0004273719884128,0.0206437574803825,0.9530832753980508,0.9287109375,0.98156738281,0.0001371255357044,0.0116935099706676,1.018806248589068,0.99611554589,1.0369928801,6.279153008951161e-05,0.0079129105192633,Null
-0.2950233716602809,-0.33386230468,-0.27734375,0.0001006639292397,0.0100190401433234,0.1999875186497191,0.17846679687,0.21728515625,3.8725324008510295e-05,0.006214221190824,0.9530272751674156,0.931640625,0.97338867187,3.9929438639249634e-05,0.006310093287326,1.017568480872781,0.99929655188,1.03331276468,2.8065211470235278e-05,0.0052902151758274,Null
-0.1278918628951549,-0.57958984375,0.36694335937,0.0700681930154138,0.2643308870030537,0.0511839101001127,-0.52917480468,1.04797363281,0.1618578194181968,0.4017485306739888,0.2034564810736902,-0.97241210937,1.01135253906,0.7380162616458612,0.8578679050990143,1.0125316660563664,0.81903483481,1.16666769839,0.0023669960884558,0.0485832120576694,Null
0.2696077153887359,0.12097167968,0.30712890625,0.0009001371437293,0.0299601179671669,-0.4309390635934831,-0.45971679687,-0.38439941406,0.000122707630839,0.0110617786310682,-0.8713618932108427,-0.96801757812,-0.84753417968,0.0002350369068936,0.0153093661156517,1.0093908769849438,0.99302912482,1.05423852053,5.290003001423483e-05,0.0072630182723374,Null
0.5645093864525699,0.01403808593,0.6396484375,0.017088694772542,0.1305410318185864,0.6376588277945252,-0.45629882812,0.83715820312,0.1442657365591398,0.3792924460642168,0.014327576703324,-1.20239257812,0.25268554687,0.1342482006491967,0.3658868755166223,1.00940103473919,0.85765222917,1.22383483777,0.0013752262999466,0.0370322141614696,Null
0.601987137749715,0.57409667968,0.642578125,0.0002150728698139,0.0146444571970125,0.792950665505584,0.75415039062,0.82482910156,0.0001561926218565,0.0124798889671312,0.2011134481792877,0.14929199218,0.24450683593,0.0005411631545762,0.0232297520263796,1.0160952178897438,0.99711416,1.03490230396,6.641752154598371e-05,0.0081380770356316,Null
0.59667697482225,0.55712890625,0.61901855468,0.0001209422996672,0.0109820921884144,0.7946112738676945,0.76391601562,0.84326171875,0.0003029097790669,0.0173801140103863,0.1920433892108888,0.11779785156,0.2392578125,0.0007112445299814,0.0266321018834688,1.0125876595534444,0.98996097319,1.04135351083,0.0001096319989499,0.0104559775066485,Null
0.6019069627749137,0.5732421875,0.62670898437,0.0001063899517189,0.0102997200674016,0.7969693589446551,0.76623535156,0.84265136718,0.000244741355057,0.0156217180649624,0.1712709624154023,0.11169433593,0.251953125,0.0008351053503359,0.0288566391376012,1.01383595406,0.98895512852,1.03551728052,9.711542302248964e-05,0.0098405465150546,Null
0.4526585770673277,-0.32763671875,0.62854003906,0.0697669170896264,0.2637702062890029,0.6086698169528374,-0.35693359375,0.97473144531,0.1685488638496895,0.409981148238196,-0.0688876737926446,-1.02722167968,0.28601074218,0.2101686519452985,0.4578096492459441,1.013384650280606,0.94200136044,1.08129523133,0.000425907516696,0.0206090809535981,Null
0.080695512313804,-0.13037109375,0.28540039062,0.0107944850130098,0.1037466962704634,-0.3390909244376945,-0.53991699218,-0.17687988281,0.0095257666200088,0.0974592983917183,-0.9482998806698272,-1.09851074218,-0.77685546875,0.0031416045141982,0.0559691959821074,1.0209045970582422,0.85568098805,1.12998907171,0.0019166637932805,0.043716590289028,Null
-0.4122862592539117,-1.25854492187,0.20336914062,0.2938998580197355,0.5413780717184503,-0.0730760642640495,-0.48315429687,0.98315429687,0.1097924308252337,0.3308926900644859,-0.5414595170439944,-1.14465332031,0.17651367187,0.2391315130540502,0.4883367163702508,1.0463446564880716,0.81339622549,1.3658447211,0.0147549237786462,0.1213024179713756,Null
-0.5688949896352478,-2.0,1.06677246093,0.5808056542975624,0.760994312299434,0.3203089410965014,-0.57373046875,1.47265625,0.1615541126679472,0.4013516032408708,-0.2186378946094168,-0.94580078125,0.22277832031,0.0757239719622583,0.2747784605181067,1.0911546611009038,0.24928043044,2.05718920529,0.0994118470932136,0.314836491905268,stairs down
-0.8018678099218958,-2.02392578125,1.06970214843,0.5356556919469359,0.7308789984502586,0.2072022825793681,-0.82653808593,0.97412109375,0.1377914394962246,0.370692448784057,-0.1330103612200824,-1.01794433593,0.49951171875,0.0911084299260165,0.3014268270104775,1.167658887235989,0.26563313415,2.13130057546,0.1042068525173744,0.3223671353527116,stairs down
-0.9504197314556267,-1.91625976562,0.01281738281,0.206795422750717,0.4541138523899815,0.2184487345473537,-0.89013671875,1.31628417968,0.1957257414718173,0.4417924223211211,-0.2971514433529247,-1.17053222656,0.64184570312,0.2126301171479072,0.4604756591819238,1.2474121474683844,0.6164380243,1.92380924893,0.0969873580241444,0.310993887805676,stairs down
-0.9903295427607438,-1.76037597656,-0.09875488281,0.1850263866756771,0.4295540386398809,0.3059586454001653,-0.41748046875,1.18835449218,0.1022154148764735,0.3192707780419695,-0.1843120480365564,-0.93884277343,0.71594238281,0.2048913881378822,0.4520253854067301,1.2412988348546008,0.79018529946,1.90917040732,0.0584498994826324,0.2414309020730222,stairs down
-1.1708548899410112,-1.70361328125,-0.67578125,0.0424606079657419,0.2057701061744676,0.2185216325037921,-0.24560546875,0.95642089843,0.0665095869098545,0.2575320605818303,0.0873344507097471,-0.505859375,0.63488769531,0.031749920100272,0.1779346366828311,1.2342101619833143,0.69853514814,1.71230927,0.0434523504265055,0.2081592978043164,stairs down
-0.7828185525081336,-1.76489257812,0.31616210937,0.2390634542337443,0.488259704787774,0.4723859271599999,-0.05041503906,1.33190917968,0.1240020440308156,0.3516484529148607,-0.117108953363844,-0.93090820312,0.19909667968,0.0482967321238627,0.2194588818813439,1.0947228649091083,0.63154673258,1.77812317745,0.0616377738904721,0.2479235384689983,stairs down
-1.2275938906874295,-1.74328613281,-0.72741699218,0.0597532710505875,0.2440993168765476,0.2580228471464689,-0.19934082031,1.09387207031,0.0656241571451606,0.2558100431378219,0.0390504309004802,-0.26196289062,0.32263183593,0.0125956688793148,0.1120717979412306,1.2824253983886158,0.73028228542,1.87807056217,0.0682487193784441,0.2608753081183608,stairs down
-1.2090901239301672,-1.72717285156,-0.72521972656,0.0458712066511599,0.2138771416076784,0.1795259863533704,-0.59301757812,0.62841796875,0.0733380432772109,0.2704325406346266,0.0538003650531754,-0.16284179687,0.25598144531,0.0069472402801098,0.0832339392067657,1.256332852534986,0.73180455959,1.78699987941,0.0445800081506624,0.2108455118208071,stairs down
-0.4298934721602254,-1.73547363281,1.21362304687,0.7984983151642562,0.8923278680707134,0.200755804356338,-0.53186035156,1.505859375,0.1359899687112802,0.3682484193813766,-0.1386158258134929,-0.92822265625,0.76354980468,0.1050829639928556,0.3237081334220381,1.0891540504352677,0.51239705447,1.86437887575,0.0966378278473183,0.3104281053866509,stairs down
-1.3027988199373464,-2.0009765625,-0.73278808593,0.0642990336039744,0.2532181418557075,0.2028812003520949,-0.18151855468,0.81811523437,0.0663410153446592,0.2572075139764216,0.1226922573309776,-0.19494628906,0.59765625,0.0293492723559833,0.171076857430469,1.3588721877711452,0.73845551467,2.00422491176,0.0666940339404165,0.2578909415939718,stairs down
-1.1774560410064423,-1.68322753906,-0.61584472656,0.0594741360520049,0.243531398044219,0.1853430825433333,-0.19555664062,0.626953125,0.038122401184768,0.1949759363287575,0.0083329230124369,-0.32385253906,0.36486816406,0.0158981496377695,0.1259111472655657,1.2141152394045098,0.62533094465,1.71284105061,0.0600547523280077,0.244717248540538,stairs down
-0.8324315030772957,-1.61999511718,-0.03503417968,0.1218606249337382,0.3485933957603438,0.0812434666579436,-0.48559570312,0.60583496093,0.0364515192074897,0.1906537145499506,-0.5278677926907888,-1.18579101562,0.16137695312,0.1144342525831517,0.3378045330895889,1.1000137052580283,0.71642670181,1.638590564,0.0402484358853168,0.2003373654852822,stairs down
-1.2490175467034854,-1.89611816406,-0.63342285156,0.0496994403233645,0.2226346735259575,0.1830763420513405,-0.34912109375,0.67980957031,0.0535904846740593,0.2311856622985368,0.0414662706291957,-0.18298339843,0.32983398437,0.0121827962549675,0.1102276489942948,1.2877476577058982,0.63546351875,1.90253432648,0.0522905326716003,0.2283644971880831,stairs down
-0.6609914679241228,-1.54553222656,0.05505371093,0.1099448937067735,0.3310942726919106,0.2008602744633625,-0.3681640625,1.29467773437,0.0860300499553643,0.2928796682968855,-0.5867488035648831,-1.21008300781,0.15563964843,0.1219264413150122,0.3486687987943395,1.0469366290688011,0.55249108395,1.74783435147,0.042548683846779,0.2059715332042316,stairs down
-0.7223652977481712,-1.45642089843,0.92224121093,0.3196547422043004,0.5645456649922262,0.1763843997715339,-0.95483398437,0.93310546875,0.1572273865950091,0.3959338189577064,-0.1518885969745722,-0.91357421875,0.44055175781,0.0744183824878872,0.2723946754907491,1.0435550412775518,0.42659403715,1.68870045207,0.0367688202777826,0.1914689470412709,Null
-1.317612868084945,-2.25952148437,-0.4853515625,0.1066825246662795,0.3261739425633295,0.2397273136998352,-0.36645507812,1.05810546875,0.073865814944605,0.2714090766381448,0.0598473182073351,-0.50463867187,0.38452148437,0.0204261257956191,0.1427235441873955,1.3698900208627198,0.60860420041,2.48951676444,0.1213114984154791,0.3478192419464223,Null
-0.4030803691336103,-2.02233886718,0.89709472656,0.6292857993372659,0.792138048678625,0.2112452990665902,-1.4189453125,1.41076660156,0.1872422816357038,0.4320946317649311,0.0346959504836103,-0.84521484375,1.2353515625,0.3004326618084376,0.5473315478171532,1.104142193216533,0.59610973301,2.48964651611,0.1032282516564489,0.3208309035931752,Null
-0.2765081169876967,-0.86108398437,0.63928222656,0.1051528414560804,0.3238170290548706,0.8439169894407023,0.12133789062,1.15563964843,0.0295659910120298,0.1717059709954175,0.0736670333345224,-0.58227539062,0.66467285156,0.1186943624560481,0.3440362645500524,1.01633047822691,0.56977715906,1.32131729039,0.0138921977902815,0.1176995104610924,lift up
-0.3638264284260734,-0.51635742187,-0.25256347656,0.0025122613176544,0.0500516186978126,0.7931749591675988,0.59912109375,0.98413085937,0.0050475794861388,0.0709459004243759,0.5053748868916101,0.10083007812,0.81042480468,0.0172006626583134,0.1309659238724936,1.0202611851768362,0.92587359486,1.09754257699,0.0006594977224204,0.0256443899226316,lift up
-0.3362358562066201,-0.40393066406,-0.27209472656,0.0006089804212044,0.0246430387447533,0.6509624459851397,0.59582519531,0.82507324218,0.0037368210979776,0.0610441074160144,0.6791207936851675,0.11633300781,0.78308105468,0.0145553995010974,0.1204771428968646,1.0078408631156146,0.84896978222,1.0650080503,0.0011200370983122,0.0334201810746969,lift up
-0.3725261318349308,-0.58972167968,-0.21301269531,0.0071896004374729,0.0846739903794984,0.720212476732216,0.63110351562,0.80151367187,0.0015291950298849,0.0390507238418472,0.6110075636217451,0.4677734375,0.71203613281,0.0043502519741656,0.0658650242137691,1.021573286521856,0.97566401538,1.08090264027,0.0002334854792973,0.01525905321822,Null
-0.3413938660517101,-0.4287109375,-0.25939941406,0.0007275040001114,0.0269331634396097,0.6661900617034203,0.58862304687,0.73364257812,0.000962340576606,0.030976623179914,0.7002204342128406,0.67053222656,0.73913574218,0.000304553847862,0.0174261608820085,1.0256064230630146,0.96884001036,1.09110819024,0.0007899989649488,0.0280661560046353,lift up
-0.3558562052145027,-0.41357421875,-0.30590820312,0.0002717285785317,0.0164614078103697,0.6422412513991437,0.59838867187,0.67858886718,0.0002186200993162,0.014765370851759,0.6938331561812707,0.66516113281,0.71508789062,0.0001171087579925,0.0108067225899538,1.010378749895359,0.95976100791,1.03126848088,0.0002531729163116,0.0158894160879062,lift up
-0.4053078033320528,-1.1923828125,-0.23889160156,0.0148650608069067,0.1217434526092504,0.6278509324557184,0.25048828125,0.88635253906,0.0098721038798246,0.0992126676819256,0.5961996397284751,-0.50048828125,0.83264160156,0.0931572309060289,0.3047688346035413,1.0131843092991202,0.70287708574,1.27890069082,0.0049459430906663,0.0702242042228242,Null
-1.0158761831397252,-1.291015625,-0.298828125,0.0267548460026532,0.1633442489911112,0.1566631610537637,-0.4599609375,0.39697265625,0.0134264906472277,0.115713459389611,0.0105164915631868,-0.54040527343,0.25012207031,0.0249614402229147,0.157774728133776,1.0507864643478848,0.61352847516,1.34322762316,0.0175181083092909,0.1321740581132,Null
-1.0464200106500587,-1.32751464843,-0.81481933593,0.0104644980340893,0.1021460246733567,0.1665550970230498,-0.1923828125,0.45239257812,0.0114271928731592,0.1067411918783897,0.0762234237513489,-0.19970703125,0.34973144531,0.0094111357184524,0.0968686589149551,1.070675058045396,0.8159070291,1.35314014725,0.0124815252945655,0.1115568132437087,Null
-1.0812336024915523,-1.38684082031,-0.77880859375,0.021988913655776,0.1480651042871001,0.1857338065504477,-0.15869140625,0.60205078125,0.0206197488367027,0.1433813005507969,-0.016739665926985,-0.35205078125,0.18725585937,0.0127221660970403,0.1126241070189917,1.110621881046239,0.79184867414,1.45584202114,0.0256044970800378,0.1597750473180046,stairs up
-1.0399113683485637,-1.45483398437,-0.85180664062,0.0160236288274036,0.126412833047269,0.1768663194407859,-0.02722167968,0.55334472656,0.0100330780236369,0.1000294362190137,0.0546954395307046,-0.20031738281,0.27404785156,0.0119256473764149,0.1090565383130995,1.066447325180027,0.86793178544,1.45902206188,0.0160761092940662,0.1266196769945826,stairs up
-0.6408095673851197,-1.361328125,-0.29125976562,0.0632885850877602,0.2511953389417493,0.0078088452009281,-0.51318359375,1.09948730468,0.2140161005599069,0.4619256799440397,0.5121467270508083,-0.16943359375,1.11486816406,0.1171191455307762,0.3417140462527588,1.0283375976442215,0.83304447393,1.39023102848,0.0087831533879425,0.0935780771415589,Null
-0.5476225963579004,-0.88916015625,-0.19189453125,0.0161362541103564,0.1268529811346931,-0.4267234169939226,-0.75622558593,-0.11962890625,0.0192728734106363,0.1386348925373372,0.7189793033455801,0.36218261718,0.97839355468,0.0134282020755186,0.1157199533124992,1.0209745610109946,0.83479331492,1.22875751606,0.0052424688671392,0.0723048194032926,Null
-0.5231429170931404,-0.62890625,-0.43823242187,0.0015831861384775,0.0397344276938363,-0.3669406691165289,-0.4423828125,-0.24438476562,0.0014122487359253,0.0375280993861922,0.78347450445146,0.67797851562,0.85424804687,0.0008418403164626,0.0289744921807705,1.0126988823449037,0.96002045735,1.07823640828,0.0004251144812538,0.0205898850647693,Null
-0.5791519828425815,-1.47351074218,-0.31811523437,0.0338712365985718,0.1837911727879533,-0.2894592285125,-0.52587890625,0.67199707031,0.0659967622319188,0.2565490658804174,0.7107686581782064,0.01232910156,1.16149902343,0.03611904979464,0.1897917284889065,1.021788724776603,0.59220455467,1.57516376347,0.0160045608277792,0.1263371290371754,Null
-0.6833327126346045,-1.673828125,0.99182128906,0.6922346909096583,0.8308304434005171,0.2434730314235593,-0.07275390625,0.57690429687,0.0315837394984677,0.177466954375638,0.0626317255902542,-0.19921875,0.58752441406,0.0229255136520477,0.1511977258891403,1.1102805222505934,0.58940635025,1.83422087098,0.0421762479829883,0.2050782924629849,Null
0.0003605410071311,-0.93884277343,1.11694335937,0.303140581638634,0.5498293632422129,0.4011010341925136,-0.55822753906,1.25817871093,0.1210308873521125,0.3474193458452536,0.4465715585497541,-0.44030761718,0.95471191406,0.2590448783195323,0.5082687334746737,1.0128153429703004,0.60246480425,1.48511793718,0.0159065039416741,0.1259485750153247,Null
-0.2265755789582692,-0.29577636718,-0.19982910156,0.0003431840385089,0.018499762842166,0.358679467500934,0.30895996093,0.59704589843,0.0023456800722235,0.0483656478939439,0.9109654688532692,0.62145996093,0.99340820312,0.002404531702319,0.0489686210342294,1.0069183001891755,0.87447970111,1.11920638498,0.0010449350302963,0.0322810211992072,lift down
-0.1404584763337861,-0.41528320312,0.92590332031,0.0836302763346737,0.2887707920370522,0.4040160427166184,0.15356445312,1.10705566406,0.0409302593461352,0.2020197114117631,0.7360642273275144,-0.31652832031,1.10473632812,0.1763955660874065,0.4193873535439372,1.009428992193526,0.75645037274,1.26233117325,0.0059045544493263,0.076729976300378,lift down
-0.1043511062343442,-0.52319335937,0.99499511718,0.1588855197198216,0.3980595511703797,0.4106592063662841,0.00598144531,1.19799804687,0.0688835268440771,0.2620979215609686,0.617278218918306,-0.41784667968,1.01220703125,0.2441591986146367,0.4934491837860081,1.0112084500939345,0.49144673991,1.21127982069,0.0086825537250754,0.0930528392940806,lift down
-0.2660123454954328,-0.34362792968,-0.20007324218,0.0010709145092928,0.0326759506298382,0.2849806145020895,0.24658203125,0.33435058593,0.0003678550841084,0.0191509010030987,0.950568811213642,0.91796875,1.01794433593,0.0003977804664612,0.0199146444126873,1.0280827490484477,0.99032316242,1.08981863286,0.0004167558914665,0.020384107633874,lift down
-0.3766065384411716,-1.13342285156,-0.16967773437,0.0519499377113073,0.2276145530222448,0.3191919144846321,0.14025878906,0.86254882812,0.0200430217551113,0.141380368569381,0.8119711395143868,0.05480957031,0.9765625,0.0652126161551988,0.2550194602437329,1.0184696897150411,0.80233243174,1.15872410319,0.0025713103694307,0.0506389580673442,Null
-0.7033983635146364,-1.42407226562,-0.24877929687,0.1167628420927417,0.3411876540827955,0.5943792169709091,-0.01403808593,1.14221191406,0.140447247404475,0.3741946681676097,0.0349058209035757,-0.31970214843,0.6357421875,0.0477234590784195,0.2181257493643463,1.0658793634136667,0.70986385809,1.50559821628,0.0172372519589132,0.1310916391768293,Null
-0.7073506894291033,-1.66662597656,0.80993652343,0.3366404237030415,0.5794183634844333,0.4628690636634511,-0.03820800781,0.96887207031,0.0837454984849211,0.2889946871407153,0.0449789296016304,-0.56958007812,0.70837402343,0.0864270188000895,0.293585017960286,1.0785604319383968,0.32265945414,1.98605818212,0.0589191048709059,0.2424025548703432,Null
-0.5777050121376216,-0.60009765625,-0.55541992187,0.0001011468689036,0.0100435799886146,0.811037135765108,0.7392578125,0.86108398437,0.0005918960868151,0.0242960154688287,0.2548808329772702,0.22961425781,0.39929199218,0.0002395613205902,0.01545683853709,1.028032013294757,0.97700403531,1.08204660508,0.0005703605405566,0.0238499271609406,lift up
-0.4045506527513743,-1.18579101562,-0.14025878906,0.0549464950667446,0.234063736619895,0.6550699869759063,0.16870117187,0.97387695312,0.0371199155833406,0.1923834135742399,0.4364777503631286,-0.36901855468,1.01623535156,0.1663990944559338,0.4073236396234831,1.0154132331066374,0.6912967358,1.27656631259,0.0102581688226868,0.1011344361580488,lift up
-1.0227430711870604,-1.23010253906,-0.85168457031,0.0070353576035115,0.0837560911082754,0.1781072698996542,-0.10961914062,0.57275390625,0.0144968435063028,0.1202292221521482,0.1019916809223919,-0.09265136718,0.46899414062,0.0072577254042661,0.0850694408650681,1.0531878286070029,0.86301016542,1.26276339106,0.0076523010687367,0.0873512926515953,Null
-0.7340657094863765,-1.8134765625,0.41674804687,0.4201473824792016,0.6472767516314598,0.4264149183603933,-0.37292480468,1.28039550781,0.0992913413634443,0.3146624113255148,0.1536854947532022,-0.76806640625,0.98474121093,0.1066298843664614,0.326083366977472,1.130496672994579,0.57228601308,1.84259767406,0.090843819884356,0.3009794687599438,stairs down
-1.1149412005098034,-1.74072265625,-0.59875488281,0.0443556870187946,0.2103118931309815,0.1823089256688202,-0.41955566406,0.5966796875,0.032054394095658,0.1787857758961966,0.0833212177381741,-0.16674804687,0.30139160156,0.009911725780019,0.0994177240418967,1.149576319887472,0.6000375865,1.75333871133,0.0479611873978385,0.218692626673438,Null
-1.048982069223611,-1.47436523437,-0.74987792968,0.027069820146407,0.1643004144899089,0.1202701144715,-0.14819335937,0.31323242187,0.0053133212421645,0.0727912221115423,0.040857611761,-0.23156738281,0.22045898437,0.0113913293491644,0.1065818313205349,1.064898540147,0.76926043629,1.48371332378,0.0262144184321274,0.1616836435857051,stairs up
-0.8765373006865205,-1.4189453125,0.03503417968,0.1238391394361076,0.3513929946501757,0.3429454781119005,-0.01586914062,1.33203125,0.1108697125237684,0.3324838824331075,0.0354417945897368,-0.30285644531,0.50366210937,0.0232579883172617,0.1522825745233793,1.0536632398740642,0.64900351719,1.48971586093,0.0342919583468254,0.1849099496045855,stairs up
-1.0382634943149311,-1.41088867187,-0.80847167968,0.0217649196557366,0.1473260370721507,0.1627802572920661,-0.04736328125,0.43640136718,0.0073290666799072,0.0854919669534596,0.0483307641386225,-0.17321777343,0.23425292968,0.0092910573864899,0.0962572708270817,1.0595978868074656,0.81990234475,1.42637014376,0.0224177334653039,0.1495191513612948,stairs up
-1.0856408840236889,-1.43713378906,-0.85583496093,0.013824842136083,0.1173997156177629,0.171919287701128,-0.05700683593,0.49328613281,0.0154546974004029,0.124127271058876,0.0668915539233841,-0.19482421875,0.27001953125,0.0101089032689796,0.100389658042749,1.1124931251134147,0.87038529672,1.43762352143,0.0143179053478891,0.1194749061411571,stairs up
-1.052492569049262,-1.52941894531,-0.74938964843,0.0256028390448076,0.1597901308988241,0.1309917845986065,-0.15637207031,0.42614746093,0.0115507583244763,0.1073275308366981,0.0333128548701912,-0.20678710937,0.2802734375,0.0114490824711749,0.106854110005553,1.072052221733798,0.75837131425,1.5440348069,0.0252521161962009,0.1586919069871108,stairs up
-1.043615722652303,-1.44372558593,-0.77404785156,0.0264188114314417,0.1622921884352542,0.1014163855323939,-0.20568847656,0.26550292968,0.0091973207182615,0.0957572454147377,0.0260708895590606,-0.23327636718,0.22094726562,0.0105541511845969,0.1025776238186474,1.0583213261124849,0.78813224193,1.45319288874,0.0261643811872627,0.1615088083779487,stairs up
-0.4532755415188047,-1.57971191406,-0.11083984375,0.0923929066052623,0.3035185983273701,0.5160367648697668,0.04528808593,1.00415039062,0.0540026070006667,0.2320456097359941,0.5904697607250146,-0.19860839843,1.02612304687,0.1370167889238771,0.3696178067503732,1.043307998688921,0.74652207148,1.60755462839,0.01454404750641,0.120422776232513,Null
-0.3004695592264045,-0.53515625,-0.11181640625,0.0092023772247741,0.0957941952862867,0.4299247827381179,0.22814941406,0.84460449218,0.0245594361665702,0.1564942458569229,0.837180834134354,0.23718261718,1.00891113281,0.0395043090936359,0.1984775602763711,1.022253433749747,0.82248279847,1.22572455971,0.0040586605669178,0.0636180778944815,Null
-0.4055591851857465,-1.09899902343,0.04028320312,0.0341718571399015,0.1845957702315922,0.8340583049039718,0.44299316406,1.17834472656,0.0333444166650477,0.1823471654037428,-0.0880711515190704,-0.94885253906,0.763671875,0.1491438138004241,0.3856471060195681,1.036047913804535,0.7541140433,1.62800107363,0.0105723153699716,0.1026768435428135,Null
-0.5565823800210857,-1.5185546875,1.10620117187,0.8167560130939309,0.9024535580765866,0.3150927734344571,-0.09033203125,1.22314453125,0.0716404633842738,0.2672747207388552,-0.0491088867191714,-0.69555664062,0.35949707031,0.0752155786538833,0.2738625147781026,1.1448064539426,0.44295086294,1.67398470276,0.0619330969241034,0.2485078373383946,Null
-0.3721998426635833,-1.27368164062,0.86694335937,0.3964057730998254,0.6287325710922935,0.4797922770143333,-0.12780761718,1.17102050781,0.0953491524970892,0.3083574123321068,-0.0575358072911111,-0.95397949218,0.8349609375,0.2366502002728383,0.4857909412549948,1.0365080462659166,0.50814688017,1.68611804129,0.0249956281684379,0.1578803213449037,Null
-0.2895265838765088,-0.42663574218,-0.21350097656,0.0017381756931592,0.0416297148863973,0.5508527586411243,0.46423339843,0.92407226562,0.0109260708363177,0.1043731056496636,0.7788367638183727,0.07495117187,0.98498535156,0.0331431874005267,0.1817831967841625,1.018841399995562,0.85636657909,1.19594977725,0.0014896269633553,0.0385385493109223,Null
-0.2943370106418956,-0.3828125,-0.24865722656,0.0006974138394148,0.0263722935545733,0.4959840879303296,0.45678710937,0.54125976562,0.0002756171826946,0.0165789020333763,0.8512553120671978,0.79028320312,0.91015625,0.0005725264590793,0.0238946350503996,1.0287185183480494,0.99246997266,1.08983320142,0.000485400598595,0.0220015245032479,lift up
-0.2857064773748956,-0.36901855468,-0.23657226562,0.0007523626504605,0.0273882601090767,0.4880389313165968,0.44738769531,0.52429199218,0.0003112199833551,0.0176150778732157,0.8450563345349551,0.82019042968,0.87780761718,0.0001631531774775,0.0127540641784159,1.0173657680030748,0.99040910582,1.04961575959,0.0001207266195927,0.0109711549813068,lift up
-0.3576888118841265,-0.59753417968,-0.14697265625,0.0093454319014076,0.096526074250113,0.6384887695273795,0.37622070312,1.08447265625,0.0497201313335178,0.2226440475328061,0.5241747017341566,-0.36584472656,0.93408203125,0.1805229710330825,0.4242395869605154,1.0231644581604518,0.91084209681,1.21182944765,0.0023768456866441,0.0486794259712379,Null
-0.5450416296117073,-0.71508789062,-0.41638183593,0.0035012751844869,0.0590913414456934,0.7833691935516802,0.59765625,0.94165039062,0.0081446603694426,0.0901254021856155,-0.3371148665067751,-0.74609375,-0.04052734375,0.021438740618611,0.1462212058852577,1.027000338310813,0.8869342038,1.16042842305,0.002717247899441,0.0520565469849412,Null
-0.6326965331995,-1.31872558593,-0.10217285156,0.0471877969186533,0.2169078359134526,0.686199592138,-0.19934082031,1.00134277343,0.0679489931981426,0.2602866558587822,-0.1586055979983529,-0.8505859375,0.47277832031,0.0638466709032696,0.2523071274797515,1.0332840630973528,0.68901962613,1.35715326629,0.0071325812957198,0.0843303214474978,Null
-0.2676731057342192,-1.20056152343,0.9755859375,0.3505715629122843,0.5912792004433338,0.4493575422698904,-0.45520019531,1.46887207031,0.1610327790861112,0.4007388094382485,0.139122030179452,-0.91430664062,0.97351074218,0.2802501545302087,0.5286608987693909,1.019324539007589,0.28776900104,1.82418824441,0.0437082967008673,0.2087787056736936,Null
-0.2664827824885444,-0.32885742187,-0.16552734375,0.0009856621852574,0.0313529171508588,0.4996508986440162,0.42077636718,0.54125976562,0.0003885068084679,0.0196839940130294,0.8293611675545283,0.76135253906,0.8857421875,0.0007021735264527,0.0264628206251344,1.004925910330027,0.94064879118,1.05165791014,0.0007005891643046,0.0264329488292141,lift down
-0.2797775943682006,-0.32250976562,-0.21801757812,0.0004429651302503,0.0210156714965333,0.4776384471754572,0.43188476562,0.52941894531,0.0003453837560794,0.018557072100431,0.8515581789230088,0.82556152343,0.88562011718,0.000159517969926,0.0126114002173614,1.0160660573464309,0.98990984683,1.04307577034,0.0001205140202245,0.0109616842519654,lift down
-0.2714240537012573,-0.62573242187,-0.0048828125,0.0112045601091958,0.1056967276576316,0.3261019165716666,-0.04418945312,0.54040527343,0.0205127814328543,0.1430132949755924,0.9219471000056726,0.73852539062,1.16564941406,0.0066149040178631,0.0812130666410864,1.0312092695830992,0.858632877,1.20085584623,0.0049422229926919,0.0701980914859433,Null
-0.2627195897856023,-0.34423828125,-0.15405273437,0.0017413303959058,0.0416707657684236,0.1486269312370588,0.00988769531,0.23315429687,0.0020804592017541,0.0455481238355924,0.9709688074411484,0.9267578125,1.03295898437,0.0004451530151442,0.0210690789530772,1.018725101122857,0.97024490778,1.08390940501,0.0003471035845819,0.0186046044202387,Null
-0.2590901235477528,-0.28833007812,-0.23010253906,0.0001626236588074,0.012734474892084,0.1675216160422752,0.14050292968,0.19567871093,0.0001525301979707,0.0123329535131899,0.9713069615701124,0.95715332031,0.99267578125,5.998074110429789e-05,0.0077338383663273,1.0192813819570226,1.00036731321,1.04066624602,6.212612479068018e-05,0.0078709347096891,Null
-0.226843777504845,-0.41577148437,-0.11340332031,0.005245465980771,0.0723235094575883,0.1726473096356338,0.07946777343,0.27893066406,0.0017638922114903,0.041939521945719,0.9749487648511548,0.91088867187,1.03381347656,0.0004206971959802,0.0204819953485083,1.0193111407361974,0.98873742322,1.06474261765,0.0002047878952125,0.0142902424017946,Null
-0.1803406951780501,-0.30493164062,0.07727050781,0.0054898927071321,0.0739905434963783,0.2007141963312813,-0.03686523437,0.50476074218,0.0079863917825427,0.0892420616406761,0.9785635690465736,0.7998046875,1.10485839843,0.001795963186334,0.0423197412960397,1.0221408399985237,0.94812109947,1.17387304997,0.0008882335388185,0.0297617094718724,Null
-0.2718495425981482,-0.6962890625,-0.08020019531,0.010198193319111,0.100842147127529,0.4520573194852137,0.240234375,0.84204101562,0.0180125739928153,0.134019610946279,0.8496201561346723,0.22009277343,1.14611816406,0.0231833300533332,0.1520436801710676,1.0240151533408262,0.83618112383,1.27727334531,0.0027609106288817,0.0524694652787143,Null
-0.3312774658168889,-0.66271972656,0.05236816406,0.0163339386399778,0.1276266687969255,0.3707729763416111,0.01342773437,0.94543457031,0.050025873949812,0.2233537848097506,0.8254957410988889,0.11901855468,1.02587890625,0.0623545114314553,0.2493617942974763,1.0268290497514725,0.84280885199,1.18120463501,0.0026468170058035,0.0513757212732141,Null
-0.2924128877906086,-0.46472167968,-0.18347167968,0.0033414969982237,0.0577218459482907,0.2537328747694493,0.15930175781,0.33996582031,0.001093402074258,0.0330186733967821,0.943175384960145,0.88598632812,0.98754882812,0.0003421194085543,0.0184696442330328,1.021735605880174,0.98550844786,1.06918342931,0.000285827692981,0.0168819195269519,Null
-0.2978704986113019,-0.77038574218,-0.12609863281,0.0126335762983734,0.1122433973209351,0.245880380558421,0.0546875,0.39660644531,0.0028549563578584,0.053357735067122,0.9368149184090028,0.70288085937,1.02062988281,0.002672675570972,0.0516262727449349,1.0213796387925762,0.88227869453,1.22715561491,0.0017493613571366,0.0417673973429168,Null
-0.2598728255533145,-0.41906738281,-0.01257324218,0.0035032391956004,0.0591042723095771,0.2703397496866855,0.14221191406,0.38732910156,0.0023885381530327,0.0488033990209566,0.948850810017422,0.78271484375,1.0947265625,0.0015581508814263,0.0394174689226301,1.023089818989037,0.8647579664,1.20791132178,0.0016560626885042,0.0406370679649275,Null
-0.3402703216696133,-1.04956054687,0.52404785156,0.1135908404239405,0.3365665663311505,0.7130733932540055,0.09558105468,1.26831054687,0.0680910633910074,0.2605819766039304,-0.1083616815213811,-0.9951171875,1.12048339843,0.263708026459735,0.5128153188512609,1.029948149634199,0.64467786797,1.6515868823,0.0194198363721862,0.1391624605105737,Null
-0.3042369940888825,-1.21020507812,0.73706054687,0.2599236451568952,0.5090961385291861,0.2539758545615759,-0.32080078125,1.455078125,0.2301762131213127,0.4790789939296964,0.2213935742737249,-0.81555175781,0.91333007812,0.3919319805337747,0.6251471556864866,1.02693558950106,0.4849322559,1.83352695241,0.0310455406221556,0.175944834872659,Null
-0.5071504896928116,-0.54040527343,-0.46533203125,0.0002742940003067,0.016537803519011,-0.3146392379944348,-0.34814453125,-0.27783203125,0.0002692610389456,0.0163853767782777,0.8234134397605218,0.79809570312,0.86572265625,0.0002030016809884,0.014227201774027,1.0171256612410724,0.9932087951,1.06751864616,0.0004101328848548,0.0202223661791649,lift up
-0.4978087874446005,-0.62951660156,-0.33679199218,0.0030955431502496,0.0555609168676068,-0.2981622869277134,-0.44873046875,-0.1337890625,0.0035185404739277,0.0592355258688885,0.8230326839014878,0.73547363281,0.8974609375,0.0011423972666423,0.0337527801334089,1.010698603638843,0.96653842746,1.06455163762,0.0003181694213464,0.0178127179723675,lift up
-0.7321135220421097,-1.29248046875,-0.19934082031,0.0836316027404803,0.2887948667510197,0.1878879494850959,-0.41918945312,1.1123046875,0.1912217935757685,0.4366897047686188,0.2318713880547123,-0.57922363281,1.13488769531,0.2013739727012935,0.4481319707263066,1.0438707139841918,0.79648062352,1.3159274637,0.0108518302121191,0.1040293188021631,Null
-1.0684315240166269,-1.43054199218,-0.83703613281,0.0146157208394986,0.120714919633272,0.1093862960561791,-0.18322753906,0.32800292968,0.0081987708505735,0.0904118184074183,0.0659667968732835,-0.240234375,0.30151367187,0.0125790531222187,0.1119888552933442,1.0855497643170449,0.84537439807,1.44395718821,0.0147766124866305,0.1213775234366958,Null
-0.795250270674701,-1.39392089843,0.220703125,0.1958317148691593,0.4419271019863552,0.3795229041020924,-0.01940917968,1.07531738281,0.0816431190896942,0.2853441129370291,-0.1780458533243478,-1.13049316406,0.25085449218,0.1364025330251851,0.3688249909754644,1.0957256135419566,0.66307324044,1.41371332778,0.0197108445388076,0.140204430961566,Null
-1.1575649458548634,-1.54711914062,-0.88708496093,0.0183394658449393,0.1352173168926964,0.1650858128300912,-0.10766601562,0.59887695312,0.0279205312332128,0.1668402421379139,0.0377917072313373,-0.19641113281,0.23791503906,0.0072183536137084,0.0848316764491209,1.1832776268133132,0.88815615434,1.58547251795,0.0208143948118784,0.1440525222762598,Null
-0.7759653452260812,-1.55029296875,0.46008300781,0.4329727100001504,0.6571168187519145,0.4116616738786757,-0.15808105468,1.24597167968,0.1574822292772426,0.3963036735012021,0.1604066590976756,-0.18493652343,0.67150878906,0.0328386494626206,0.1809693243507442,1.1748358357284054,0.83170908748,1.58547251795,0.0387924620684718,0.1966916815129579,Null
-0.2715241188224418,-1.42065429687,0.50244140625,0.3863724676686372,0.6206845349213486,0.651717075078314,0.00927734375,1.16320800781,0.0658325321753591,0.2562053054394356,0.0130153922143604,-0.82006835937,0.69055175781,0.1521185913179339,0.3894565265990728,1.0408493895802615,0.6924390891,1.44184043981,0.0178812586370865,0.1335263203794358,Null
0.0830671331838483,-1.45825195312,0.97387695312,0.3096869836752489,0.555713124208646,0.4622929605174157,-0.78466796875,1.11413574218,0.1395210569647433,0.3730001928731159,0.2007950343442977,-0.86145019531,0.96630859375,0.2853526495796645,0.5334333109144992,0.984573026536264,0.59703153484,1.60187468393,0.024114586291457,0.1550704636270711,Null
-0.0623757773107304,-0.08068847656,-0.03332519531,0.000163627426293,0.0127755730411231,-0.4465722533220654,-0.48266601562,-0.41638183593,0.00035678694546,0.0188650003389582,-0.9033393763736776,-0.92309570312,-0.87719726562,0.000129390933805,0.0113606783273478,1.0099130696609824,0.98830962611,1.02940234923,6.346404294467165e-05,0.0079563926433047,Null
-0.1008740234364,-1.2060546875,0.69213867187,0.3393632700898682,0.5818203003631306,-0.2321435546863999,-0.73229980468,0.52966308593,0.1720961864342057,0.4143258934318735,-0.6390881347617999,-1.08251953125,-0.13610839843,0.0819156044691558,0.2858510371819261,1.0227720502819,0.35533518954,1.56277206436,0.0183747359239607,0.1353838952170857,Null
-0.8862451171839,-1.12377929687,-0.69348144531,0.0048496153360323,0.0695520761565913,0.3546362304648,0.14733886718,0.50036621093,0.0059650719255259,0.0771372753324366,-0.3965454101525,-0.70483398437,-0.12329101562,0.0108400193373046,0.1039851878344286,1.0416510338574,0.8373200935,1.30034841604,0.0050217739359374,0.0707758398120261,Null
-0.8807577139155994,-1.11279296875,-0.73754882812,0.0061959570683561,0.078652299810045,0.3398637741488171,0.14892578125,0.48022460937,0.0032175054985598,0.0566783077442456,-0.4169954606752051,-0.57666015625,-0.24157714843,0.0060791784870563,0.0779075726579597,1.0364956925065458,0.88030001014,1.29216578348,0.0064273463839175,0.0801074816330905,Null
-0.915077389473176,-1.26953125,-0.57873535156,0.0385849690078172,0.1962522403460248,0.3433780289346824,0.23913574218,0.44677734375,0.002528374486949,0.0502372947671436,-0.417884563573539,-0.63366699218,-0.05834960937,0.0189010777238556,0.137356377709579,1.0731066999525771,0.70521857851,1.45065620368,0.0383196662703095,0.1955763804668082,stairs up
-0.8967994103027692,-1.27331542968,-0.5146484375,0.0356472846805638,0.1886232546904657,0.3455784724265961,0.0517578125,0.55224609375,0.0090923891236893,0.0952622892858969,-0.4350431002063076,-0.68127441406,-0.09729003906,0.0211671983467648,0.1453495517574717,1.069767984943404,0.67908036311,1.41848661881,0.0343788617160643,0.1852370063471564,stairs up
-0.9480859139074396,-1.26635742187,-0.67077636718,0.026815985994583,0.1635579807944346,0.3087848165722464,0.00366210937,0.50512695312,0.0060490114254103,0.0776814024506612,-0.3643848953578261,-0.62280273437,-0.05822753906,0.0238301562158316,0.154183641972893,1.0748045990490096,0.74715246609,1.46143571752,0.0284132287338627,0.1683585392743205,stairs up
-0.923892517086275,-1.4033203125,-0.59265136718,0.0364122324903893,0.1905812212920344,0.3194650268519,0.07849121093,0.55480957031,0.0053737937984856,0.0732144747573145,-0.37265289306255,-0.59875488281,-0.07177734375,0.0179072975626535,0.1336507737304461,1.05752765759165,0.70179966951,1.52224122053,0.0357742448019861,0.1889042328535314,stairs up
-0.8957321166956,-1.20202636718,-0.56201171875,0.0231207096202558,0.1518647682848304,0.3558886718713249,0.12780761718,0.79370117187,0.0091703881655691,0.0956423661101881,-0.4008758544887,-0.66076660156,-0.08862304687,0.0223292818101192,0.1492429516111027,1.0546445264528002,0.64744073022,1.46123999253,0.0319829311572811,0.1786140359249181,stairs up
-0.9341314697232,-1.29248046875,-0.58471679687,0.0335165999583292,0.1828464067419248,0.3198364257777,0.18896484375,0.69128417968,0.0064257217529413,0.0800603363005617,-0.38497711181285,-0.60656738281,-0.06164550781,0.0209606635831505,0.1445968945869608,1.07176363203885,0.69103521962,1.44173543422,0.0352659282929988,0.1875573604854427,stairs up
-0.9067935180623,-1.32153320312,-0.58837890625,0.0403252915145228,0.2005604105643398,0.3393493652304499,0.13195800781,0.46643066406,0.0040303335378838,0.0634055021590328,-0.380997619625225,-0.61743164062,-0.07165527343,0.0174456049018143,0.1319166058142789,1.05043065235135,0.69143398681,1.48905155942,0.0409361741589872,0.2020738323573584,stairs up
-0.905326843258,-1.22814941406,-0.61474609375,0.0213604327595604,0.1459692833361238,0.3379837036098,0.1923828125,0.47045898437,0.0031636746618927,0.0561762002563189,-0.41618621825835,-0.60424804687,-0.15393066406,0.0163665144140058,0.1277716640259915,1.061032733519875,0.78388812011,1.35156557049,0.0221138636381042,0.1485213081648858,stairs up
-0.909342346187975,-1.25854492187,-0.58227539062,0.0406033103470758,0.2012505952070904,0.3283911132773,0.19970703125,0.48486328125,0.0030849173792283,0.0554725615577674,-0.396581115718175,-0.61352539062,0.03479003906,0.0203735203887071,0.1425573098362036,1.05638087964975,0.69470610589,1.42011662109,0.042182290423068,0.2051263871300092,stairs up
-0.8887564086873,-1.12158203125,-0.712890625,0.0063914031155325,0.0798462560659152,0.3241934204065499,0.13977050781,0.46496582031,0.0034682768545179,0.0588184168639518,-0.42186614989825,-0.63952636718,-0.20593261718,0.0100327720057882,0.1000384429895519,1.041130502829625,0.7954702618,1.34996037535,0.0085934134599044,0.0925847175631846,Null
-0.549459533687625,-1.04406738281,-0.02893066406,0.0912648653438111,0.3017228913762621,0.6245513915979751,-0.01391601562,1.00866699218,0.1071958590324601,0.326998271226132,-0.290272216796175,-0.9541015625,0.13537597656,0.1175667625144644,0.3424512309923535,1.040908861756825,0.80092829773,1.35683259316,0.0079943252543637,0.0892991570017762,Null
-0.8774545288048751,-1.00134277343,-0.63024902343,0.0022399462246764,0.0472688730468031,0.3422787475548,0.146484375,0.70300292968,0.0062431881263965,0.0789150185711222,-0.40296569823895,-0.90148925781,0.05798339843,0.0142890779739352,0.1193874167531923,1.03343328977315,0.90916458428,1.31333999207,0.0037212987882742,0.0609261482559302,Null
-0.885217895504,-1.00378417968,-0.81396484375,0.0009308271834248,0.0304712998650573,0.35375671386315,0.17224121093,0.49230957031,0.00106425832651,0.0325821681398549,-0.35524169921505,-0.56799316406,-0.2822265625,0.0022832353969734,0.0477234461086055,1.01886754700395,0.93007377005,1.16240186456,0.0011305731868016,0.03358194088844,lift down
-0.91243164062065,-1.06530761718,-0.87194824218,0.0011310746257346,0.0335893872997158,0.3495288085901499,0.28784179687,0.37548828125,0.0002069974363963,0.0143694099671947,-0.3414758300742,-0.37951660156,-0.24670410156,0.0003117308446258,0.0176338174401984,1.03541955755825,0.98255905043,1.14349649804,0.0008618020975347,0.0293197474799997,lift down
-0.88997314452735,-1.23754882812,-0.66931152343,0.0101398370677588,0.1005708082650697,0.35745727538695,0.1875,0.5986328125,0.0084148475983611,0.0916177410732511,-0.42459167480135,-0.68969726562,0.03857421875,0.0151020421414356,0.1227366572629469,1.0601975094403,0.81134195513,1.30702935838,0.0096840280564282,0.0982843730523178,Null
-0.88126953124635,-1.04626464843,-0.77490234375,0.0033046259676207,0.0574139739323249,0.3287115478477,0.19567871093,0.46252441406,0.0029948513158415,0.0546567853752113,-0.42056396484025,-0.65234375,-0.18481445312,0.0094925069929125,0.0973076344663162,1.03621710313805,0.86342370251,1.23480474258,0.0035768785921622,0.0597322056823773,Null
-0.8818609619102,-1.11206054687,-0.68200683593,0.0110840352701515,0.1051490617265612,0.324258422848,0.20703125,0.42590332031,0.0026463434417839,0.0513782792936814,-0.42702331542615,-0.59887695312,-0.17004394531,0.012349857787771,0.1109909146881023,1.0386058422581,0.80558043074,1.28340854481,0.0125154217387277,0.1117324177863386,Null
-0.9310546874958,-1.21252441406,-0.60107421875,0.0294227789816642,0.1713161464492184,0.3033532714805,0.11743164062,0.43725585937,0.0046763202764774,0.0682980927682924,-0.3787127685507,-0.61193847656,-0.10559082031,0.0126876195089957,0.1124984464791549,1.05835077461565,0.7638372647,1.36027412714,0.0289451522132863,0.169919949778574,stairs up
-0.90056823730105,-1.30529785156,-0.54943847656,0.0384464082857526,0.1958323064896041,0.30897033691025,0.11633300781,0.41821289062,0.002846126385713,0.0532823710972845,-0.4046588134731499,-0.67785644531,-0.138671875,0.0159532498562669,0.1261481935329487,1.043591486795,0.64778068322,1.4899156562,0.0383499280236121,0.1955864340989762,stairs up
-0.8782989501913001,-1.04650878906,-0.74841308593,0.0031201052841335,0.0557880365394157,0.3246124267538999,0.24328613281,0.40185546875,0.0011787637788047,0.0342901861960206,-0.41897766112955,-0.60864257812,-0.19140625,0.0070940857360045,0.0841210468412306,1.0294786105037,0.82676135557,1.24552659428,0.0038724982103213,0.0621515644597588,Null
-0.8860046386678999,-1.06896972656,-0.59692382812,0.0071474541921555,0.0844368732052242,0.33223876952735,0.2412109375,0.44274902343,0.0026990545721446,0.05188744487556,-0.406104125973,-0.62805175781,-0.18798828125,0.0081200173470703,0.0899984294513115,1.03404667670845,0.76686344411,1.29567595859,0.0089989584331499,0.0947441873524019,Null
-0.897719726558875,-1.19067382812,-0.625,0.0199272320473921,0.1409872829984097,0.2730895996062,-0.2158203125,0.61047363281,0.0288838910349379,0.1697400403774859,-0.4060559081997999,-0.7236328125,0.26831054687,0.0312436992642974,0.1765377863691984,1.0490258581216,0.78516870934,1.39013476785,0.0238943426960496,0.1543846068729311,Null
-0.9034182739222,-1.29113769531,-0.77014160156,0.0101974828872276,0.1008562798243599,0.250770874020275,-0.11083984375,0.53112792968,0.0118123522342155,0.1085487049836617,-0.318064880368175,-0.70910644531,0.67272949218,0.0911658102594728,0.3015591081924473,1.042800312737225,0.8926042098,1.3696195823,0.005598718107529,0.0747309929832344,Null
-0.8431533813438751,-0.94360351562,-0.71496582031,0.0019434288606573,0.0440291981360744,0.3883804321256249,0.29333496093,0.60375976562,0.0061813344535528,0.0785231247303556,-0.385083618160475,-0.59387207031,-0.0380859375,0.0074618232275622,0.0862738005972459,1.0114352356639,0.86653864702,1.1370902028,0.0019345310341595,0.0439282905036627,lift down
-0.856522521969075,-0.86950683593,-0.845703125,2.848112260402672e-05,0.0053300956649498,0.343370666500275,0.32177734375,0.35852050781,8.71656076075261e-05,0.0093245747135463,-0.4332131957969,-0.44323730468,-0.41625976562,3.483747620347465e-05,0.0058949455055128,1.01947509834825,1.00569395167,1.02975886362,2.862166573716609e-05,0.0053432304435447,lift down
-0.8465521240193,-0.9326171875,-0.80163574218,0.0007303303043302,0.026990822117332,0.36132965087485,0.22021484375,0.43383789062,0.0019821883494417,0.0444660868366912,-0.4685540771446749,-0.53771972656,-0.36486816406,0.0012213359795298,0.0349039057926332,1.034440267288025,0.9615928617,1.09041018788,0.0006114204562595,0.0246959896566011,lift down
-0.846746520992625,-0.92272949218,-0.73303222656,0.0012933386708579,0.0359180361960509,0.3816796874963749,0.23388671875,0.54504394531,0.0052570503696176,0.072414830965028,-0.4184268188441,-0.51965332031,-0.34484863281,0.0016472175492343,0.0405351638131788,1.02258539752655,0.96269786677,1.0676684752,0.0002368668955675,0.0153712305404819,lift down
-0.8216256713828501,-1.09729003906,-0.58605957031,0.0092845827071823,0.0962360184671748,0.4569277954067,0.0546875,0.86486816406,0.0206190603006573,0.1434137812412241,-0.3898095703088999,-0.68408203125,-0.04321289062,0.0164687839307245,0.128170246043681,1.0343400350038,0.72216525538,1.35722170664,0.012231020608273,0.1104556157773445,Null
-0.807092285152125,-1.26135253906,-0.47131347656,0.0491627765478766,0.2214494741617305,0.5207574462860749,0.2353515625,0.92553710937,0.0208135844467334,0.1440886896519521,-0.303523559566525,-0.59143066406,-0.10131835937,0.0092634206692508,0.0961262821374971,1.0204604712803,0.60546324942,1.44791678273,0.0525463003422115,0.2289430815538133,stairs up
-0.8807705688435251,-1.28466796875,-0.50317382812,0.0333625930927559,0.1824258386578612,0.395241699214775,0.24682617187,0.71594238281,0.0121464427192261,0.1100730512542833,-0.3202639770473749,-0.60437011718,0.017578125,0.0213005754059416,0.1457646183661412,1.034867274412075,0.69138786593,1.48878190237,0.0303098970182374,0.1738796200700123,stairs up
-0.9171240234334,-1.23876953125,-0.63452148437,0.0239902190038832,0.1546940317412845,0.338974914547025,0.19287109375,0.47412109375,0.0034210016956491,0.0584161723447371,-0.3952438354452999,-0.58374023437,-0.09228515625,0.0186720955205179,0.1364749621055695,1.0636697430719,0.74236349729,1.43504298183,0.0268801424709818,0.1637465789407657,stairs up
-0.912084412986808,-1.32006835937,-0.58215332031,0.0435895891200352,0.2085207109684269,0.3303731028837406,0.21057128906,0.42907714843,0.0022944181952675,0.0478403224710308,-0.419113045019975,-0.62561035156,-0.14697265625,0.0152562254625772,0.1233619877131764,1.0658869099129178,0.69857406731,1.49695805715,0.0416768990938611,0.2038944988889307,stairs up
-0.9224134555101005,-1.27856445312,-0.52404785156,0.0364523856706151,0.1906856741027812,0.3241970282113533,0.19165039062,0.45361328125,0.0031676088133352,0.056210941498332,-0.3824664811403258,-0.5849609375,-0.12194824218,0.0158691188005985,0.1258147311447595,1.05861936772406,0.65252777747,1.42930926338,0.0369987109067982,0.1921092978177639,stairs up
-0.9282922363246,-1.32531738281,-0.54406738281,0.0372655470135269,0.1928014085684882,0.339166870113675,0.14013671875,0.73400878906,0.0100005870022974,0.0998778530746017,-0.30919982909785,-0.56408691406,0.09484863281,0.0282825167132231,0.1679637175744812,1.0540000768474251,0.69555862228,1.41252387625,0.0369010458405371,0.1918561784929946,stairs up
-0.9262670898399,-1.25524902343,-0.58923339843,0.0382893875666512,0.195431993536715,0.335798645015825,0.19934082031,0.54724121093,0.0039885006541071,0.0630755848365422,-0.352597351070775,-0.57885742187,-0.07678222656,0.0150290501221565,0.1224396892222908,1.05631797427125,0.71120633292,1.39797653294,0.0365036109548755,0.1908202083834109,stairs up
-0.8995071411095751,-1.23095703125,-0.58117675781,0.0190163412502909,0.1377272681685264,0.3453036498985999,0.04321289062,0.84899902343,0.013225734506249,0.1148593495105359,-0.371682434078525,-0.6552734375,-0.07836914062,0.0161175179750109,0.1267959943376501,1.044488715156875,0.65912138504,1.51102153954,0.0238371508788368,0.154199734116631,Null
-0.8815793158669576,-1.21044921875,-0.68469238281,0.0069796270433167,0.0834399274304141,0.3247880055682294,0.18090820312,0.47863769531,0.0040893048625815,0.0638678878220068,-0.4344546348934414,-0.6181640625,-0.18664550781,0.007760019224074,0.0879810636170422,1.04028032899399,0.74157980082,1.39728411736,0.0086917667594609,0.0931133262784354,Null
-0.861837210209198,-1.03845214843,-0.03430175781,0.0273227236532377,0.1650885993916426,0.3601386278158646,-0.07263183593,1.041015625,0.0324031008969612,0.1797828971781543,-0.3955766491387218,-0.73583984375,0.16528320312,0.0184275461543318,0.1355778810430762,1.049900558454712,0.85774517698,1.17980681693,0.0042117977110058,0.0648169871794298,Null
-0.5283984374971,-1.22192382812,0.15783691406,0.0994723875470589,0.3149979469428193,0.8236621093708999,0.3056640625,1.326171875,0.0226106181538433,0.1501801971248499,0.0420410156226,-0.53039550781,0.22326660156,0.0103559275912114,0.1016367933980282,1.0357975580342,0.80609567813,1.6267981713,0.0186695547754242,0.1364656765948334,Null
-0.6637554931604001,-0.72192382812,-0.58288574218,0.0007372563460939,0.0271185030049353,0.764479370113975,0.69262695312,0.83862304687,0.0005853897911906,0.0241645673810369,0.09945129394135,0.001953125,0.22814941406,0.0042719453046948,0.0652783688631473,1.020038426337925,0.99195602299,1.04532840699,7.404874559084902e-05,0.0085943949017293,Null
-0.7200939941372,-1.15686035156,-0.47937011718,0.0195980999689639,0.1398181129862707,0.6603405761681,0.03149414062,0.98425292968,0.0399095353312368,0.1995238369040369,0.0369250488264,-0.59143066406,0.37426757812,0.0456011248984436,0.2132771016452481,1.0274798957831002,0.79174075386,1.24566897862,0.0050922789140747,0.0712709493187059,Null
-0.9274060058559,-1.03833007812,-0.74462890625,0.0026237440870968,0.0511584277209446,0.3093359374957,0.09252929687,0.4619140625,0.0063707672205149,0.0797172522259995,-0.2859973144493999,-0.58508300781,-0.16674804687,0.0114201265155193,0.1067313271688803,1.0272411702995998,0.8747168747,1.14007473436,0.0027110426739855,0.0520025486615859,Null
-0.8911669921839,-0.91296386718,-0.84265136718,0.0004254096492488,0.0205996632284534,0.3740612792931,0.36083984375,0.39111328125,3.52416405975858e-05,0.0059290417856591,-0.2900903320277999,-0.30407714843,-0.27197265625,5.009932625757179e-05,0.007069234607928,1.0091199256517,0.95938283873,1.03159735349,0.000440399753063,0.0209594549948309,lift down
-0.7924670410118,-1.12658691406,-0.099609375,0.0401984255697268,0.200244674100967,0.5969348144491,0.310546875,1.13366699218,0.0414664354226125,0.2033783895453398,-0.2043286132786,-0.62109375,0.35729980468,0.0302406812424987,0.1736809705736138,1.0511535650737,0.33708885192,1.43090719819,0.0328695007626693,0.1810727119440216,lift down
-0.6768884277303999,-0.70788574218,-0.64086914062,0.0002180727068882,0.0147488143632312,0.7663537597622,0.73693847656,0.82409667968,0.0004481084528939,0.0211420950182747,0.0331323242154,-0.01184082031,0.06237792968,0.0002090534112053,0.014440594782671,1.0233385901293,1.00835414495,1.07778897784,0.0002255198418459,0.0149985346698057,lift down
-0.76033386230065,-0.89331054687,-0.57287597656,0.0051093669310888,0.0713904301273016,0.679193420406025,0.49938964843,0.86877441406,0.0067579237626125,0.0821037694214221,-0.020711059570275,-0.322265625,0.21936035156,0.0113663242834075,0.1064796152918437,1.0283805126077252,0.8243207552,1.23144150687,0.0054629420581859,0.0738192705398836,Null
-0.801098632808625,-0.91088867187,-0.51879882812,0.00641729703227,0.0800078358018097,0.611584167476875,0.47863769531,0.85791015625,0.0065001302045374,0.0805225426761112,-0.032994689941275,-0.34606933593,0.13464355468,0.0099479245646912,0.099614530834008,1.018458062514275,0.87065218523,1.18653837594,0.0024403271010412,0.0493378787878914,Null
-0.7799594116173251,-0.94677734375,-0.62719726562,0.0066430575379581,0.0814030091219804,0.63883728026985,0.41003417968,0.83117675781,0.0115963212227785,0.1075515244881334,-0.017901611327525,-0.29541015625,0.25756835937,0.0097953258520317,0.0988475469468091,1.0217548250168,0.95116212279,1.08880544581,0.0007538020327448,0.0274211146320313,Null
-0.7051243220319047,-0.76550292968,-0.64526367187,0.0008157568756034,0.0285256441146535,0.7505895475954887,0.66027832031,0.85620117187,0.0019770174922926,0.0444079110208334,-0.0781525346533834,-0.14123535156,-0.02966308593,0.0003835473415306,0.0195598075143385,1.034114858016015,1.00314570907,1.09625905939,0.0004687935109146,0.0216244905104057,lift up
-0.6506572923121695,-0.79895019531,-0.56530761718,0.0033775270858262,0.0580439861227135,0.7799248826144638,0.630859375,0.85302734375,0.0033207665238757,0.0575541945526066,-0.0304688717640399,-0.12451171875,0.04919433593,0.0014144286571642,0.0375619675157616,1.0200665772250126,0.98203568802,1.06170616226,0.0001230626644509,0.0110795205227204,lift up
-0.637202148433825,-0.6904296875,-0.60510253906,0.000466337305547,0.0215678339729141,0.7942596435514001,0.76159667968,0.81872558593,0.0002097594913419,0.0144649608576591,-0.050178222652025,-0.07800292968,-0.02380371093,0.000188635799809,0.013717296027625,1.019918012328375,1.00867751798,1.02973715035,2.2688987267032375e-05,0.0047573379950204,lift up
-0.6134460449178001,-0.6953125,-0.56372070312,0.0004399981639195,0.0209498966228894,0.8123150634725249,0.73571777343,0.83972167968,0.0002314676882142,0.0151950327078856,-0.060007629391425,-0.12121582031,0.02648925781,0.0009249780887746,0.030375411825237,1.02043823216125,1.00011046365,1.03880516967,5.609969847702294e-05,0.0074806048706525,lift up
-0.7047177123988498,-0.88195800781,-0.58447265625,0.0097196621291717,0.0984650342702869,0.7041543579065751,0.48315429687,0.82556152343,0.0092492583168906,0.0960527728444024,-0.024455871581675,-0.19567871093,0.11083984375,0.0054459176739504,0.0737041578187115,1.0083596264715,0.94316256979,1.06631322601,0.0006247301348771,0.0249633393106759,lift up
-0.7819195556602999,-1.08203125,-0.56323242187,0.0096351076304386,0.0980358090769007,0.628254699703225,0.32836914062,0.92919921875,0.012833113637507,0.1131416406696192,-0.073203124998775,-0.37463378906,0.20654296875,0.0154660830754888,0.1242071570715637,1.0203742671313,0.72998085659,1.31991107187,0.0078638330249915,0.0885673384630532,Null
-0.7817272949177,-1.18688964843,-0.48132324218,0.0218779812465991,0.1477270668952803,0.6620715331996,0.33776855468,1.06469726562,0.0219185248340735,0.1478638851173212,-0.06180603027265,-0.48828125,0.14099121093,0.020121637826918,0.1416733345847083,1.0416013988092,0.59029753704,1.35003349607,0.0321615424741766,0.1791120839530129,Null
-0.7000378417934999,-1.23010253906,-0.31079101562,0.0332346426498889,0.1820756876775816,0.6747705078087001,0.28930664062,1.04833984375,0.0217582365564097,0.1473222351344789,-0.15669921874675,-0.47155761718,0.12890625,0.0145996004953133,0.1206776760385906,0.99564097761355,0.42738936283,1.59517185046,0.0481608075254556,0.219181216135512,stairs down
-0.7796246337853,-1.328125,-0.43237304687,0.0346392949688198,0.1858835569150691,0.6675518798799999,0.27124023437,1.10595703125,0.0221159572107683,0.1485283384332478,-0.08977966308485,-0.49621582031,0.2373046875,0.022663287938868,0.1503550122843293,1.04734353615795,0.51114781393,1.68867855066,0.0439017352150025,0.2092653360615777,stairs down
-0.7637567138638,-1.25048828125,-0.3935546875,0.0258194235331045,0.1604832544980061,0.65828369140245,0.32446289062,1.20190429687,0.0210516465398354,0.1449103772111779,-0.1203271484351,-0.42565917968,0.09997558593,0.0199891441083615,0.1412061303488296,1.03092702323625,0.55043306911,1.58358101465,0.0351106720767344,0.1871440498561003,stairs down
-0.74298583984045,-1.34375,-0.43273925781,0.0283173548011788,0.1680671336525254,0.7283148193328999,0.49523925781,1.01794433593,0.0189152132743302,0.137360566543475,-0.1621508789031,-0.41564941406,0.11437988281,0.0144862086608018,0.1202081242643352,1.0647696518018,0.7484384911,1.63764466745,0.0366851229966205,0.1912940411751734,stairs down
-0.7672161865198,-1.16638183593,-0.47106933593,0.0258281436148268,0.1605103524878995,0.6455804443317501,0.32995605468,0.92468261718,0.0184041470957378,0.1354922017239314,-0.0666595458974499,-0.50512695312,0.134765625,0.0201972569040924,0.1419392960452891,1.01963892879785,0.59251248493,1.38696364805,0.0345295344839922,0.1855888214515686,stairs down
-0.7328137206991999,-1.30310058593,-0.51831054687,0.0227163895015101,0.1505310550277128,0.67789306640285,0.43798828125,1.08996582031,0.0140764259156212,0.1184957165927621,-0.16041442870785,-0.48413085937,0.13037109375,0.0131804035087689,0.1146623412459253,1.02247968184605,0.72164847754,1.51495288418,0.0267381792002628,0.163313605533226,stairs down
-0.7995495605434,-1.22204589843,-0.39025878906,0.0490237540456644,0.2211361450793387,0.6267700195272,0.29724121093,0.96789550781,0.0213907507426911,0.146072837536054,-0.0350769042972499,-0.37573242187,0.19934082031,0.0205732147413463,0.1432542554498572,1.0329835250061,0.54897169359,1.47854405102,0.057198830733023,0.2388636298313128,stairs up
-0.7478479003869001,-1.20520019531,-0.37902832031,0.0293491054463694,0.1711015274120997,0.66794494628525,0.29565429687,1.04187011718,0.0241505936416714,0.1552102353505311,-0.01816528320325,-0.44116210937,0.49560546875,0.0215056032741415,0.1464644641746119,1.02178734451455,0.55912667308,1.40357414609,0.0366168647536569,0.1911159925065738,stairs up
-0.8503277587849,-1.46508789062,-0.10119628906,0.1147494358196505,0.3383231624203425,0.222429199216,-0.234375,0.57397460937,0.0319934473950372,0.178643398357033,-0.47900085448775,-1.15686035156,-0.00744628906,0.0636689747239496,0.2520115122115252,1.0800935333056498,0.65425042514,1.57377240027,0.0453710799319119,0.2127384596919001,stairs up
-0.9360949706991,-1.34020996093,-0.55285644531,0.0488366139546997,0.2207136661374029,0.28443969726195,0.04541015625,0.61315917968,0.006470865669986,0.0803410760807392,-0.3703570556603,-0.61193847656,-0.00732421875,0.0239224110297063,0.1544752569252824,1.05996413104325,0.66550714765,1.48592690104,0.0499768832634639,0.223275482432141,stairs up
-0.8947613525355002,-1.21142578125,-0.56213378906,0.0166015874738858,0.1286859879909276,0.3033087158168499,0.15710449218,0.40246582031,0.0026386813856899,0.0513038466611002,-0.418092041011525,-0.63122558593,-0.14416503906,0.0168226227559828,0.1295398247609315,1.0418789664569998,0.76109252032,1.33030434363,0.0182270200368066,0.134838616452093,stairs up
-0.9551824951136,-1.259765625,-0.62158203125,0.0246294411796022,0.1567414035175557,0.25552795409745,0.13671875,0.3642578125,0.0022326182568402,0.0471914898175316,-0.3694665527302,-0.53881835937,-0.12536621093,0.0149520195083588,0.1221255069982843,1.0639630212693,0.72101700933,1.40746865979,0.023925715291633,0.1544859249362349,stairs up
-0.8881747436486751,-1.072265625,-0.73950195312,0.0054235244342203,0.0735524685046996,0.2921585082968,0.18530273437,0.42993164062,0.0024815842784768,0.0497531940460175,-0.435594177242225,-0.64367675781,-0.21313476562,0.0090145829079788,0.0948264016543328,1.037413763064825,0.87446234567,1.24686023851,0.0059187437349595,0.0768371451553356,Null
-0.937313842769775,-1.54138183593,-0.49755859375,0.0633472164529775,0.2513739215030968,0.28460388183255,0.07592773437,0.5556640625,0.009093908504424,0.0952427096063681,-0.4400051879845,-0.71630859375,-0.12377929687,0.0207650362623946,0.1439205463849366,1.08877875856705,0.5519101768,1.69102317753,0.0608472536999426,0.2463638276324118,stairs down
-0.9568096923793502,-1.56311035156,-0.63220214843,0.0236994571222262,0.1537537267171782,0.2715496826133,0.03015136718,0.54846191406,0.0098992332744897,0.0993704442543331,-0.4058953857385751,-0.62939453125,0.01574707031,0.0215476306304484,0.1466075085180576,1.0879442959119,0.67000226797,1.6533860781,0.025424306707372,0.1592505759506182,Null
-0.88075958251595,-1.0673828125,-0.68347167968,0.0031284426864373,0.0558625239290283,0.2682330322230249,0.14880371093,0.5283203125,0.0031363007534756,0.0559326380710938,-0.4371807861294999,-0.56848144531,-0.21252441406,0.0030856701929867,0.0554793296418069,1.0221363334132,0.83416675476,1.18791387272,0.0033862606969774,0.0581188011338416,Null
-0.529627380368675,-1.66442871093,0.99108886718,0.4663831721817774,0.6820683354703714,0.3859625244104249,0.07275390625,0.89184570312,0.0276503264451596,0.1660758881627515,-0.307303771970675,-0.84521484375,0.3583984375,0.0957865069734754,0.3091068435121451,1.0182718117457252,0.45931704213,1.96018707308,0.0755647253593318,0.2745465598872684,stairs down
-0.661485595700525,-1.44482421875,1.08508300781,0.4401849827619973,0.6626345299673814,0.409626464840125,0.03100585937,1.11315917968,0.0470168270022315,0.2165624273384605,-0.3313708496069499,-0.72314453125,0.33666992187,0.0569552700297118,0.2383545297548119,1.097904510474125,0.62413614893,1.58793586582,0.0526977914406642,0.2292728657343964,stairs down
-0.93731872558265,-1.6884765625,-0.22241210937,0.0778881203079279,0.2787353583727011,0.300128479000275,-0.0166015625,0.81176757812,0.018237989076363,0.1348791833593016,-0.40994537353135,-0.73608398437,-0.05041503906,0.0286215962508396,0.1689675775414105,1.0919639421397,0.46491059856,1.80281783351,0.0689215959433203,0.2622008618472907,stairs down
-0.9212451171840752,-1.50122070312,-0.43786621093,0.0509926711766476,0.2255331228416482,0.2882824706997499,0.12451171875,0.58410644531,0.0066287060115751,0.081315030877115,-0.424575195308725,-0.67041015625,-0.18347167968,0.0153755414995808,0.1238430565103748,1.06372209574135,0.56752194981,1.61783159946,0.0535069420977325,0.2310263507535194,stairs down
-0.9335891723599752,-1.70788574218,-0.42687988281,0.064120869978583,0.2529042660842963,0.2739068603478,0.12756347656,0.53588867187,0.0061010232241915,0.0780113495981904,-0.39414978026955,-0.67590332031,-0.06469726562,0.0245951713533432,0.1566323192223108,1.06317981390425,0.55626673941,1.78086679502,0.0663623713101227,0.2572867376718967,stairs down
-0.8083175659146251,-1.1728515625,-0.08850097656,0.0337596476465871,0.1835081701926937,0.359422302242575,0.15148925781,0.81176757812,0.0231555306274811,0.1519790834322684,-0.4636785888638999,-0.66809082031,0.05773925781,0.0086350313698326,0.092808640715227,1.028384499093875,0.67609543745,1.33765395918,0.0053846302058083,0.0732882571104934,Null
-0.83216888427415,-1.13818359375,0.09411621093,0.0951835753802394,0.3081324657380148,0.359029235836375,0.07482910156,1.03112792968,0.0554091839928786,0.2350971310605394,-0.18551971435315,-0.5400390625,0.45458984375,0.0624972576323795,0.249681826507855,1.02976253177115,0.81325129473,1.26052176678,0.0079910061917095,0.0892806175842791,Null
-0.872090759273225,-0.91455078125,-0.83898925781,0.0001574957795559,0.0125340352683023,0.166711120602175,0.09802246093,0.20153808593,0.0003494121525569,0.0186691891140332,-0.4909103393518249,-0.58117675781,-0.35791015625,0.00097013376701,0.031108012353613,1.015221116306125,0.98473825261,1.05485229617,0.0001276045381333,0.0112820887599769,Null
-0.9341918945277,-1.22644042968,-0.7177734375,0.0103291137176839,0.1015051276211687,0.2248358154259749,0.10876464843,0.37023925781,0.0035868845633785,0.059815694863222,-0.324432067867425,-0.55676269531,-0.13427734375,0.0072060959193583,0.0847825493811074,1.019316560030625,0.80904339069,1.33195154169,0.0106113742095329,0.1028826796599364,Null
-0.9704074096644252,-1.13916015625,-0.82116699218,0.0032277379716064,0.056742123917575,0.20461456298385,0.08581542968,0.43872070312,0.0078729531742454,0.0886186819542571,-0.198023681636775,-0.3828125,-0.03674316406,0.0066621700310444,0.0815200257971426,1.018981841557175,0.90137434571,1.20530375218,0.002232583531435,0.0471911228156999,Null
-0.9428799438433,-1.01525878906,-0.90393066406,0.00041314813492,0.0203006222708261,0.184238281246125,0.09973144531,0.29541015625,0.001587104253639,0.0397886477906063,-0.3347906494104,-0.37707519531,-0.2138671875,0.000946710641136,0.0307301784006079,1.0186239814577498,0.96760231144,1.08287105952,0.0003968839439323,0.0198970282723954,Null
-0.943976135250025,-1.03967285156,-0.884765625,0.0014955413332963,0.0386238589470687,0.15701629638305,0.13134765625,0.20751953125,0.0003380216078256,0.0183623678703516,-0.339768066402325,-0.37536621093,-0.28942871093,0.0003510308086525,0.0187123817733307,1.015952926407025,0.95800396279,1.09718753948,0.001169628313438,0.0341570526049085,lift up
-0.9272546386675,-1.15161132812,-0.73657226562,0.0071826471885416,0.0846444952171743,0.1806433105429,0.01782226562,0.46337890625,0.0080963615352576,0.0898672389217535,-0.3914599609340999,-0.61926269531,-0.0478515625,0.0137045633583692,0.1169200664983275,1.0339474955386,0.83018862718,1.27933373434,0.0055516403125119,0.074416135425932,Null
-0.9881555175744,-1.35607910156,-0.67907714843,0.0312972073132868,0.1766888912608929,0.3124584960903,0.09228515625,0.47119140625,0.0074254579770195,0.0860633158324558,-0.0595935058577999,-0.21838378906,0.09252929687,0.0056508061562097,0.075077820565192,1.0442593980287,0.73309227334,1.41237652627,0.0314966135621566,0.1772508731381915,stairs up
-0.9575122070277,-1.26867675781,-0.71398925781,0.0212936699598452,0.1457409886920822,0.2073059081991,0.0380859375,0.4912109375,0.0084864198041138,0.0920065419119943,-0.2715905761679,-0.4404296875,-0.01025390625,0.0112663159856987,0.1060101419475253,1.0263834183009,0.78069777999,1.35363133253,0.0211004266843911,0.1450781707138607,stairs up
-0.969025573726175,-1.33520507812,-0.65808105468,0.0335651916397633,0.1829789022282732,0.17936309814105,-0.02575683593,0.40637207031,0.0092449958340333,0.0960306375301561,-0.236858825680175,-0.42053222656,-0.07592773437,0.0058753875375109,0.0765552027537461,1.02026403157255,0.73197890046,1.38951112306,0.0349964448791557,0.1868393795936977,stairs up
-0.9389025878869,-1.06713867187,-0.74597167968,0.0035549355912697,0.0595487048750147,0.1569274902307,0.04248046875,0.36267089843,0.0035647316310443,0.0596306951323455,-0.3382922363244,-0.5634765625,-0.11010742187,0.0123648512915707,0.1110582692254019,1.018674342802,0.82042190185,1.21010562872,0.0023502099485715,0.0484183273533909,Null
-0.9471496581996,-1.21203613281,-0.71374511718,0.0068980250367664,0.0829504669919011,0.1805969238242,0.04504394531,0.35925292968,0.0050144764340526,0.0707243963775409,-0.3172802734338,-0.49560546875,-0.14135742187,0.0079840525409978,0.0892417638196675,1.0209599729674,0.80173593693,1.3396007551,0.0078817464242794,0.0886681569573809,Null
-0.9382360839804,-1.14428710937,-0.70678710937,0.0043030312351431,0.0655154459425814,0.1672204589806,0.03369140625,0.37890625,0.0034945383570698,0.0590406809850393,-0.3570654296838,-0.5546875,-0.234375,0.0024005119901774,0.0489337379545239,1.0206444270395,0.84036481794,1.2694270634,0.0042134257568274,0.0648297168930679,Null
-0.80670623778945,-1.13049316406,-0.3828125,0.0437175701523861,0.20882594720725,0.447380676266,0.03625488281,0.86975097656,0.0399211054935947,0.1995527567583588,0.143261718749375,-0.39440917968,0.72937011718,0.1233096012174598,0.3507154504928692,1.0354415719755,0.88642406188,1.21377213244,0.0057543868071999,0.0757627932443227,Null
-0.8445434570277002,-1.01928710937,-0.43212890625,0.0430016632666395,0.2071090512470977,0.3484484863241999,0.06982421875,0.86743164062,0.078284124232842,0.2794430423579372,0.0021142578135,-0.36401367187,0.58557128906,0.0816062314988519,0.2853107357252874,1.0179503142736,0.92633892919,1.12175134652,0.0008385114167741,0.0289208426265946,Null
-0.5810229492147999,-0.61730957031,-0.51928710937,0.0004848664924221,0.0219921423738361,0.7756079101527998,0.71313476562,0.8330078125,0.0006825552189794,0.026093080135009,0.2499914550738,0.17419433593,0.45385742187,0.0088812498983371,0.0941225093885163,1.0054441904443998,0.94794247228,1.06161556177,0.0007584513778135,0.0275055494285971,lift up
-0.91888824462455,-1.21520996093,-0.55139160156,0.0174970027640524,0.1321107878151601,0.269564819332275,0.07263183593,0.72888183593,0.0298791320754757,0.1726396079852102,-0.1273550415021499,-0.4755859375,0.46118164062,0.0738369421677555,0.2713896641590025,1.02483415872165,0.86948691338,1.27287323274,0.0044047574296155,0.0662853342455294,Null
-0.9682983398398,-1.26440429687,-0.65588378906,0.015531025584171,0.1244676585310843,0.2376605224578249,-0.00952148437,0.56237792968,0.0188347022451317,0.1370679229051016,-0.179410095212125,-0.45178222656,0.07141113281,0.0174766327537655,0.1320338637315485,1.0303070398138248,0.73421584088,1.2967384795,0.0164935734604371,0.1282666734845262,Null
-0.897248535152275,-1.43994140625,-0.18688964843,0.073787777904778,0.2712992968291958,0.32784637450795,0.03430175781,1.02331542968,0.0468433553516144,0.2161625475498367,-0.21218719482125,-0.68627929687,0.17858886718,0.0324874704204098,0.1800173651189207,1.0326281754812252,0.56866648658,1.59975488115,0.0432035372308557,0.2075946251418341,stairs down
-0.2738638305645,-1.35681152343,0.97900390625,0.6794557427186817,0.823260046013339,0.1858331298816249,-0.541015625,1.5771484375,0.2227731952214204,0.4713981992258422,-0.404655761715725,-0.80432128906,-0.01843261718,0.0230759658074135,0.1517177507508432,1.058127238294275,0.1437281903,1.87431426224,0.0768321046740356,0.2768393476591624,Null
-0.95862243651945,-1.37622070312,-0.60339355468,0.0369219712562966,0.1919105685681638,0.286221618648475,0.0849609375,0.47875976562,0.006474746098857,0.0803651618153658,-0.379411926265475,-0.67761230468,-0.1083984375,0.0216188416921964,0.1468495644800009,1.0813992596768751,0.64271328324,1.5056296939,0.0403627688170338,0.2006535867982212,stairs down
-0.98885375976185,-1.58605957031,-0.52551269531,0.0661101274609723,0.2567972977706734,0.286819152828075,0.04846191406,0.55065917968,0.0109950419803201,0.1047260921421657,-0.3980023193318,-0.68566894531,-0.13903808593,0.0199386994458255,0.1410278436948213,1.1154075522810998,0.61030446595,1.76937452047,0.0713484534826906,0.2667772148235,stairs down
-0.9509359741175502,-1.69592285156,-0.5244140625,0.0429691127507766,0.2070306498296802,0.285662231441525,0.07751464843,0.51257324218,0.0067187438479811,0.0818654199791416,-0.3875982665980499,-0.7509765625,-0.09729003906,0.0225870413287735,0.1501018778212037,1.075737662512025,0.5559157755,1.81807080774,0.0511250583954868,0.2258256977172841,stairs down
-0.88609191894145,-1.50793457031,-0.29235839843,0.0773537673117562,0.2777775780970755,0.2897479248016,-0.15161132812,0.73559570312,0.0195659636817359,0.1397034314987702,-0.4522521972622749,-0.82080078125,-0.07250976562,0.0313466141622443,0.1768282998471644,1.064429157419575,0.55427042633,1.68023187554,0.0687529291210751,0.2618798327444716,stairs down
-0.927561340327525,-1.36596679687,-0.55871582031,0.0158486044076935,0.1257337778668658,0.2962295532195499,-0.14733886718,0.48657226562,0.0081435910268647,0.09012897452705,-0.3973287963831,-0.94555664062,-0.07800292968,0.017606216425453,0.1325224542648883,1.062922071114675,0.71178629792,1.45881819895,0.0177275661931702,0.1329783714657664,Null
-0.9668963623007748,-1.32531738281,-0.58386230468,0.0348180336129324,0.1863625191096647,0.314002075192225,0.15930175781,0.96301269531,0.0214748090815183,0.1463595642888244,-0.366785888668375,-0.61181640625,0.0185546875,0.0252509672225815,0.1587067730266262,1.100898867291325,0.69864793206,1.4967069639,0.0374730838821065,0.1933375317221188,stairs up
-0.6738992309544,-1.23266601562,0.12390136718,0.1452858627759026,0.380687073748194,0.56963439941025,0.17663574218,1.35302734375,0.0826627043252157,0.2871516107640747,0.1156060791009499,-0.20788574218,0.9091796875,0.0672966328167263,0.2590914727170398,1.032526807756125,0.73971845619,1.36759145491,0.0204348533143762,0.1427717275271625,stairs up
-0.975729980465175,-1.29626464843,-0.67517089843,0.0267315811322302,0.1632934541841762,0.372148437496325,0.22839355468,0.55895996093,0.0058102331424236,0.07612954459057,-0.0520339965803249,-0.23779296875,0.1328125,0.0086369546368226,0.0928189757012574,1.0528416811214,0.74017246158,1.39106219095,0.0259159975864847,0.1607831072983681,stairs up
-0.94374145507435,-1.10412597656,-0.76953125,0.0048929126205453,0.0698618661287686,0.2219644164998749,0.04602050781,0.61730957031,0.0138045877583481,0.1173459683540607,-0.28265686034785,-0.42785644531,0.19250488281,0.0190825198582135,0.137966711777037,1.0267085117415502,0.91090534146,1.21736421416,0.0033746757130926,0.058019298718701,Null
-0.941208496090275,-1.11572265625,-0.76391601562,0.0056761665392089,0.0752461037055134,0.21480255126635,-0.09057617187,0.45007324218,0.0105482397161539,0.1025761625177288,-0.301209716792675,-0.46398925781,-0.10021972656,0.007426434290773,0.0860689735331267,1.0205480783189251,0.87578336526,1.20295333256,0.0048262615719032,0.0693844068791648,Null
-0.9406011962857248,-1.056640625,-0.84167480468,0.0017620866755362,0.0419247117920608,0.2088491821252499,0.05212402343,0.37829589843,0.0060793104767075,0.0778724097515661,-0.3119107055622,-0.49499511718,-0.1259765625,0.0060358551323071,0.0775935918389942,1.018670588637425,0.94757593322,1.14870608685,0.0013421669566834,0.036589773698285,Null
-0.9422192382775252,-1.13037109375,-0.76879882812,0.0041423732684765,0.0642807695606186,0.23711853026945,0.06115722656,0.52954101562,0.0114737883452523,0.106981792256389,-0.262626647945725,-0.48950195312,0.05102539062,0.0232405880054948,0.1522579604995453,1.0238356140383749,0.88950824993,1.25044542959,0.0035040498854659,0.0591209756410721,Null
-0.958658447261725,-1.03161621093,-0.88232421875,0.0008953464822812,0.029884914523477,0.271013793941525,0.17065429687,0.38427734375,0.002163110579746,0.046451079678482,-0.1904241943318499,-0.43237304687,-0.01708984375,0.00753926518231,0.0867203379799356,1.01930499281385,0.97339078445,1.05960479539,0.0002551265753318,0.0159527038113783,Null
-0.9321942138629252,-1.01452636718,-0.84582519531,0.0010353527537272,0.0321366515343921,0.168798217769975,0.04541015625,0.24255371093,0.0012496442121739,0.035306091565671,-0.394341125484525,-0.45202636718,-0.32409667968,0.0004091145056163,0.0202012801414255,1.02707247346375,0.9554272815,1.11368487219,0.0008402756234485,0.0289512509987037,lift down
-0.9126037597618,-1.1474609375,-0.6259765625,0.009532136091041,0.097510541741975,0.3250347900351,0.10546875,0.77880859375,0.0382793773651953,0.1954064454458509,-0.175489501951,-0.47180175781,0.42565917968,0.0549202449016303,0.2340575661869879,1.0326783823107,0.85568587278,1.25822956563,0.0053534737145689,0.0730759196335056,Null
-0.96034606933215,-1.14916992187,-0.66577148437,0.0060375790096075,0.0776046716511549,0.20997314452765,-0.02185058593,0.48291015625,0.013839387206482,0.1174937817012707,-0.2446166992146,-0.52453613281,-0.01501464843,0.0130890527166348,0.1142642992576562,1.02676524030225,0.76567176753,1.18838131976,0.0048394677015667,0.0694792705223134,Null
-0.7004760742152999,-1.14721679687,-0.42993164062,0.0238603508860475,0.1542747549303917,0.6366973876915,0.26489257812,0.82238769531,0.0224921862341732,0.1497863670985708,0.21728088378735,-0.30590820312,0.71032714843,0.0738521478782167,0.2714176072190624,1.02977490962405,0.91505844926,1.21017607468,0.0027359251086926,0.0522406479278434,Null
-0.68605163573825,-0.73107910156,-0.47021484375,0.0025715869287901,0.0506473884960334,0.7461437988243,0.68676757812,0.91467285156,0.0012316239492847,0.0350506046939499,-0.09846435546575,-0.15185546875,0.20568847656,0.0060969590480065,0.0779853617699278,1.022655131029,0.94625641852,1.07994822433,0.001147415743644,0.0338311573004078,lift up
-0.9669061279259752,-1.1162109375,-0.82971191406,0.0046918262062825,0.0684112318319647,0.30841186523065,0.06958007812,0.62060546875,0.0107342572425196,0.1034766717642839,-0.084088745115825,-0.5712890625,0.24230957031,0.0290067006011665,0.1701005110211713,1.038006296935275,0.89629036958,1.1983795709,0.0039708125353096,0.0629355662878418,Null
-0.7770361328087,-0.82971191406,-0.61120605468,0.0012980291658006,0.0359831084383513,0.261720581051,0.17492675781,0.625,0.0040897742665027,0.0638713537576625,-0.60542785644135,-0.82495117187,-0.42883300781,0.0021261143023249,0.0460521336809611,1.0225230055901,0.88141854547,1.12942016018,0.0007694632298767,0.0277045045399131,Null
-0.7315722534446135,-0.81518554687,-0.60095214843,0.002978116846155,0.0545040376564243,0.3333286656369327,0.10510253906,0.50463867187,0.0112345697594641,0.1058610097062371,-0.6443595600808478,-0.76049804687,-0.59387207031,0.0016082734146287,0.0400532490284422,1.0376081774622694,0.98953670927,1.10702755213,0.0006576202840834,0.0256121130180687,lift up
-0.9142293192762594,-1.10217285156,-0.7412109375,0.0063464995142586,0.0795655254000007,0.2979632827071571,0.04797363281,0.41784667968,0.0046931522755217,0.0684211126326295,-0.3835558808021695,-0.6142578125,-0.14965820312,0.0099853797543169,0.0998021971597927,1.0411983960201496,0.81873556881,1.24730914285,0.008612457384503,0.0926875392631951,Null
-0.7884402167498247,-1.13916015625,0.20861816406,0.1100964908308116,0.3313918523079555,0.3981924415487969,0.1640625,0.81970214843,0.0355727953741924,0.188371018202291,-0.4118597274395738,-0.72583007812,-0.00268554687,0.0218947705458894,0.1477832752182926,1.0499291120505765,0.66656522922,1.3978457131,0.0146533124556837,0.1208990792430193,Null
-0.6900433851853616,-0.96838378906,-0.29272460937,0.0531350855953168,0.2302228901465886,0.5229075139258353,0.16186523437,0.97814941406,0.0614261975209332,0.2475338663364562,-0.0004036539504988,-0.47436523437,0.7392578125,0.1835760844942489,0.4279232276615961,1.021841144385511,0.89490396322,1.18902832112,0.0028339301998469,0.053168252202243,lift down
-0.9362467244934414,-1.31066894531,-0.62219238281,0.0144590613412632,0.1200958110496949,0.3103133888870074,0.06481933593,0.5078125,0.0080625348518388,0.0896795895390314,-0.389342196263591,-0.75341796875,-0.12292480468,0.0202552200935427,0.1421432668920195,1.0711624988906734,0.65985491042,1.47555413202,0.0197700179349752,0.1404304672947212,Null
-0.9461245727495752,-1.57214355468,-0.55065917968,0.0563763192086569,0.2371399974922731,0.27848815917575,0.07153320312,0.56665039062,0.0071322550357425,0.0843470473588329,-0.3858529663046249,-0.73315429687,-0.0390625,0.0251313618092556,0.1583304563396838,1.0740622297018,0.5690933941,1.71613773455,0.0551711272937857,0.2345915588326896,stairs down
-0.9684033692589724,-1.64440917968,-0.40795898437,0.0607459461919875,0.2461578776168043,0.2948567096415538,-0.14367675781,0.61169433593,0.0207719966577758,0.1439442132069794,-0.4241466091947869,-0.75268554687,-0.18395996093,0.0202895619688935,0.142262823451491,1.1127327082381453,0.47867151951,1.75101949593,0.0681950941119382,0.2608144533746189,stairs down
-0.980058703335536,-1.34948730468,-0.61450195312,0.0371580892909507,0.1925238315810127,0.2837915586969077,0.12585449218,0.56237792968,0.0079609848213317,0.0891130293018556,-0.3943677792786035,-0.74084472656,-0.09252929687,0.0258065993294125,0.1604438958642934,1.1058312545102744,0.67024510095,1.51623167107,0.0445758558276744,0.2108665314658619,stairs down
-0.9019986489629072,-1.52563476562,-0.31005859375,0.0617778721717059,0.2482398848128099,0.3822618068566917,0.08935546875,1.12133789062,0.0574215195174331,0.2393274032255452,-0.1340989803594235,-0.58227539062,0.29907226562,0.0347110851897528,0.18607549540113,1.0430123513463156,0.67030767114,1.57908138717,0.0434670996193531,0.2082262219799816,stairs down
-0.9734014572901746,-1.55651855468,-0.63110351562,0.0273279160113143,0.1651053197048093,0.3173060999806982,0.10168457031,0.50622558593,0.0072717731310621,0.0851682982892019,-0.116449294241571,-0.42102050781,0.05737304687,0.0104004828667175,0.1018555177713331,1.0387292426149126,0.72627089401,1.59355520479,0.0277527177076852,0.1663836197927754,stairs down
-0.9677392578087,-1.46643066406,-0.43591308593,0.0404216266454781,0.2007998321186162,0.3524023437465,0.150390625,0.58813476562,0.0091367449915152,0.0954667645258624,-0.0393798828112,-0.25634765625,0.13525390625,0.0055906817425734,0.0746773395228902,1.0408268181065998,0.63606285762,1.54820162788,0.0340332567507828,0.1842503015164585,stairs down
-0.931530122444364,-1.41357421875,-0.63513183593,0.0232468928545972,0.1522790877081097,0.1892564730710972,0.00146484375,0.36352539062,0.0054357874136576,0.073635805380755,-0.3702021192099251,-0.57434082031,0.03125,0.0135640686333868,0.1163195728406112,1.030575104248404,0.67901084366,1.43678515738,0.020724021457164,0.143778790527845,Null
-0.9932409667931,-1.3798828125,-0.64294433593,0.0301311561804197,0.1733661682392753,0.24607543945,-0.04040527343,0.4873046875,0.0152765549437107,0.1234437667780413,-0.0954663085902999,-0.26391601562,0.08337402343,0.0057941310146582,0.0760239810002185,1.0377147847219998,0.64730867692,1.4146678535,0.0304926508226002,0.1744030366580345,stairs up
-0.9026074218713,-1.02270507812,-0.58959960937,0.004451669463485,0.0666373790738077,0.1387475585897,0.04187011718,0.33557128906,0.0026536300905681,0.0514489651532631,-0.4275695800747,-0.72814941406,-0.18383789062,0.0075845561156444,0.0869804272543849,1.0143054173608,0.78608668411,1.16340906249,0.0026109676006706,0.0510337161263897,Null
-0.962673339839725,-1.49523925781,-0.60144042968,0.0410195308458708,0.2022794651435388,0.23481353759405,0.01342773437,0.61047363281,0.0132165827764058,0.1148196033761865,-0.2243014526338499,-0.63720703125,0.30725097656,0.0373299503454767,0.1929679389681432,1.0381829778592502,0.63030529195,1.64402605121,0.0458162923531347,0.2137796800967105,Null
-1.0158032226521998,-1.33850097656,-0.70275878906,0.0346515816314234,0.185916520721922,0.344458007809,0.06848144531,0.54577636718,0.0115345486423319,0.1072646832406927,-0.0409887695301,-0.22351074218,0.16381835937,0.0102451446891745,0.1010917000918056,1.0839753336728,0.77549740034,1.39571295285,0.0335591561782921,0.1829624504860121,stairs up
-0.9688073730432,-1.3115234375,-0.67663574218,0.0271625161632757,0.1646044041721472,0.2729577636687,-0.1142578125,0.5380859375,0.0163278586448428,0.1276206840532942,-0.1548681640603,-0.44299316406,0.06994628906,0.0208908797143655,0.1443559923074884,1.0364136292722,0.72974549661,1.39764503316,0.0272129378383606,0.1647571106015299,stairs up
-0.9976382446251252,-1.31274414062,-0.68908691406,0.0258343911670007,0.1605297641843506,0.190715942379275,0.00549316406,0.42333984375,0.0097138922162953,0.098435803881284,-0.16550781249685,-0.37170410156,0.03442382812,0.0086848074688341,0.093075751139392,1.0382060987714248,0.71090012756,1.37146890838,0.0269727140899845,0.1640282972683666,stairs up
-1.014835979104386,-1.34704589843,-0.69592285156,0.0300301622365979,0.1730748354674798,0.3061321516647869,0.14465332031,0.47265625,0.0079028729623775,0.0887866333589902,-0.0411508507587468,-0.24206542968,0.10437011718,0.0065416426496857,0.0807790044214808,1.0676469294586717,0.77047866746,1.38719510238,0.0287962577360952,0.1694818180929004,stairs up
-0.972030982111172,-1.26721191406,-0.68408203125,0.0155288503696907,0.1244593309360455,0.2312300912726683,-0.07006835937,0.48376464843,0.0145276934837944,0.1203805001723291,-0.2326023929398503,-0.52966308593,0.0185546875,0.0217007932090858,0.1471280956098848,1.0444576901033416,0.77309566226,1.3485952285,0.0131847381219456,0.1146815524648853,Null
-0.9423155055569172,-1.22119140625,-0.70349121093,0.0128191759948825,0.1130798290334918,0.1830767103266666,0.04724121093,0.37939453125,0.0039030342640935,0.0623959311440372,-0.3339907997494737,-0.52282714843,-0.06396484375,0.0099868488332199,0.0998089131134892,1.0228433846070175,0.78232244315,1.32785110454,0.0134510820646273,0.1158333720458097,Null
-1.006609757341546,-1.33654785156,-0.69860839843,0.0320287244140856,0.178742418813714,0.2628122077576807,0.03857421875,0.63732910156,0.0129050572320606,0.1134586931197848,-0.052048832992793,-0.41540527343,0.27783203125,0.0142739177064116,0.1193244396662205,1.0552026664593015,0.76152884243,1.3692021703,0.0307265478702218,0.1750711942684045,stairs up
-0.8194971682102256,-1.296875,-0.11291503906,0.0621754156784589,0.2490373216387236,0.4089912280668922,0.2236328125,0.96911621093,0.033355048140725,0.1824046368074109,-0.1874620633595238,-0.55700683593,0.712890625,0.1077641965086695,0.3278629451510707,1.0296833660549876,0.66108562577,1.53386457717,0.0165703036949486,0.1285642800771398,Null
-0.4775707216302743,-1.13269042968,0.0322265625,0.1390172104913346,0.3723849274016669,0.5237519604274314,0.16662597656,0.86743164062,0.0551049116224438,0.2344514723566869,0.2346267509928179,-0.54138183593,0.94250488281,0.2909672374774266,0.5387407849735731,1.0183043699228678,0.84874549003,1.19978478831,0.0043864318624214,0.0661475103809469,Null
-0.8656021118121251,-1.5263671875,-0.08044433593,0.095301815402242,0.3083237922440245,0.30253234863,0.00415039062,1.14721679687,0.0376605542526589,0.1938205429437944,-0.2949795532195,-0.69067382812,0.89050292968,0.1253216710925031,0.3535652229996212,1.0642253757289248,0.58835388383,1.62687135195,0.0530009574524677,0.2299314138147213,stairs down
-0.9661425781219,-1.75402832031,-0.48767089843,0.0551740138810033,0.234597695739538,0.249260864254125,0.05786132812,0.48547363281,0.0085253470071335,0.0922173174605276,-0.4014883422809749,-0.66955566406,-0.17749023437,0.0130521390288139,0.1141030616646282,1.085344103626325,0.5966921741,1.88679595062,0.0554818512152817,0.2352512414148829,stairs down
-0.96675201415675,-1.52014160156,-0.52490234375,0.0455222403561665,0.2130925497413651,0.2306933593709,-0.01086425781,0.44897460937,0.0077588536447015,0.0879741809316223,-0.416307067867675,-0.64990234375,-0.13391113281,0.0192210990585687,0.1384667696991675,1.090750304315475,0.61165507778,1.55725611504,0.0438347557942526,0.2091056405379037,stairs down
-0.948592224117825,-1.45300292968,-0.5078125,0.0565252065051624,0.2374529289962528,0.200893859859475,0.06518554687,0.46044921875,0.0068145838073153,0.0824472397827671,-0.4342575073205499,-0.70422363281,-0.21899414062,0.0130898808491026,0.1142679138996589,1.0743024316779,0.65543760241,1.56534154956,0.0510055293483701,0.2255615559553516,stairs down
-1.001867065426075,-1.47802734375,-0.61901855468,0.0313195274436908,0.1767518843607662,0.255293273922375,0.06884765625,0.52709960937,0.0130181902047215,0.1139545730947632,-0.4613659667929999,-0.8203125,-0.09912109375,0.0272761277075221,0.1649482870121825,1.1445530652861249,0.75624036428,1.56808292997,0.0433121997971004,0.2078555250591325,stairs down
-0.7820736694298001,-1.49951171875,0.06213378906,0.1265171772063012,0.3552476379418806,0.42054382323875,0.09790039062,0.82165527343,0.0415661293309466,0.2036227246837131,-0.022095947265125,-0.76037597656,1.08666992187,0.2739598555323626,0.5227570715863457,1.08384685865075,0.53772035007,1.61730799018,0.0553369460893281,0.2349438309981872,stairs down
-0.568220214839925,-1.43725585937,-0.03356933593,0.0965681849923327,0.3103655337337764,0.65780975341405,0.25988769531,1.19348144531,0.0267671254491435,0.1634019817368219,0.41496429443135,-0.16857910156,0.95080566406,0.1166599956409343,0.3411280487615053,1.0565086680465,0.63564323205,1.60031349977,0.0510957414066413,0.2257609400519158,stairs down
-0.958735046382825,-1.22448730468,-0.69836425781,0.0178576367344903,0.1334653237461104,0.2461999511679999,0.11926269531,0.57238769531,0.0096846139685592,0.0982873462539192,-0.425918579097825,-0.66564941406,-0.13024902343,0.0176809744484835,0.1328035090363289,1.087079655151125,0.7525982158,1.41903662076,0.0246234903113469,0.1567224667543507,stairs down
-0.9091448974573502,-1.45947265625,-0.53918457031,0.0400301700362762,0.199825160105492,0.230320739742475,0.13696289062,0.40832519531,0.0031817927746439,0.0563368289195205,-0.4464645385705,-0.71984863281,-0.21484375,0.0152587670444598,0.1233718773742569,1.04888493927535,0.65332666459,1.54439555002,0.037180560523817,0.1925814350411468,stairs down
-0.94877746581645,-1.52624511718,-0.49829101562,0.0650254794493641,0.254681989451042,0.231473388668375,0.08630371093,0.43591308593,0.0065357309699843,0.0807427497832427,-0.449291076656075,-0.73291015625,-0.18994140625,0.0186088848748034,0.1362437619218451,1.086542559091775,0.58262473449,1.70981165889,0.0646343500771975,0.2539148758974246,stairs down
-0.9769036865198252,-1.24731445312,-0.70703125,0.0218317367973889,0.147570855711402,0.23678802489875,0.11938476562,0.42272949218,0.0065146000976838,0.0806121181798345,-0.4156744384726499,-0.68103027343,-0.17626953125,0.0183493971968517,0.1352905159420259,1.0932326110482,0.76866105542,1.45252472774,0.0320497126684732,0.1788004149514258,stairs down
-0.9331430053674752,-1.70593261718,-0.466796875,0.0653607022634894,0.2553376206277303,0.2448666381801,0.02709960937,0.44641113281,0.0088060188972748,0.0937230166502961,-0.463824462887175,-0.76123046875,-0.13488769531,0.0254633296326982,0.1593727433051728,1.0878191002965,0.61481150066,1.81649946158,0.0620343378751202,0.2487554060325773,stairs down
