avg_accX,min_accX,max_accX,var_accX,std_accX,avg_accY,min_accY,max_accY,var_accY,std_accY,avg_accZ,min_accZ,max_accZ,var_accZ,std_accZ,avg_magnitude,min_magnitude,max_magnitude,var_magnitude,std_magnitude,Label
-0.5814793904577603,-1.25170898437,-0.2109375,0.1087476436313055,0.3289091814681663,0.6617247263554688,0.11328125,1.16674804687,0.117272199184566,0.3415573253210649,-0.026759465534375,-0.47253417968,0.36804199218,0.0540067494405217,0.2317875412682608,1.0217020937936978,0.73997812188,1.30544348189,0.0114666380265638,0.106803164529469,Null
-0.9362603759728,-1.40466308593,-0.03637695312,0.1435135805269994,0.3778835966595592,0.347723388669,0.03479003906,1.0498046875,0.0728034837984582,0.2691458087718736,0.0274145507792,-0.54846191406,0.24743652343,0.0389039789537898,0.1967471958098027,1.1030054254157,0.59428378003,1.47421407895,0.0357493204056037,0.188601627255906,Null
-1.14783203124565,-1.53295898437,-0.84350585937,0.027017332476986,0.1639580611455291,0.17942749023085,-0.15966796875,0.48315429687,0.0198313444566912,0.1404713057332627,0.1389788818324,-0.1572265625,0.37316894531,0.014560918708309,0.1203665822176883,1.18449466944895,0.85195739584,1.53563265894,0.0272388457396839,0.16462882952565,Null
-1.12111206054305,-1.44348144531,-0.85925292968,0.0218835505634758,0.1475606072454922,0.21461914062155,-0.0224609375,0.45983886718,0.0201040667264717,0.1414338940736604,0.0568029785140999,-0.29968261718,0.35827636718,0.0183767180803455,0.1352214276287003,1.1584647941116,0.86420924163,1.4987485851,0.0243236589768094,0.1555700507228989,Null
-1.0613732910118,-1.37268066406,-0.85034179687,0.0125974274024101,0.111957314479216,0.1362164306613,-0.107421875,0.42492675781,0.0142985883633731,0.1192773885594259,0.1004516601547,-0.12817382812,0.51818847656,0.0190876451263069,0.1378122160792554,1.08929039055095,0.86996431217,1.42198136214,0.0144310578127604,0.1198286381617376,Null
-1.1841711425746,-1.40881347656,-0.93115234375,0.0145458511234831,0.120304288651177,0.2048999023401,-0.107421875,0.51684570312,0.0308909375521793,0.1753182331202844,0.11120910644205,-0.06811523437,0.27429199218,0.0070498184995714,0.0837530262562113,1.2213768140126,0.9360119852,1.45345482108,0.0171613895186459,0.1306735725808885,Null
0.2292773437478499,-1.53466796875,0.99084472656,0.4975648193231413,0.7036170799707221,-0.08416809081975,-0.84594726562,0.93103027343,0.2414990329532155,0.4901954077594459,-0.3924218749977,-1.0888671875,0.19641113281,0.1459387693799907,0.381063086027879,1.0179222620960002,0.4185621025,1.56319435427,0.0583509273595018,0.2409547109369399,Null
0.0434643554680499,-1.28503417968,1.07470703125,0.4731135334817399,0.6861107533148939,0.28578430175475,-0.30383300781,1.10290527343,0.0738463625526871,0.2710666536848893,-0.6109088134721001,-1.08251953125,-0.02185058593,0.1040119472728546,0.3217015504104547,1.0262703035326002,0.39822017128,1.46936401255,0.0515152199832216,0.2264015103379514,Null
-0.3457110595693,-1.48693847656,1.1005859375,0.9212145832373242,0.9573967361136853,0.279553222653,-0.00854492187,0.86340332031,0.036239663260467,0.1898906657636564,-0.02153869628885,-0.3466796875,0.39807128906,0.049453189278384,0.2218240819478175,1.0755836626909,0.61481587541,1.63520256137,0.0433394367742951,0.20766015407493,Null
-0.989886848290204,-1.16479492187,-0.263671875,0.0132445266159366,0.11479090774338,0.192873584977551,0.0224609375,0.80969238281,0.0207961206189858,0.1438402515388738,-0.0045689174131632,-0.61181640625,0.22277832031,0.0217271644331553,0.1470248671259197,1.0308959692559694,0.66674480626,1.4235383826,0.0098842797938441,0.0991657692699248,Null
-0.4770753211565464,-1.69226074218,0.81213378906,0.5787562321121025,0.7587970430656229,0.3101605287501031,-0.05480957031,0.90393066406,0.0734343546292111,0.270288414527944,-0.3586520165487113,-1.12976074218,0.22277832031,0.1302080951070011,0.3599123773351326,1.0516327175405151,0.4529269542,1.82197425369,0.1251665308902571,0.3528758175147442,Null
-1.0571621400490574,-1.27282714843,-0.8798828125,0.0079550477894867,0.0889572837075204,0.1299499192144503,-0.58093261718,0.40270996093,0.0404631850956242,0.2006273559587473,0.1280594271489005,-0.17785644531,0.41796875,0.0138148208387088,0.1172283751222126,1.097736189654712,0.92310481557,1.30906151339,0.0078013174712627,0.0880935461720796,Null
-0.979031826583298,-1.22790527343,-0.32958984375,0.0268309104542364,0.1633652130823369,0.0559659917304255,-0.29907226562,0.677734375,0.0617713047577165,0.2478764490380817,0.0074326535481914,-0.56457519531,0.31140136718,0.0341056636822576,0.1841853701507391,1.0373871609282443,0.89751779502,1.2724265667,0.0076143114400333,0.08702763804354,Null
-0.0194317361571739,-0.69750976562,0.859375,0.2714356594133704,0.5195771988956125,0.4880026112415218,-0.916015625,1.32995605468,0.4395445138419799,0.6611774988325025,-0.1433125371507608,-0.64733886718,0.16296386718,0.055922619545426,0.2358361555514503,1.001665150799511,0.63438749348,1.42827725819,0.0185652910889838,0.1358837472542174,lift down
-0.1971509733229281,-0.58349609375,0.98889160156,0.2011806129000454,0.4472908648755865,0.7297127233654143,-0.66809082031,1.02490234375,0.1331525527946681,0.3638913345103372,-0.1510805583120442,-0.65478515625,0.28186035156,0.0485992199067174,0.2198424798107323,0.9830854919680112,0.7918343816,1.22221923671,0.0085815645266512,0.0923804772013033,lift down
-0.4265723201775419,-0.59155273437,-0.35974121093,0.0015090046539532,0.0387372490034554,0.92337598747,0.83361816406,1.00646972656,0.0015667599328739,0.039471598448593,-0.0082319035880447,-0.27648925781,0.18981933593,0.0223794258041103,0.149179090622472,1.028928307021173,0.95643825454,1.10370450049,0.0015390043971944,0.0391204116448944,lift down
-0.4743624757198305,-0.57604980468,-0.40551757812,0.0020825900061621,0.0455063068258635,0.9061120674394916,0.79748535156,0.97937011718,0.0020411192363603,0.0450509432671758,-0.0466736184654802,-0.24462890625,0.30249023437,0.020649888660319,0.1432941820964482,1.034918215508644,0.93835462716,1.10757123017,0.0018254986248592,0.0426049888311963,Null
-0.4394182477639999,-0.66296386718,-0.27404785156,0.0048738027538604,0.0696128756223291,0.9354157366030283,0.78674316406,1.26086425781,0.0047341057653125,0.0686079713471249,-0.0521533203098857,-0.1865234375,0.20629882812,0.0083474235900434,0.0911028211784455,1.0415518519590854,0.98320727493,1.35643279452,0.0038554667042256,0.0619147435262053,Null
-0.5026188340275001,-1.47534179687,0.88098144531,0.4140425141961685,0.6415881001674075,0.5312407737519185,-0.00476074218,1.41052246093,0.1118080889626707,0.3334037221355184,0.024128048918372,-0.73803710937,0.81774902343,0.1343275328419984,0.3654402260477727,1.0643419471720932,0.27060939933,1.54547866259,0.0588585521772296,0.2419015322243294,Null
-1.0238572505451462,-1.32666015625,-0.85424804687,0.00791382825587,0.0886992026935263,0.1938169602035087,0.05615234375,0.4814453125,0.00984623889604,0.0989376498185537,0.0837852076446783,-0.02795410156,0.18298339843,0.0020172331077882,0.0447820993584195,1.0505627669528654,0.86718700168,1.36573788767,0.0089002088039336,0.0940646628614181,Null
-0.4537953032529585,-1.27087402343,0.91528320312,0.5520587529970461,0.7408050574589964,0.2083357410286982,-0.28955078125,0.71264648437,0.0400465982633512,0.1995235227822769,-0.310933310605858,-1.15234375,0.09558105468,0.1759518024220506,0.418223226873492,1.0437258947126629,0.71909191457,1.41678113568,0.0202821883395034,0.1419935751741921,Null
-0.479633262768024,-1.13647460937,0.04846191406,0.1759238788832451,0.4181751337451172,0.6155165255386825,0.16296386718,1.02954101562,0.0344909899752277,0.1851606251369999,-0.4354767028425748,-0.93981933593,0.23767089843,0.1613199284271363,0.4004421816339586,1.0755048477140718,0.74225731571,1.35561693244,0.0114151357490131,0.1065212731933467,Null
-0.3471169211615758,-0.53283691406,-0.22253417968,0.0048020173268782,0.0690862807767489,0.8082815459252121,0.607421875,1.09436035156,0.017335580498618,0.1312650615144181,0.4115781841830302,-0.17199707031,0.73266601562,0.0850022760103295,0.2906666659615031,1.0215487771194542,0.77039823732,1.24795002927,0.006171858572653,0.0783227512871097,Null
-0.3420216630107316,-0.36120605468,-0.31591796875,8.308209871455208e-05,0.0090871062804205,0.6729036656781707,0.65490722656,0.69311523437,5.856888808121768e-05,0.0076296632111036,0.684975228654878,0.66967773437,0.69738769531,4.088362229883605e-05,0.0063745064059082,1.019372289180305,1.0101795713,1.03290831284,3.097162153339852e-05,0.0055482222542527,lift down
-0.2914225260388271,-0.626953125,0.05114746093,0.0185212263409509,0.1356720228466088,0.7596699279003086,-0.04675292968,1.43225097656,0.0658209325212675,0.2557628402811228,-0.1792406623738271,-0.81298828125,0.69250488281,0.2683658477951136,0.5164390268828802,1.0093892994891975,0.5509061604,1.44447820657,0.0259770943360441,0.1606758908544497,lift down
-0.2220809936480624,-0.33825683593,-0.103515625,0.0039092692915562,0.0623284554476042,0.7498977661093751,0.52795410156,0.90173339843,0.0046251037374489,0.0677952567595248,-0.620077514645625,-0.75891113281,-0.52905273437,0.0028921599189029,0.0536104832976706,1.0029652619450624,0.91468094827,1.11628930458,0.0015884799740089,0.0397309951319036,lift down
-0.2263636559030817,-0.34826660156,-0.15490722656,0.0020066400783994,0.0446544477129422,0.7558163816793709,0.67016601562,0.82873535156,0.0010302038771055,0.0319956967018727,-0.6614345334572326,-0.70068359375,-0.60949707031,0.0004232338733777,0.0205078527671115,1.030913448452453,0.96779025127,1.11512771203,0.0006544437112927,0.0255015237409163,lift down
-0.2003562587048407,-0.25939941406,-0.08703613281,0.0015182495189956,0.0388404317676023,0.8025874241112738,0.71533203125,0.87744140625,0.0018840047677207,0.0432666700515891,-0.6509683208066241,-0.70458984375,-0.6103515625,0.0005545192770009,0.0234731188188471,1.0540436735965606,0.98002311944,1.10249887398,0.0009786975141023,0.0311843513957611,lift down
-0.1932916456624516,-0.24523925781,-0.1640625,0.0003893170538652,0.0196673671582405,0.7863068611354839,0.72814941406,0.83117675781,0.0007245021881622,0.0268296101443298,-0.6370479460649031,-0.68835449218,-0.60302734375,0.0005862682620653,0.0241347443777862,1.0310353971840645,1.00666872073,1.05601921071,0.0001261686816278,0.0111961908760726,Null
-0.332206873736129,-1.1982421875,-0.01147460937,0.1109245288073852,0.3319772382047408,0.7195533014071613,0.05395507812,0.89245605468,0.0351738726300279,0.1869410185580243,-0.4058152721739355,-0.66882324218,0.67895507812,0.157516996789185,0.3956017670590243,1.0416075546249677,0.68414408737,1.32658459585,0.0095764706937698,0.0975432571317698,Null
-1.0807714524570589,-1.30676269531,-0.8427734375,0.0174391176853453,0.1316249844216637,0.1618460860870588,-0.06616210937,0.38061523437,0.0101963185788369,0.1006462914058264,0.0997107013356862,-0.06506347656,0.26843261718,0.0070471622028566,0.0836725900111727,1.1046669093984314,0.85702934056,1.33474282615,0.018491102966299,0.1355368809002421,Null
-0.9824776598170428,-1.16809082031,-0.89172363281,0.0017842089933765,0.0421261969789203,0.2332507717958602,-0.12414550781,0.4765625,0.0113508236425101,0.1062534597504863,0.1012802944350537,0.0185546875,0.30297851562,0.0042272200386348,0.0648420623452079,1.0226411283733332,0.94822765146,1.19515548248,0.0014075699926455,0.0374166060999654,Null
-1.0042090119575142,-1.12133789062,-0.92761230468,0.0022142981754852,0.0469232140448813,0.1948235290829943,-0.00146484375,0.36999511718,0.0042328412047206,0.0648762425517368,0.0900306486100565,-0.18017578125,0.22375488281,0.0048161599511572,0.0692022399054422,1.0311478438863275,0.94037075788,1.14560139721,0.002445067733726,0.0493077457579192,Null
-1.2103806328492266,-1.69860839843,-0.435546875,0.0589307290097327,0.2421300525861106,0.2712049975806186,-0.06896972656,0.72399902343,0.0425331458084251,0.2057034340714663,0.075601794055103,-0.18017578125,0.35546875,0.0152909626675378,0.123337517699783,1.2626416210207732,0.44740076813,1.74945791397,0.0664653287209763,0.257143391775396,Null
-1.154173351466488,-1.43603515625,-0.88427734375,0.0192458128121888,0.138315777851236,0.1849597749225595,-0.1943359375,0.62133789062,0.0341782435950864,0.1843225479124169,0.1403597877110118,-0.16882324218,0.41223144531,0.0154492125173765,0.1239243838760508,1.196664721796607,0.97587466621,1.5070628195,0.0226186007062444,0.1499465444024339,stairs down
-1.153047195584899,-1.67175292968,-0.6484375,0.0596152245878185,0.2435449395798458,0.221324573860707,-0.08703613281,0.57641601562,0.0270174696633141,0.1639543161869417,0.0768161349797979,-0.0947265625,0.27197265625,0.0054154751355211,0.0734038435710169,1.188242741726111,0.6674321568,1.70373631364,0.0643907932381325,0.2531118077286742,stairs down
-1.0991104209325684,-1.64526367187,-0.67248535156,0.0764219895660204,0.2756889244522885,0.2349519990146448,0.0009765625,0.5869140625,0.0262565105448387,0.1615952732759848,0.0173466583412021,-0.18579101562,0.19812011718,0.0107357943302966,0.1033301930101176,1.1407744128345902,0.68858456677,1.67322741382,0.0753873014858377,0.2738162687254029,stairs down
-1.156911542335269,-1.798828125,-0.55920410156,0.069570659245392,0.2630525108091491,0.2222716628837634,-0.08459472656,0.65649414062,0.0433762680658202,0.2077090809847535,0.0455296013931182,-0.109375,0.24243164062,0.0072973592787532,0.085194636945945,1.1984961543415054,0.56293981629,1.82073842742,0.0735220131110287,0.2704195508291641,stairs down
-1.165060885122905,-1.64526367187,-0.67724609375,0.0536471709339682,0.2309707039180842,0.2591777780179329,-0.11267089843,0.65979003906,0.0411407693808889,0.2022645116683523,0.0889476584297206,-0.09826660156,0.3369140625,0.0096861500928432,0.0981429443337227,1.2185347059690503,0.71970517503,1.70971924594,0.0518046908993054,0.2269697760017921,stairs down
-0.6677173116917935,-1.701171875,0.85913085937,0.6832051726867727,0.8243131086523395,0.2362909731628804,-0.876953125,1.00268554687,0.1520750754637619,0.3889069046551055,-0.0579150655994565,-0.66320800781,0.2861328125,0.0422617689938008,0.205017280897637,1.14130980685,0.62630758593,1.86798030988,0.0756297100244634,0.2742602395385116,stairs down
-1.129703185714715,-1.66040039062,-0.70922851562,0.0540617086687332,0.2319085944689941,0.1749413050498963,-0.13549804687,0.61120605468,0.0363304258205734,0.190110981461567,0.0775652475292228,-0.13098144531,0.29077148437,0.0112611552726112,0.1058433149416196,1.165740239766425,0.71188414083,1.67010920405,0.0553129936407823,0.2345770615785128,stairs down
-1.188405890210351,-1.75524902343,-0.69494628906,0.0855878771827325,0.2916973830549036,0.2142312568508771,-0.35473632812,0.59716796875,0.0587958895927601,0.2417685959365,0.0620010108256725,-0.1904296875,0.27478027343,0.0084933708413644,0.0918896185977218,1.236808027169357,0.69710372199,1.76617025716,0.0848328383086603,0.2904078852907045,stairs down
-0.8991536891171809,-1.78601074218,0.11560058593,0.2983582370144946,0.5447671292538504,0.3818015240578722,-0.01171875,1.10766601562,0.0816334739451563,0.2849548268393871,-0.099696382563085,-0.69018554687,0.19384765625,0.0611746456595193,0.2466764046440982,1.1504758222012763,0.72450754318,1.8135597896,0.0798389137891606,0.2818053205952898,stairs down
0.0437688337046857,-0.13708496093,0.25695800781,0.0067417204747358,0.0818730502530436,0.9762723214251998,0.50695800781,1.46240234375,0.0520748753921971,0.2275462693073,-0.2632903180776,-0.74133300781,0.31652832031,0.0532816646105672,0.2301677604610378,1.0409113292232,0.55780107769,1.56002559238,0.0525929446026651,0.2286753451744413,stairs down
0.0866403290702525,-0.24633789062,0.29638671875,0.0135916450573105,0.1162884361632914,0.9261061543122728,0.48840332031,1.45166015625,0.0382430299532876,0.1950637929943995,-0.3498270054018687,-0.73889160156,-0.0537109375,0.0277502227902255,0.1661627820839276,1.0143077518922727,0.52479635898,1.46635007593,0.0382957200238135,0.195198123188776,Null
-0.2704663825753332,-1.15588378906,0.27294921875,0.1707271227539307,0.4119373895618828,0.8445697206392727,0.29187011718,1.35119628906,0.0466909838897538,0.2154251801201891,-0.1517274798755151,-0.50903320312,0.27697753906,0.040126953873758,0.1997091891073544,1.0200643057458183,0.6711025233,1.36055810459,0.0250762762119434,0.1578743132379548,Null
-0.4002697877171716,-0.61633300781,-0.29797363281,0.0044617170291488,0.0666271949338945,0.8421797318852525,0.71020507812,1.05358886718,0.0060532448042929,0.0776058816123942,0.3369633838364647,-0.15246582031,0.75268554687,0.056746101898707,0.2376120902321074,1.0233776187459596,0.90812965834,1.17463334023,0.0026599708406091,0.0514445006239195,Null
-0.6735986594933879,-1.63671875,0.88061523437,0.6376909475487533,0.796370703606146,0.1210990864063934,-0.55041503906,0.82507324218,0.0947222439165329,0.3069277374664574,0.0449112021835519,-0.51708984375,0.2607421875,0.0412363644640169,0.2025117999995975,1.0835332475219124,0.19301806294,1.75895779492,0.0661563331402352,0.2565050157854139,stairs up
-1.290929827004743,-1.72277832031,-0.92077636718,0.0333516933922706,0.1821019282906469,0.1461607142837714,-0.29675292968,0.54089355468,0.0473817847004197,0.2170507582225612,0.089653320312,-0.18786621093,0.54113769531,0.0320825769562042,0.1786036056327697,1.328124086686686,0.94047421897,1.80618607447,0.0383930831276684,0.1953808948726171,stairs up
-0.6129528066715468,-1.92651367187,1.23107910156,0.950235719034376,0.9721037999795796,0.2890294533381214,-0.33361816406,0.88781738281,0.0908504850100044,0.3005803530318203,0.0337912206482872,-0.49975585937,0.78356933593,0.106484287394329,0.3254166197572734,1.1996982044019338,0.3586591557,2.14815929345,0.1632474757864713,0.4029212777091139,stairs up
-1.1823364910551335,-1.42663574218,-0.9052734375,0.0213069195732032,0.1455780849812995,0.1277997837962032,-0.27575683593,0.43237304687,0.0261108816967711,0.1611559844168562,0.0922897257248663,-0.15588378906,0.34301757812,0.0115817481418186,0.107330394855217,1.2078255863625669,0.91813201264,1.46074745655,0.0227327183605403,0.1503700536068066,stairs up
-0.3615579044111177,-1.38024902343,0.38232421875,0.4023728347396495,0.6324602246084486,0.5838623046843529,0.08911132812,1.0859375,0.086550412622727,0.2933279607341852,0.1837725471044706,-0.77282714843,0.96899414062,0.2139033618989701,0.4611345864592854,1.0789286127530588,0.69870250973,1.39982745818,0.0402337106995866,0.1999926043960588,stairs up
-0.6022223395266486,-1.8427734375,0.93908691406,0.6636480308859996,0.8124412250941982,0.4187948690844323,-0.04248046875,0.92895507812,0.0885901881142682,0.2968355137657377,0.1078092008003783,-0.51892089843,0.5810546875,0.0773531517943255,0.2773716399516925,1.128004155561135,0.40515381299,2.09829631466,0.1029539382991572,0.3199959851694506,stairs up
-0.8116091008742106,-1.62023925781,1.03625488281,0.6670201566061611,0.8143214684238342,0.231970000682807,-0.37072753906,0.869140625,0.0722167614434895,0.2679448473121474,-0.0404738041395321,-0.45825195312,0.59606933593,0.0736504644231201,0.2705915001488582,1.2059621966174854,0.580147967,1.77279105987,0.0683460626570966,0.2606652605932646,stairs up
-1.1854204000844846,-1.49816894531,-0.87609863281,0.0214194413563086,0.1459761345726802,0.1284632731941237,-0.39514160156,0.4853515625,0.0413541851934922,0.2028324907169287,0.0966368999656701,-0.12951660156,0.29125976562,0.0132722672524271,0.1149080219292946,1.2187768071802578,0.88319317028,1.49896591026,0.0214103897023265,0.1459452872442596,stairs up
-1.085104995629441,-1.41528320312,-0.77600097656,0.0262776162265883,0.1615995087213133,0.1566389569560248,-0.12097167968,0.57531738281,0.0269552227483832,0.163669786474488,0.1049721285403726,-0.14660644531,0.39965820312,0.0177664511131612,0.1328762600509555,1.1207893894761491,0.78169640185,1.41568367059,0.0282652982274461,0.1675999324847434,stairs up
-1.1081510844950526,-1.43041992187,-0.91589355468,0.0144084270092321,0.1197188088099267,0.168130011305,-0.17736816406,0.50256347656,0.0249928369571878,0.1576746514505255,0.1010703638957368,-0.10778808593,0.23266601562,0.0083315336046744,0.0910367147243776,1.1395636747842637,0.92342219396,1.44530051973,0.015439207646621,0.1239271909590759,stairs up
-1.097661336259583,-1.43041992187,-0.86535644531,0.021566477249094,0.1464175718986851,0.1197589692584523,-0.20825195312,0.34899902343,0.0204338745683179,0.1425210312990829,0.0239657447441666,-0.22265625,0.25524902343,0.0165906219232575,0.1284206689802439,1.1208003593631548,0.89554550108,1.44530051973,0.0219564422612719,0.1477354025024939,stairs up
-1.0569411057657436,-1.52819824218,0.02575683593,0.0437241900568816,0.2085664485031217,0.1843418219125128,-0.11853027343,0.77612304687,0.0350409641546787,0.1867117213851436,0.0737805488781538,-0.15075683593,0.43518066406,0.0277691696389243,0.1662130068339297,1.106153952665128,0.56960769108,1.65070926818,0.0391622367269155,0.1973864350549464,stairs up
-0.0327105353871176,-1.52478027343,1.13012695312,1.0232273738508462,1.0085674936754518,0.2569888844177647,-0.03662109375,1.02905273437,0.0608327699236391,0.245916510426931,-0.1309168198511176,-0.41625976562,0.24499511718,0.0364213616133994,0.1902816814877123,1.0585674130784706,0.43220450391,1.72299702186,0.0780369903535372,0.2785281839128861,stairs up
-1.2118919859503725,-1.49658203125,-0.85229492187,0.022185560204338,0.1485515126324158,0.2029282590150531,-0.30212402343,0.58874511718,0.0523845243132808,0.2282671312881204,0.0770497423525531,-0.29455566406,0.30419921875,0.0191703151173115,0.138088179639132,1.259314773666383,0.85841577922,1.53474162474,0.0232906947013411,0.1522064651300916,stairs up
-1.2309990554525136,-1.45983886718,-0.90649414062,0.0189597761655352,0.1373177731806678,0.119377428063224,-0.36145019531,0.46215820312,0.0361956241965004,0.1897309513504445,0.1114088381560109,-0.18713378906,0.41650390625,0.0262613164680653,0.1616100615880434,1.2659524772321311,0.93714961815,1.51073951449,0.0204695717840317,0.1426804688824383,stairs up
-1.1877233331815342,-1.43444824218,-1.01208496093,0.0093050032758509,0.0961880134895005,0.1450361772000568,-0.29345703125,0.53063964843,0.0453818996221273,0.2124242168862317,0.1155104203634091,-0.09448242187,0.39147949218,0.0126821759744135,0.1122947824094116,1.224930084443182,1.02178642081,1.46687577768,0.0116637255006472,0.1076914775320217,stairs up
-1.0869577077473185,-1.39770507812,-0.78991699218,0.0243036968921035,0.1554603552328725,0.1175087017702793,-0.22644042968,0.47790527343,0.0207243946542675,0.1435570127621156,0.0421626767615083,-0.22387695312,0.23095703125,0.0137058500519065,0.1167445118932925,1.1090489232044134,0.80034578159,1.41616989347,0.0256224921074603,0.1596225225131221,stairs up
-0.704732582049471,-1.32019042968,0.93737792968,0.5759400101187001,0.7568967621002619,0.2114845558424868,-0.6982421875,0.93225097656,0.0946029641187433,0.3067611763816378,0.0010172526046031,-0.4228515625,0.4833984375,0.0540865639093621,0.2319491142762684,1.1066113878597883,0.63714297619,1.43765897493,0.0377814217539769,0.193859536911587,Null
-0.0874973685420958,-0.58129882812,0.90075683593,0.1107600299689926,0.3318083727946048,0.7306229825471857,-0.75817871093,1.16528320312,0.1729196886687193,0.4145892442299753,-0.4925003508576644,-0.93188476562,0.18188476562,0.0527544227245713,0.2289946025078268,1.0528156929657486,0.77387060696,1.35138562318,0.0092601071582,0.0959409058469733,Null
-1.1212866066439646,-1.88989257812,0.14135742187,0.1468210047521068,0.382036963408488,0.2635346361842603,-0.11071777343,0.6474609375,0.0460925970036815,0.2140557398046235,0.153372318784497,-0.16442871093,0.45788574218,0.0162903323520594,0.1272554118807325,1.207579249496331,0.53311115911,1.91169749919,0.1005707170707207,0.3161892219388609,stairs down
-0.95511693709641,-1.69189453125,0.22338867187,0.3072207935892462,0.5528519714535444,0.0655505058086153,-0.62036132812,0.61608886718,0.1097116540964258,0.3303771030644598,0.0087652744379487,-0.94567871093,0.63061523437,0.1240523144580019,0.3513063460042143,1.1579347632151795,0.48559409208,1.74838408728,0.1158401576600196,0.339479168093501,stairs down
-0.8606964111305,-1.95825195312,1.26684570312,0.6616610743209106,0.8108795795963818,0.2915969848595625,-0.07873535156,0.66589355468,0.036857191212549,0.1913813830221492,0.0670066833471875,-0.53381347656,0.36682128906,0.0680702932158957,0.2600862431642557,1.2101413620280623,0.55409200698,2.0059705293,0.1284752437667397,0.357312571137929,stairs down
-0.1961872284425134,-1.85339355468,1.015625,0.8936685120055338,0.942809384767411,-0.0113003164695722,-0.84216308593,0.57934570312,0.1709802052779385,0.4123904371216595,-0.174655200325294,-0.84777832031,0.44506835937,0.1244132616939506,0.3517782684221553,1.0677524103211231,0.57006093577,1.87132294431,0.1123304111651243,0.3342599494094597,stairs down
-1.200515567551,-1.6826171875,-0.72314453125,0.063271138433594,0.250796641258087,0.2348948759165882,-0.04223632812,0.55908203125,0.0281992068488553,0.1674315656066955,0.1930333754562941,-0.033203125,0.45483398437,0.0172429341846681,0.1309255710701789,1.2545912408775293,0.72746057279,1.74936327249,0.0666972591389699,0.2574974219686586,stairs down
-0.4667354699298787,-0.69274902343,-0.22778320312,0.0158169223447828,0.1253836600572815,0.8041888612647877,0.36450195312,1.06384277343,0.0225671139805069,0.1497676319928519,0.0627004912407272,-0.52160644531,0.91491699218,0.15404461250378,0.3912940183437972,1.026880651016788,0.85753734219,1.18830737474,0.0053037622534296,0.0726059105016421,Null
-0.6185682227542486,-0.83984375,-0.45068359375,0.0077866368109548,0.0880130191648047,0.8174814807285492,0.5927734375,1.08935546875,0.0078325729435264,0.0882722474168766,-0.0629199724725906,-0.22961425781,0.24182128906,0.0119058349755571,0.1088308169198186,1.0380861055670465,0.91674820941,1.27372173343,0.0046452745980514,0.0679794514375534,Null
-0.8468512641019444,-1.07922363281,-0.44226074218,0.0341328318720366,0.1842368177870621,0.4320387098481111,0.07629394531,0.96325683593,0.083702337036548,0.2885087937186866,0.1715521918359444,-0.04162597656,0.29357910156,0.0064196963919503,0.0799001339923475,1.026629242874333,0.85339778898,1.11405060268,0.0028574980023155,0.0533068758549384,Null
-0.3654778336668715,-1.14013671875,0.2958984375,0.2356886486129454,0.4841197705650732,0.7244913964254189,0.12426757812,1.39514160156,0.1465210504242479,0.3817099645934364,-0.1253512078811731,-0.50695800781,0.17858886718,0.0368371849720974,0.1913932878724967,1.03103305519162,0.66228472657,1.4290329159,0.0280079035157102,0.1668874913856205,Null
0.0348140416514044,-0.70788574218,0.58959960937,0.0602428113421063,0.2447536896182719,0.9916820740397192,0.525390625,1.66857910156,0.0590896924245767,0.2423999337054235,-0.1489731006377528,-0.552734375,0.27502441406,0.0329769304451178,0.1810846950764525,1.0500828865627527,0.71369541674,1.69809380048,0.0559322589360582,0.2358347573244032,Null
0.3736064782280898,-0.74169921875,1.1015625,0.1442676409842719,0.3787573743429845,0.6128738917623595,0.15649414062,1.08508300781,0.0571977135636328,0.2384876896071875,-0.5284012355120786,-0.8720703125,-0.04956054687,0.0480314216857484,0.2185442340536023,1.0118598913634271,0.70996356108,1.3526586817,0.0192713449387076,0.1384307731536088,Null
0.5456852988570899,-0.58215332031,1.09887695312,0.3299756173574181,0.5729133569922046,0.3809020027246031,-0.52819824218,1.21276855468,0.1551123181340375,0.3927997174618259,-0.1529205160771428,-0.51477050781,0.56811523437,0.0296256705236187,0.171665141901694,0.979597763802328,0.58231588738,1.35121358656,0.0187209929353087,0.1364622294359695,Null
-0.3667457217230356,-0.5068359375,-0.2568359375,0.0033826554623902,0.0579872452220954,0.6764308384450596,0.49951171875,1.02575683593,0.0196600401689586,0.1397963380075955,0.6367136637336904,0.22998046875,0.92199707031,0.0373292562410009,0.1926319243718066,1.0265299082715476,0.86105333646,1.18533853777,0.0037365771580344,0.0609453495135753,Null
-0.2815887940728342,-0.46203613281,-0.1201171875,0.0065431745916281,0.0806733187192037,0.5578156333519785,0.2978515625,0.92272949218,0.0216847590698194,0.1468631941344433,0.7748729685375401,0.32775878906,0.95092773437,0.0240429261815625,0.1546426667637367,1.0202696082175935,0.89513427698,1.12310905616,0.0019302323045614,0.0438167799669956,lift down
-0.3090188419082941,-0.47253417968,-0.11999511718,0.0106240407290674,0.1027693844091594,0.7656975241232942,0.56494140625,1.01281738281,0.0120308814486539,0.1093622949547947,0.5326767865305883,0.09448242187,0.77575683593,0.03929057598067,0.1976346501641086,1.0122575427288236,0.90671387671,1.14497466497,0.002460153568202,0.0494538378351403,lift down
-0.1528940054058461,-0.23107910156,-0.08813476562,0.0008164007284349,0.028499369432195,0.4844726562467179,0.45263671875,0.56494140625,0.0009862167012345,0.0313234605318407,0.856407126398718,0.73889160156,0.89855957031,0.0015523740862028,0.0392990228053208,0.9972415291633336,0.94468943499,1.02163592321,0.0003725270244884,0.0192514059094676,lift down
-0.1551752033991124,-0.16723632812,-0.14343261718,4.038538927768648e-05,0.0063361204594946,0.4518457897987574,0.43835449218,0.46923828125,7.767604376358574e-05,0.008787287533867,0.8926120735456212,0.87768554687,0.9052734375,4.053061997068938e-05,0.0063475029591971,1.0124774360527218,1.00178084649,1.03108529018,4.765243817309969e-05,0.006882620945782,lift down
-0.1594964278332105,-0.17370605468,-0.14196777343,6.475443835321158e-05,0.0080258099603574,0.4387277703491578,0.42248535156,0.46069335937,0.0001154944350393,0.0107185152699339,0.896467670637421,0.87915039062,0.90966796875,5.8350301464141846e-05,0.0076186084434318,1.0108293064113685,0.9968287206,1.02300988065,3.710343651264256e-05,0.0060752082489277,lift down
-0.2669257040037288,-0.45300292968,-0.12036132812,0.0126798068238836,0.1122861055393546,0.4684534449998305,0.29577636718,0.78491210937,0.0145763065130393,0.1203908405936323,0.8192393847065537,0.12219238281,0.96643066406,0.0410861866773799,0.2021238761970493,1.013270231003729,0.84956578986,1.1742039807,0.0031083164430792,0.0555945620832773,Null
-0.2898613227553296,-0.39111328125,-0.22351074218,0.0022496598488585,0.0473000959878333,0.3886255955915934,0.29357910156,0.51916503906,0.0038670743401812,0.0620147295323577,0.891418457027912,0.79711914062,0.94958496093,0.0016783067122604,0.0408544397441506,1.0184529983845605,0.98097144686,1.05787068831,0.0001830121580393,0.0134909820521497,Null
-0.4958124270351149,-1.29541015625,-0.22290039062,0.0806912291307074,0.2832445700001219,0.4853389345335631,0.19873046875,0.99780273437,0.044180543792852,0.2095868140452274,0.5307027882522414,-0.2783203125,1.00061035156,0.1871602176435339,0.4313752243798906,1.0274853319413797,0.60545246963,1.45798059068,0.0176432877511581,0.1324457985203445,Null
-1.044372558589896,-1.26953125,-0.83032226562,0.0098920553454935,0.0991994668529141,0.072987238564427,-0.71606445312,0.3994140625,0.0339880079719897,0.1838776416455672,0.11955134073625,-0.17175292968,0.29174804687,0.0102745784885111,0.1010992831769023,1.0729054829852605,0.8372220304,1.46495554688,0.0131485944240021,0.1143683179966248,Null
-0.9811345199831902,-1.27001953125,0.08312988281,0.0297782736063971,0.172033673480705,0.2006468977632515,0.01586914062,1.0703125,0.0590762260767324,0.2423092966477057,0.0863044598312269,-0.08898925781,0.21215820312,0.001705701979743,0.0411732625671008,1.0394624474241716,0.43441011712,1.55357939081,0.0199775835314246,0.1409078481464701,Null
-0.484971066736968,-1.40954589843,0.90270996093,0.7010625630578705,0.8350649716467531,0.2219472032888297,-0.11743164062,0.90490722656,0.058205067402287,0.2406147667536937,-0.047567164644468,-0.57495117187,0.29125976562,0.0729289460890327,0.2693344132542798,1.028463075576968,0.40905748968,1.63288701722,0.057057329395337,0.2382306297737197,Null
-1.0464448474668453,-1.3330078125,-0.81384277343,0.0140915446924994,0.1183539878934467,0.179018293105,0.01123046875,0.38330078125,0.0087073568408215,0.0930350865846681,0.1314341227190476,-0.13952636718,0.31530761718,0.0092365981490791,0.095820761832662,1.0780596865293453,0.8430304373,1.33963565489,0.0140852619809557,0.1183276009045693,Null
-0.9542949969911282,-1.28479003906,-0.06787109375,0.0831802992283783,0.287669486722714,0.2585799779617948,-0.11975097656,1.0380859375,0.0806440379135083,0.2832498521530437,0.0735088641815384,-0.14416503906,0.29187011718,0.013897686839189,0.1175857842184597,1.0602382143604103,0.64974394715,1.37143733401,0.0358354286249494,0.1888164643141683,stairs up
-0.4641352928480981,-1.37561035156,0.25317382812,0.3498020710836,0.5896236478531259,0.6091885244892025,-0.06091308593,1.18481445312,0.1276351865258465,0.3561630926579848,0.2622751809296319,-0.09191894531,0.54919433593,0.028305448885497,0.167725358323808,1.0638595393150307,0.73127125195,1.40364036547,0.0263248723675696,0.1617509507950603,stairs up
0.1267907840665464,-0.07043457031,0.33471679687,0.0107444329336715,0.1033878583720336,0.9324095421195876,0.74865722656,1.18371582031,0.0153282970853473,0.1234879963587602,0.3640111549577319,0.19494628906,0.62573242187,0.0095710385276081,0.0975792153968548,1.0166666512161342,0.82849698439,1.30483232482,0.0199192125314392,0.1407712192821545,stairs up
0.1829017896298876,-0.07238769531,0.30590820312,0.0094340429671599,0.0968557831302365,0.888023119290955,0.53771972656,1.20922851562,0.0294022506562797,0.1709885068442248,0.4592943512952809,0.23205566406,0.73986816406,0.0174295486557947,0.1316496480934215,1.027812426182191,0.76589395703,1.39174311403,0.0327246310467402,0.1803906450038487,stairs up
0.3808875450687362,0.00744628906,1.20263671875,0.0677668144613421,0.2596044478180973,0.8301002586244505,0.45397949218,1.19311523437,0.0321110198029073,0.1787025059370072,0.3288158374806044,-0.17736816406,0.6875,0.057949933629269,0.2400656730991266,1.0313150095356594,0.73317898084,1.39174311403,0.035808298692659,0.1887102270645217,stairs up
-0.6798061605248603,-1.3837890625,1.0205078125,0.4293582620939596,0.6534214662720034,0.2670202841280447,-0.52062988281,0.9501953125,0.0870551507016228,0.294225779084008,0.1237683855601117,-0.1591796875,0.44458007812,0.0307280175605741,0.1748037547022406,1.0290326061367598,0.5957777258,1.40106275488,0.0341221576943668,0.1842051332484215,stairs up
-1.097014352173202,-1.37451171875,-0.81079101562,0.0206428336988439,0.1432719886195754,0.1886761268834831,0.01049804687,0.46801757812,0.0159873426351676,0.1260853921099087,0.1366398843462921,-0.07995605468,0.32421875,0.0115373027441501,0.1071096934763552,1.1328969853276405,0.82596830019,1.41185752976,0.0222760700834477,0.1488318635988437,stairs up
-1.0533440840833683,-1.25122070312,-0.81701660156,0.0124493060759065,0.1112824488064003,0.157067871089421,0.03894042968,0.39562988281,0.0062477098176688,0.0788341749142972,0.1278288188692631,-0.05676269531,0.23413085937,0.0060220177264112,0.0773971762810001,1.078320059891684,0.83034063339,1.28280552782,0.0124244562891144,0.1111713291002162,stairs up
-1.112045196712335,-1.37658691406,-0.86059570312,0.0187298996943108,0.1364468563445893,0.166156700268503,-0.11791992187,0.47143554687,0.0178880583763791,0.133345207091837,0.1545227416235329,-0.17126464843,0.32336425781,0.0106973992102099,0.1031181018420824,1.147297949625509,0.88142048965,1.4280210382,0.0189829632637179,0.1373655445336023,stairs up
-1.0961071973137433,-1.66833496093,-0.84948730468,0.0273199163144815,0.1648448376665558,0.0860001671112834,-0.3564453125,0.49841308593,0.0429958333172201,0.2067991998893663,0.141507561828877,-0.06506347656,0.46374511718,0.0121745432824215,0.1100428951495273,1.1333464682901606,0.87088658559,1.69871002562,0.0265885426890522,0.1626233623093247,stairs up
-1.159436107383136,-1.51696777343,-0.92846679687,0.0150251691266193,0.1222140041092931,0.170213688051716,-0.14599609375,0.70764160156,0.038094105661766,0.1945988097407709,0.1410721096039645,-0.2587890625,0.42260742187,0.0286689400464539,0.1688173609198834,1.2076772582115975,0.99235801282,1.55218957904,0.0160811826394109,0.1264358640281723,stairs up
-1.0764297876561024,-1.431640625,-0.82397460937,0.0237211936465689,0.1536214389324076,0.0770251151826154,-0.47497558593,0.30676269531,0.0241878227758713,0.1551250549043319,0.0997614933861538,-0.2587890625,0.25866699218,0.0090244126826783,0.0947530139007724,1.0990332158171283,0.84538372254,1.44188010431,0.0234741452508708,0.1528193869206884,stairs up
-1.04750213622525,-1.39013671875,-0.78527832031,0.0273855438186526,0.1649678276809938,0.144237518307625,-0.02209472656,0.36145019531,0.0103221234466818,0.101279860659166,0.068742370603125,-0.16528320312,0.24645996093,0.0102796321178366,0.1010711849000503,1.0694894386985,0.80717501361,1.39565591847,0.0268381583671775,0.1633108075951578,stairs up
-1.0256034491536126,-1.36596679687,-0.77001953125,0.0236598675525291,0.1534144514067095,0.0797393958572775,-0.13818359375,0.20849609375,0.0048286509606016,0.0693063493882051,0.0720732524121466,-0.18981933593,0.32690429687,0.0136469921502073,0.1165141275962945,1.04066842351623,0.77232080821,1.37145752713,0.0224570743766301,0.1494640360454424,stairs up
-1.0444845760538823,-1.30920410156,-0.77001953125,0.0203081525769598,0.1420869200733091,0.1049043543175882,-0.16552734375,0.27368164062,0.0093061137394888,0.0961840521810266,0.0030230353873529,-0.21704101562,0.265625,0.0175696723013585,0.1321602106831746,1.062275193360706,0.77232080821,1.33776305766,0.0205608376216343,0.1429681486135205,stairs up
-1.06505839029625,-1.37585449218,-0.80908203125,0.0254405571266106,0.1590850534302626,0.1343517303430208,-0.03442382812,0.38427734375,0.0077113964563224,0.0875855749145508,0.0389111836740624,-0.13500976562,0.23779296875,0.0094271574480038,0.0968403721060017,1.0830643683869792,0.82147284593,1.37692959271,0.0255614001971917,0.1594624341482911,stairs up
-1.0613689181136707,-1.29113769531,-0.84899902343,0.0132152034632991,0.1145930317909882,0.1455155384648734,0.03588867187,0.38842773437,0.0071113883468211,0.0840617603897037,0.1177823996205063,-0.01245117187,0.25732421875,0.0057452096554948,0.0755569160902406,1.0833195640271522,0.8570556119,1.327623396,0.0140460038823939,0.1181401926680526,stairs up
-1.1342172573230054,-1.42199707031,-0.84130859375,0.0208538485253924,0.1440340150685368,0.1588697680505699,-0.13427734375,0.42541503906,0.017826219396135,0.1331685231767137,0.1882779610559585,-0.18530273437,0.55456542968,0.0282716263032067,0.167705519267636,1.1790647081294818,0.86040941751,1.52669459155,0.0236708357442001,0.1534541916236657,stairs up
-1.0738216624502352,-1.39794921875,-0.80090332031,0.0284251941136767,0.1681011216187405,0.1500782686097058,-0.04174804687,0.44775390625,0.0160385056279727,0.1262701923544112,0.1093369427834705,-0.14196777343,0.34826660156,0.0164209433620971,0.1277667780669695,1.1043498107820586,0.8322697508,1.39881338363,0.0276043936763627,0.1656563155754442,stairs up
-1.089868545528073,-1.35852050781,-0.80871582031,0.0204142975772938,0.1425060458743607,0.104063034054375,-0.10595703125,0.31433105468,0.0090923157932774,0.0951049945158197,0.0680205027245833,-0.17236328125,0.38732910156,0.0190340124001789,0.1376040585118332,1.1103937086522395,0.89698642809,1.3763021134,0.0186802652247866,0.1363193756468277,stairs up
-1.053424033386115,-1.34887695312,-0.86999511718,0.0192435855412362,0.1382787580675112,0.1082017254645859,-0.0478515625,0.29943847656,0.0075113488024734,0.0863915841761824,0.0811378819152866,-0.17858886718,0.21411132812,0.0107822657080702,0.103506467703359,1.071068442593949,0.88443295117,1.38041324234,0.0182197134041289,0.134549857949261,stairs up
-1.0521657843305263,-1.43725585937,-0.83117675781,0.0221683102911428,0.148497929190346,0.0930818256552105,-0.23352050781,0.24206542968,0.0106681177984453,0.1030144155447793,0.0961098118803158,-0.16052246093,0.24450683593,0.0129853506017749,0.1136530098644082,1.0726082678016318,0.87142672824,1.44243870693,0.0201523401492542,0.1415848692519801,stairs up
-1.0413313996969462,-1.42077636718,-0.77966308593,0.0183843581154263,0.1351823662268391,0.0833703686352095,-0.06372070312,0.23254394531,0.0039469133702036,0.0626360851139819,0.0135344545276646,-0.17944335937,0.20739746093,0.0116827671384061,0.1077627507488305,1.0524118492764674,0.79072145243,1.42579425649,0.0178514399187155,0.1332086523800271,stairs up
-1.074055363578,-1.28723144531,-0.84631347656,0.015527327471017,0.1242887772514191,0.1826785356532307,-0.07641601562,0.3837890625,0.0150866741023871,0.1225124750500443,0.0342504256799487,-0.24938964843,0.3623046875,0.0199982540439408,0.1410521141103442,1.1055401257415385,0.85289077233,1.33584122004,0.0163570815123301,0.1275664495195979,stairs up
-1.0644599914521875,-1.30541992187,-0.87585449218,0.0144134254288342,0.1196801634353165,0.122203826901125,-0.11608886718,0.33947753906,0.0098141577625147,0.0987563632202958,0.0848060607886874,-0.126953125,0.28271484375,0.0099804661408569,0.0995895989924482,1.0838309180964374,0.88792937563,1.31185030183,0.0145969375170368,0.1204396390627081,stairs up
-0.9920956119035712,-1.5927734375,-0.33557128906,0.0657961518293697,0.2558019439168238,0.2274719908964285,-0.11535644531,0.73376464843,0.0400434324963388,0.1995580457823459,0.0534305782091208,-0.51501464843,0.57531738281,0.0545519414167319,0.2329210284085183,1.076904584552088,0.53684523589,1.70473223277,0.038852279948471,0.1965675606065765,stairs up
-0.7649356202540462,-1.33605957031,-0.27453613281,0.1403934085342593,0.373606592476064,0.5374523008461272,-0.1240234375,1.17883300781,0.1382161268575135,0.3706982461626277,-0.0142942219107514,-0.48400878906,0.23425292968,0.0279973744754621,0.166839863165018,1.0724396684318498,0.6411403932,1.36963588556,0.0290615626751517,0.1699811070788007,stairs up
-1.0389295076034737,-1.453125,-0.80444335937,0.0223452309672039,0.1490893171505901,0.1517263312051052,-0.19372558593,0.33837890625,0.0104970065027357,0.1021849259924855,0.1212434467485263,-0.30004882812,0.24487304687,0.0124307220623895,0.1111993579542146,1.0678133046575264,0.83158708635,1.48694501549,0.0220207003459631,0.148002709174831,stairs up
-1.034215938680121,-1.37438964843,-0.76086425781,0.0276211029913871,0.1656915881002922,0.1276285807262424,-0.18054199218,0.4306640625,0.0093416321807781,0.0963587890551107,0.0640558416176969,-0.26550292968,0.23413085937,0.014773825619733,0.121178741050746,1.0552383547566664,0.78004482773,1.39485693582,0.0280598937727631,0.1670024964199755,stairs up
-1.1032981434045404,-1.50146484375,-0.76965332031,0.0393806442447312,0.1978745024076998,0.161004428202931,-0.11083984375,0.41137695312,0.0145516995518565,0.1202832868467685,0.073358645381954,-0.20129394531,0.36633300781,0.0136524643534654,0.1165075187043843,1.1290836749583906,0.77050202999,1.50425282733,0.041173785600092,0.2023293222653784,stairs up
-1.0450181749095555,-1.44018554687,-0.7001953125,0.0365837381185933,0.1907367167827044,0.1397101508215555,-0.05932617187,0.37292480468,0.0084601033825853,0.0917229677247618,0.0501885308141111,-0.34814453125,0.21569824218,0.0136206839535721,0.1163830463906294,1.0661590660453888,0.70112482194,1.44389803982,0.0359439466635915,0.1890615192761763,stairs up
-0.7594894980338504,-1.92016601562,0.15405273437,0.2835511062187837,0.5310694776983022,0.4585554969467914,-0.00830078125,1.43017578125,0.1504534541211022,0.3868447882488802,0.0830019374573796,-0.298828125,0.4912109375,0.0315807873968206,0.1772340435153327,1.0966098973479146,0.76619453072,1.93045119953,0.054822249694975,0.2335146303431686,stairs up
0.1090913660361176,-0.07775878906,0.33630371093,0.0122348901788733,0.1102856302364217,0.9449721392428236,0.62768554687,1.24206542968,0.0236361147009224,0.1532875687461103,-0.1912813074434705,-0.70593261718,0.220703125,0.0545447667934634,0.2328602912136161,1.0069088128885293,0.75718930762,1.25563183706,0.0175837994988845,0.1322133328533292,stairs up
0.0645370924387283,-0.37780761718,0.34045410156,0.0363099952018376,0.1900002916748001,0.8994571046300577,0.39709472656,1.2470703125,0.0379988924961544,0.194368839371747,-0.3408682938913294,-0.89453125,0.12622070312,0.0603152635888088,0.2448808290713607,1.0231147365991908,0.75366189188,1.26990559854,0.0165572324529709,0.128302478179496,stairs up
-0.4536908397321548,-0.72924804687,0.07165527343,0.0298831290611779,0.1723891786064861,0.2280536461908286,-0.20422363281,0.71801757812,0.0580981205392424,0.2403687509803747,-0.8566375226561878,-1.41430664062,-0.38403320312,0.0358789977298985,0.1888935446835162,1.0446746578070163,0.75226004145,1.49191136826,0.0236330540899831,0.1533052012502185,stairs up
0.1945728198874594,-0.02319335937,0.43518066406,0.0197800360898439,0.1402608889742425,0.8703844225046486,0.39184570312,1.40734863281,0.0438419107816309,0.2088179290197769,-0.4058580553176216,-0.98425292968,0.04248046875,0.0840404137940291,0.2891126792221925,1.0359110084834595,0.71168024438,1.4730962708,0.0332314052751555,0.1818014742994457,stairs up
-0.7081454964554651,-1.7587890625,0.61450195312,0.5915373010537701,0.7668755640250942,0.3861318189006976,-0.04455566406,0.83679199218,0.0740718779391475,0.2713691719521821,0.0290222167969767,-0.35266113281,0.42895507812,0.0462740051669539,0.2144876925447998,1.129420111977849,0.60955340879,1.78900365024,0.084053336070659,0.2890755158850394,stairs up
0.096013849431123,-1.32067871093,1.18420410156,0.6864587503001887,0.8263097771974904,0.1859287527141711,-0.39086914062,0.83361816406,0.1270420843633981,0.3554753365963661,-0.1364041088723529,-0.58056640625,0.50244140625,0.1050158306157491,0.3231938251790197,0.9672669791346524,0.71347361725,1.58252275626,0.040610813944721,0.2009817002034623,stairs up
-1.077413993966316,-1.41162109375,-0.82788085937,0.0288133164309499,0.1692477991125827,0.1313533671386549,-0.03002929687,0.32104492187,0.0058851417043765,0.0764900364166316,0.0726632458407602,-0.232421875,0.23156738281,0.0137484600150487,0.1169104771356423,1.0974561644050294,0.84932077702,1.42720978123,0.0272675984346492,0.1646454943042187,stairs up
-1.0295661847581958,-1.31164550781,-0.76525878906,0.0199388131075864,0.1408404619434129,0.094951826269536,-0.11865234375,0.23840332031,0.0067636590978181,0.0820292318363668,0.0436470582302061,-0.14916992187,0.22497558593,0.0077219074153588,0.0876476113130752,1.0419986606425773,0.77787289269,1.31372486589,0.0195137557549261,0.1393311500887558,stairs up
-1.0584087007323566,-1.32421875,-0.80346679687,0.0204024923543613,0.142381670778792,0.1199663490212738,-0.09790039062,0.34631347656,0.0088589415219937,0.0938217199952804,0.0795999514812738,-0.19104003906,0.30456542968,0.0151420342536634,0.1226604588920759,1.0791973279582805,0.82426368446,1.33691157138,0.0205416644052718,0.1428664613493546,stairs up
-1.1315444634837246,-1.53686523437,-0.79028320312,0.0309060289712715,0.1753520605809624,0.1627496213304591,-0.12536621093,0.37744140625,0.0148520271165863,0.1215576055540431,0.0931595782837755,-0.15222167968,0.33557128906,0.0170887411226991,0.1303900060126983,1.1610210966153571,0.79585033809,1.55710569491,0.0302696194456932,0.1735372657724751,stairs up
-1.1277938239280791,-1.47814941406,-0.8212890625,0.0296090160362534,0.1715859360780406,0.1783847270007344,-0.15710449218,0.45861816406,0.018630447796768,0.1361072776509568,0.1723770745022599,-0.08422851562,0.34765625,0.0132094526609184,0.1146072553762112,1.169219522139096,0.82775137228,1.5035022837,0.0286847191590823,0.168886525806121,stairs up
-1.0859474513798912,-1.49560546875,-0.80078125,0.0261473824888299,0.1612615178807913,0.1433317764908695,-0.0498046875,0.35681152343,0.0090300157774299,0.0947678194574851,0.1086777396796739,-0.24645996093,0.26623535156,0.0105133637810277,0.1022556890074664,1.1116085785819565,0.82244125447,1.49644597541,0.0262901499591743,0.1617011710204851,stairs up
-1.0426160143533116,-1.552734375,-0.7666015625,0.0357631516147286,0.1884964810215038,0.0794114942648051,-0.16796875,0.25854492187,0.0101916225382959,0.1006252610986137,0.0647234235482467,-0.17431640625,0.30236816406,0.0155625095867571,0.1243440964810966,1.0598041675962988,0.78280972234,1.55634109697,0.0357082795109461,0.1883518185897599,stairs up
-1.046029849924796,-1.36328125,-0.83325195312,0.0219613686472338,0.1478151577072299,0.1252678073155612,-0.09631347656,0.28393554687,0.0056864534150537,0.0752159617211002,0.0685306471205101,-0.1748046875,0.27880859375,0.0117354080577515,0.1080533827644681,1.0646067238664796,0.83708328975,1.38160817456,0.0217285568861629,0.1470295783237165,stairs up
-1.0514154543779886,-1.42260742187,-0.75720214843,0.0275398288984664,0.1654737260707561,0.107030408132931,-0.04040527343,0.35241699218,0.0077568751322945,0.0878196754159053,0.0528985385227586,-0.24450683593,0.22875976562,0.0134652874805827,0.1157060965158026,1.067958407924023,0.76400728981,1.43829233164,0.0278347804759503,0.1663574779600093,stairs up
-1.055474102812246,-1.34436035156,-0.81652832031,0.0175540003534239,0.1321367802460011,0.1240430209683422,-0.09130859375,0.38317871093,0.0073115977218265,0.0852789438769541,0.0756933854843315,-0.18920898437,0.36779785156,0.0164432724149647,0.127887999737727,1.0759824854571658,0.81716378215,1.36088910679,0.0185908159192589,0.1359830864164676,stairs up
-1.0652020854300646,-1.42602539062,-0.79052734375,0.0213131341603883,0.1455184870352595,0.1330369518612258,-0.09606933593,0.37780761718,0.0125158720362236,0.1115128892760814,0.0434798702105806,-0.19311523437,0.2177734375,0.0097614669538186,0.0984809105749176,1.0841668822294197,0.79550878429,1.4630023827,0.0222799699862286,0.148782486349644,Null
-0.750588214455544,-1.32299804687,-0.2861328125,0.0810508742505949,0.2839558443389934,0.4887062823795854,-0.04602050781,0.87145996093,0.0812602724714481,0.2843224134503802,0.2211079177443523,-0.42956542968,0.8359375,0.111553187303178,0.3331293915493534,1.0513889852939895,0.83842108236,1.51200649076,0.0182261950926336,0.1346542195723193,Null
-0.3625380572106471,-0.60278320312,-0.07202148437,0.0255789849951097,0.1594632257841647,0.5957354377261763,0.32983398437,0.94287109375,0.0282933434341109,0.1677107987046319,0.706021656706,0.19201660156,0.9482421875,0.0413917643039269,0.202850396443865,1.0370116633615882,0.91659276386,1.24960933183,0.0041359895484503,0.0641222285807765,Null
-0.3347174359826702,-0.68469238281,-0.10083007812,0.0157414790044435,0.1251361773589132,0.7355023928302094,0.59875488281,0.89660644531,0.0051907364002096,0.0718579137593211,0.6302701141157068,0.3798828125,0.79455566406,0.0085228320247536,0.0920771951546963,1.0363799989768585,0.88894358243,1.31258911443,0.0054860013224618,0.0738733971227052,Null
-0.3928276738000632,-0.50756835937,-0.24389648437,0.0041591649118272,0.0642871766627792,0.7371432147412658,0.53283691406,0.96887207031,0.0169620411923158,0.1298256003306947,0.5169592748677215,0.02648925781,0.84045410156,0.0649080942994274,0.2539631539731962,1.024082841453671,0.92429066021,1.10929310187,0.001690436177995,0.0409845972878005,Null
-0.3618018897762702,-0.52124023437,-0.22668457031,0.0046858782178473,0.0682682147591359,0.5904679581888107,0.5205078125,0.64929199218,0.0011391831331981,0.0336604424589486,0.7501339474197297,0.68627929687,0.86560058593,0.0014003319461869,0.0373197345156108,1.0241591985924865,0.97278411055,1.07849852684,0.0005411543842547,0.0231997677880833,Null
-0.3348674216430994,-0.50317382812,-0.13195800781,0.0061131109772556,0.077957435759869,0.5664890579264328,0.38854980468,0.74157714843,0.004680479388933,0.0682136948452167,0.7736516584388304,0.49279785156,0.94372558593,0.0063059292894599,0.0791773484652613,1.0227764274436844,0.8371766256,1.15994822117,0.0025209163850145,0.0500617037657783,Null
0.0031719306595337,-0.48901367187,0.55578613281,0.1416007254677593,0.3753225851882382,0.658020335771399,0.35778808593,1.13623046875,0.0557958898330797,0.2355987944754747,0.4964941153231088,-0.15795898437,1.19848632812,0.1917481612463301,0.436754676514733,1.0221341207140415,0.6500018106,1.58508205362,0.0219914972061116,0.1479106203919545,Null
-0.4404003001993209,-0.76989746093,0.15698242187,0.0453657031805784,0.212333859701556,0.7772224332041356,0.45092773437,1.14501953125,0.0305651875196187,0.1742885926346989,0.3036830572411728,-0.46032714843,0.82165527343,0.1196292219076109,0.3448054087750465,1.0393529351466668,0.85168597874,1.15343964401,0.0043759741569267,0.0659466600425893,Null
-0.892499802425607,-1.45739746093,-0.12329101562,0.1539675229321187,0.3912512456854676,0.4142600704441618,0.00366210937,1.15466308593,0.0869666868882242,0.2940475969569444,0.2858315175649133,-0.09765625,0.82214355468,0.0753795337417957,0.2737586782068785,1.1512654292789597,0.66679647542,1.5436724929,0.0391666080736327,0.1973327430893627,Null
-0.4130866156675,-1.64526367187,0.32177734375,0.3960660095774435,0.6275871595703412,0.690471055768611,0.05517578125,1.16882324218,0.1232845791828547,0.350142349415293,-0.0744967990449444,-0.53173828125,0.44641113281,0.0674975900755789,0.259080303118643,1.0915774624458887,0.76573092837,1.73535345589,0.045238483529872,0.212101764776658,Null
-0.3948968046439247,-1.77685546875,0.35900878906,0.3623662396833382,0.6003482606734551,0.5831206947212902,0.1220703125,1.27307128906,0.1122650024813696,0.334157787877541,-0.3739650275098924,-1.25598144531,0.28491210937,0.1953241388848861,0.4407652539685213,1.115116137922581,0.56114442722,1.83381408697,0.0590097990590592,0.2422654372271678,Null
0.017771876134593,-1.39489746093,0.48779296875,0.115292172828319,0.3385585170955264,0.6874212220620349,-0.11962890625,1.13195800781,0.0989120542802693,0.3135872832199107,-0.4807966365341279,-1.15942382812,0.06225585937,0.1302615188921114,0.359866898283168,1.0152182993180814,0.66416120356,1.47851650182,0.0159165628864929,0.1257935798448239,Null
-1.162055924090296,-1.55004882812,-0.72290039062,0.0359548516215536,0.1890558145634317,0.2223413230362721,-0.03979492187,0.73547363281,0.0351129230261992,0.1868292114496453,0.1591009557566864,-0.11010742187,0.37817382812,0.0195430054810006,0.1393820877850316,1.215539875174497,0.72597795988,1.62079553733,0.0378843500444669,0.1940623154884135,Null
-1.013527248213424,-1.19677734375,-0.90930175781,0.0038329170471198,0.0617420924184756,0.1699258555494565,-0.04016113281,0.291015625,0.0047588016006328,0.0687963556335325,0.0423185928986413,-0.24914550781,0.20129394531,0.0092914847425681,0.0961300553566899,1.0350893246761412,0.92558243785,1.22245499901,0.0043026284171019,0.065415935115299,Null
-0.8666685344068308,-1.2978515625,0.74084472656,0.2398333666100872,0.4883879623467632,0.2852456348152459,-0.1806640625,0.94763183593,0.0625123124427581,0.2493405604930842,0.0473959667429508,-0.33544921875,0.44567871093,0.0305202208596996,0.1742223972298965,1.0747742288922404,0.86117677807,1.3123089163,0.0106915395647285,0.1031170007867766,Null
0.264516657045909,0.00048828125,0.78332519531,0.057497314460163,0.2391037958156614,0.9241707541686364,0.63037109375,1.17749023437,0.0173374739229153,0.131297241206178,-0.0814188176917613,-0.49951171875,0.2626953125,0.03541531741111,0.1876541873146686,1.0180021712864205,0.86541719421,1.19461536024,0.0040077036278617,0.0631263224378038,Null
-0.6512320656427043,-1.22509765625,0.3740234375,0.2873559729158997,0.5343675725995997,0.385032030019434,-0.46008300781,1.08471679687,0.186977043530134,0.4310465024582809,-0.0075921592473584,-0.32727050781,0.32556152343,0.0172184719831258,0.1308058855958034,1.0246784109190563,0.7517634363,1.36717734196,0.0109736488335687,0.1044252468239273,Null
-1.007568998482932,-1.15356445312,-0.87292480468,0.0048786957792695,0.0696645739915952,0.2307237555184293,-0.11926269531,0.49829101562,0.0152574149782422,0.1231971315592592,0.0897191232393193,-0.30981445312,0.57763671875,0.0245069448812945,0.1561365949076341,1.0550890454950783,0.89347068516,1.27391628321,0.0077150806719688,0.0876052942432447,Null
-0.4835129641379213,-0.8232421875,-0.25305175781,0.0144192162477062,0.1197422624425227,0.8185054478980337,0.34008789062,1.10754394531,0.0195883857765209,0.1395648188671374,0.2716921688434831,-0.27514648437,0.54406738281,0.0441417232083117,0.2095083196421474,1.0237083139791574,0.83168833117,1.28129543247,0.0073253147656644,0.085347298211043,Null
-0.3183419363804395,-0.56481933593,-0.14611816406,0.0124445241695462,0.1112481355489617,0.6457358559365384,0.15490722656,0.94055175781,0.063919691983188,0.2521279137350312,0.6321370889803295,0.14819335937,1.00805664062,0.0676869467890062,0.2594514222122663,1.0286827362584063,0.88775085678,1.14466926732,0.0030016772622842,0.054636842241055,Null
-0.2872726638557143,-0.3828125,-0.20385742187,0.002180130111857,0.0465400195833546,0.4264875139475974,0.27258300781,0.54565429687,0.0023488805505236,0.0483076399694332,0.8804606648201948,0.78601074218,0.95385742187,0.0011227397829651,0.033398342247692,1.021957483877792,0.91841259229,1.10747584458,0.000851647337664,0.0290880930991838,Null
-0.2754238030825128,-0.63012695312,0.54333496093,0.0640270406267787,0.2523860075929184,0.5651323367349743,0.27258300781,1.13928222656,0.0731327102007245,0.269736298375346,0.630413661855282,-0.10327148437,1.07995605468,0.1288672490735676,0.358059200951478,1.0247382811854358,0.9084415984,1.25034834061,0.0067670416523367,0.0820508310416929,Null
0.4815548270056571,0.05847167968,0.81762695312,0.0450461440173272,0.2116334980103228,0.7301583426304,0.01892089843,0.99670410156,0.0560960942154242,0.236168467636181,-0.1127392578124571,-0.59020996093,0.57495117187,0.1318756443920374,0.3621078144437452,1.0030990994188,0.80383463912,1.10941713548,0.0032334222898965,0.056700490219196,Null
-0.0233655774934594,-0.55981445312,0.2353515625,0.0557475832463692,0.2354702634273616,0.9556759396075676,0.81823730468,1.04235839843,0.0028562452683325,0.0532992129840576,-0.149033335091081,-0.41857910156,0.42150878906,0.0560366677658553,0.2360800009721554,1.024261874332919,0.94229265483,1.10462474617,0.0009871533991946,0.0313339661529579,Null
-0.3726074218714194,-0.59838867187,-0.07495117187,0.0095697524485196,0.0975090360435489,0.804572517637613,0.59631347656,1.23168945312,0.0178918631893884,0.1333282858735272,0.4109611265096129,-0.23864746093,0.73156738281,0.0790222352375226,0.2802006680310068,1.0269087458934194,0.82299992083,1.28216152796,0.0063585834911442,0.0794830822996098,Null
0.2903831363302072,0.0390625,0.97497558593,0.0252670604309132,0.1585438205019485,0.7036758976240415,-0.09887695312,1.12463378906,0.1259911617736382,0.3540315774427821,-0.53936419709,-1.01403808593,0.11303710937,0.0881298968328978,0.2960967160288848,1.047390858416373,0.70927340288,1.38586155361,0.0115760069726542,0.1073127562870093,Null
0.848622041586353,0.36486816406,1.01257324218,0.0105000012791481,0.1021676884623577,-0.1712761374044117,-0.50415039062,0.16101074218,0.0218680624858441,0.147442961256761,-0.4287655101054706,-0.59997558593,-0.22912597656,0.0095696385816331,0.0975363859796769,0.983225975421353,0.65883483908,1.15838427357,0.0083415062902895,0.0910628277961378,Null
-0.0054305311253403,-0.11328125,0.38952636718,0.0186378056836298,0.1361624968526966,0.9250756708073822,0.16101074218,1.32043457031,0.0384869794129636,0.1956667496100145,-0.4185644019928271,-0.79125976562,-0.21594238281,0.0118179004623762,0.1084252121877837,1.0405826282841886,0.6040854742,1.43927486873,0.0168746878315969,0.1295621035667689,Null
-0.1051334429358861,-0.18920898437,-0.06652832031,0.0004979390886545,0.0222438210619316,0.869510698918038,0.82373046875,0.89672851562,0.0001017419815292,0.0100547523558414,-0.5366782659174683,-0.57019042968,-0.49597167968,0.0002231768117107,0.0148917527593044,1.027479929557785,0.98776174921,1.07311822871,0.0001718124309498,0.0130661781137733,Null
-0.1088136107024725,-0.17687988281,-0.07177734375,0.0004169005484466,0.0203619715669318,0.8501707642912086,0.81774902343,0.8818359375,0.0001962497517495,0.0139703778191685,-0.5683345585045605,-0.61401367187,-0.546875,0.0001640561435539,0.0127732038334865,1.028732039122912,0.99599838548,1.04905932558,0.0001188816766548,0.010873292078727,Null
-0.1661376953083908,-0.62573242187,-0.06909179687,0.0150700711101416,0.1224069503993151,0.8612776131430461,0.72216796875,0.96850585937,0.0012400259005841,0.0351126660188121,-0.509285060835,-0.58239746093,-0.13842773437,0.0165138139809144,0.1281362829334947,1.0294820263525863,0.84007359398,1.12876651651,0.0015832583222843,0.039675674367603,Null
-0.3138216827524607,-0.50390625,0.19213867187,0.0328435804727934,0.1807529378850804,0.925181763331204,0.69714355468,1.12768554687,0.0065371854907409,0.0806409287440019,-0.1940438635030366,-0.56921386718,0.00268554687,0.0305466193546627,0.1743177828289401,1.0277783670667542,0.82096302033,1.18492040154,0.0053593255666658,0.0730155207507642,Null
-0.3444639263699394,-0.47705078125,-0.2529296875,0.0039435947824192,0.0626074612804285,0.6602923768900606,0.36218261718,0.97778320312,0.0523840665829188,0.2281810408239632,0.3568137428967272,-0.48669433593,1.017578125,0.3181819442298697,0.5623642670105335,1.0257689412201212,0.93347963729,1.1633011357,0.0020075633595776,0.044669859065298,Null
-0.2348461151080728,-0.31774902343,-0.16333007812,0.0012471700216271,0.0352232074693828,0.5511379241911458,0.43518066406,0.59362792968,0.0020831430011141,0.0455224482863492,0.8242702484089063,0.79174804687,0.87780761718,0.0005109192211004,0.0225445821316455,1.020801601639427,0.99560102356,1.04361337035,0.0001130564284616,0.0106050739222687,Null
-0.3460991438006395,-0.54272460937,-0.23522949218,0.01125500335881,0.1057807510503233,0.552182929456686,0.48205566406,0.66442871093,0.0019365670168701,0.0438783307146811,0.7729825751686046,0.57409667968,0.85632324218,0.0056588860768474,0.0750065702215522,1.020198269299186,0.99641028965,1.04327504521,0.0001297730288763,0.0113586325991459,Null
-0.5819826775163874,-1.39965820312,0.08642578125,0.1895367314749117,0.4342169878835535,0.5283650503067016,0.04138183593,0.96606445312,0.0774290375289253,0.2775313493965751,-0.1676012608390575,-0.94567871093,0.61596679687,0.2209081739134124,0.4687766916298596,1.0514556823573298,0.70144004262,1.44265192887,0.0258596137153324,0.1603877272973472,Null
-0.7785263547445223,-1.19311523437,0.16577148437,0.1857917627547058,0.4296607682006708,0.2977699231161146,-0.22290039062,0.90893554687,0.0811463291414852,0.2839532946487115,-0.1252752413420382,-0.96862792968,0.33227539062,0.1381404315613598,0.3704869177192312,1.048341511787325,0.74679219173,1.33566672386,0.014031953876262,0.1180786956815897,Null
-0.4264322916647179,-1.57104492187,0.17224121093,0.2904999152673862,0.5375966630403958,0.2711964142591282,-0.0888671875,1.03918457031,0.0632004750808902,0.2507516103247901,-0.6047895382586154,-1.07531738281,0.35620117187,0.1980127042352032,0.4438437275324441,1.061599861022667,0.58000889117,1.62744335193,0.0432738288798615,0.2074895462636196,Null
-0.4666657366037714,-0.62963867187,-0.25061035156,0.0084513633101879,0.0916682595316301,0.837596261156857,0.63244628906,1.04528808593,0.0105841156717783,0.1025847698773884,0.1013469587043428,-0.44177246093,0.63024902343,0.0874699917135247,0.2949070416070927,1.0146057408917142,0.77063438816,1.1513761499,0.0061226576357019,0.0780235286348983,Null
-0.454985747463081,-0.57214355468,-0.38354492187,0.0021720850964446,0.0464795018897936,0.717578124995946,0.65551757812,0.80407714843,0.0017727113287778,0.0419896309269212,0.5696315456039459,0.46447753906,0.640625,0.0019468308073013,0.0440034930151246,1.0256445395450269,0.981359237,1.06268649708,0.0003253111551505,0.0179875711666165,Null
-0.3553676060228571,-0.61157226562,-0.01953125,0.0206000880996834,0.1431166423255604,0.8788671874962857,0.66149902343,1.24487304687,0.0082577436203155,0.0906121212306265,-0.1833391462032,-0.50817871093,0.49792480468,0.0856100488408245,0.2917547747025473,1.0215777807754285,0.91275930019,1.24575911187,0.0025138925113058,0.0499952738890513,Null
0.2967434877808287,-0.01953125,0.48413085937,0.0109506680666617,0.1043559635963208,0.8194391240033148,0.64990234375,1.24487304687,0.0131672082400413,0.1144310326493223,0.4779868784496684,0.04272460937,0.66955566406,0.0130374439979982,0.1138657715060203,1.0087683440023756,0.78619502988,1.24575911187,0.0054104623148856,0.0733523704995095,Null
0.4232997995168254,0.40075683593,0.43908691406,7.620229220344394e-05,0.0087062681713928,0.7322558852070898,0.7109375,0.75866699218,0.0001211061387554,0.0109756715300011,0.557007481808836,0.517578125,0.58422851562,0.0001643866771852,0.0127873729282618,1.0128719939010054,0.98760022004,1.03614835161,8.931439275688758e-05,0.0094255944020654,Null
0.51174200148375,0.22644042968,0.95849609375,0.0414347782380837,0.2029486207229142,0.6150534493547023,-0.47680664062,1.14050292968,0.113263927706686,0.3355439429654676,0.246494838168869,-0.376953125,0.58288574218,0.1441205984690206,0.3785006443374276,0.9970385168995834,0.84546272966,1.20568902653,0.0037754450770793,0.0612615065903194,Null
-0.2779816658239785,-0.82775878906,0.92822265625,0.1075180220043914,0.3270167703996958,0.6154306063053225,-0.49658203125,0.98071289062,0.1176490286182879,0.3420767559467463,0.1343797253019354,-1.15734863281,0.87878417968,0.3753971632351005,0.611047378618575,1.0283094433060214,0.78821405742,1.38286735404,0.0139199280986161,0.1176651595652057,Null
-0.3356359145177647,-0.42846679687,-0.22106933593,0.0015110680648616,0.0387579595591153,0.5265754250878824,0.20202636718,1.01513671875,0.0519286887262382,0.2272074511352521,0.7369664809242941,0.09094238281,1.05639648437,0.07210354198851,0.2677300945097968,1.027444255637,0.87323571196,1.15782146373,0.0022289613123392,0.0470728135467584,Null
-0.3151320624569587,-0.37817382812,-0.28039550781,0.0003327648378304,0.0181947672466889,0.231150833597835,0.20458984375,0.26196289062,0.000175120840583,0.0131991725436771,0.9421997070280412,0.90673828125,0.98547363281,0.000413857168777,0.0202909803706444,1.020348805374227,0.98869702485,1.0616648842,0.0003743341605553,0.0192977875163634,Null
-0.3103042602503125,-0.34350585937,-0.27612304687,0.0002740390997045,0.0165023136357131,0.2142654418906874,0.18823242187,0.24438476562,0.0001322721699269,0.0114649670241538,0.9459159851040626,0.91345214843,0.9833984375,0.0002507026178408,0.0157840339102313,1.0185081928677502,0.98443731988,1.05674409624,0.0002510017662051,0.0157934481721494,Null
-0.3017978567263492,-0.32897949218,-0.26953125,0.0002352560185958,0.0152974271613459,0.207830196962328,0.17687988281,0.22729492187,0.0001693939328687,0.0129806651860999,0.951392764132963,0.92639160156,0.97241210937,0.0001127062914629,0.0105881991801492,1.0197494086275662,0.99380414023,1.04062041032,7.216389112832991e-05,0.0084724300881476,Null
-0.3000669933467261,-0.33056640625,-0.27209472656,0.0002356345853258,0.0153046397706189,0.2035849434954166,0.18322753906,0.22668457031,0.0001168640026044,0.0107781437892284,0.949231828958869,0.92724609375,0.98156738281,0.0001300243267279,0.0113688333791188,1.016317885663512,1.00022582395,1.05031675403,0.0001063337967268,0.0102810922309185,Null
-0.3000757461895385,-0.33178710937,-0.26086425781,0.0003620852758765,0.0189796846208781,0.2055338541628718,0.16296386718,0.22595214843,0.0001213745767664,0.0109887279991544,0.951130558890718,0.92919921875,0.98156738281,0.0001553158524656,0.0124305816804592,1.0185774271154873,0.9994362941,1.0369928801,7.486755434351453e-05,0.0086303892245595,Null
-0.3016979289469811,-0.36059570312,-0.25,0.0007163778264081,0.0266809352438656,0.1824866720675471,0.11901855468,0.21472167968,0.0005113482700499,0.0225417888197528,0.9554781163976098,0.9287109375,0.97351074218,0.0001051808670875,0.0102234706533624,1.0190868786981755,0.99611554589,1.03077887119,4.821754907526174e-05,0.0069220151725946,Null
-0.2979703513486559,-0.33386230468,-0.27734375,0.000145677043423,0.0120371854481074,0.199133432036129,0.17846679687,0.21228027343,4.331188747991712e-05,0.0065634615767756,0.952141218284301,0.931640625,0.97338867187,6.055125911494039e-05,0.007760522837483,1.017459404040591,0.99929655188,1.03331276468,3.811823528315758e-05,0.0061573775695764,Null
-0.2917990291777059,-0.30712890625,-0.28137207031,3.1968664404928335e-05,0.0056374296836271,0.2009219898857647,0.18896484375,0.21728515625,3.225242806079e-05,0.0056623941840644,0.9539967256395294,0.94567871093,0.96508789062,1.578205892786061e-05,0.0039609624193001,1.0176878237597649,1.00747588546,1.02973625316,1.719906685719077e-05,0.0041349602024297,Null
-0.2861831507698453,-0.36279296875,-0.27380371093,0.0001839083564702,0.0135262846063276,0.2255507007052062,0.1884765625,0.6435546875,0.0076436909859499,0.0872025832011312,0.9508157317140724,0.55322265625,1.01135253906,0.0023861370463912,0.0487220419409362,1.0227455797293814,0.92294998855,1.16666769839,0.00098209982528,0.0312575983569865,Null
0.0628442231153416,-0.57958984375,0.36694335937,0.0878158466661944,0.2954156506090858,-0.1589226574613043,-0.52917480468,1.04797363281,0.2676049682477617,0.5156964471351706,-0.6970882060333541,-0.97241210937,0.55322265625,0.136696495478029,0.3685748891640135,1.0002242172826707,0.81903483481,1.15006136756,0.0037734080386213,0.0612370045120697,Null
0.2599672467484831,0.12097167968,0.30004882812,0.0012266471227823,0.0349250031755424,-0.4309754103717416,-0.45971679687,-0.38439941406,0.0001986624531796,0.0140551190668024,-0.8728466248210112,-0.96801757812,-0.84753417968,0.0003779812543339,0.0193870514555724,1.0084244403142697,0.99391566731,1.05423852053,5.763614707391003e-05,0.0075704919585746,Null
0.2792481840289887,0.22314453125,0.30712890625,0.0003917852599804,0.019737887911174,-0.4309027168152247,-0.44262695312,-0.41528320312,4.744341484539693e-05,0.0068685426989238,-0.8698771616006742,-0.89086914062,-0.84948730468,8.898668688386195e-05,0.0094067402258513,1.010357313655618,0.99302912482,1.02378647802,4.658422983329064e-05,0.0068060649921172,Null
0.5094455150801064,0.01403808593,0.63220214843,0.0261335280638298,0.1612281611128488,0.5189202491249999,-0.45629882812,0.83715820312,0.2452533185286772,0.4939117123538712,-0.1445552744787233,-1.20239257812,0.21508789062,0.2011823024404223,0.4473390032295642,1.0085839083451065,0.85765222917,1.22383483777,0.002536661221685,0.0502311491292632,Null
0.625403550088,0.60192871093,0.6396484375,7.867337808880683e-05,0.0088436753395753,0.7689697265584705,0.73486328125,0.81982421875,0.000347217229697,0.0185788798210409,0.1900333180105294,0.05615234375,0.25268554687,0.001842389588404,0.0427966354120264,1.0103046803985294,0.99143648635,1.03333166292,9.666151498452574e-05,0.0098026995178653,Null
0.610472087614367,0.57836914062,0.642578125,0.0002622283544092,0.0161421399225777,0.7905466586690506,0.75415039062,0.81677246093,0.0001851074486955,0.0135622963602966,0.1807104183101898,0.14929199218,0.20483398437,0.0001911229782539,0.0137809048741767,1.0153120220039873,0.99711416,1.03155479839,7.282134938848316e-05,0.0085064948581716,Null
0.5950409093631087,0.57409667968,0.61242675781,6.98868465101997e-05,0.0083381495847216,0.7949187125531089,0.77783203125,0.82482910156,0.0001247130078705,0.0111385289191458,0.2178164467249741,0.16760253906,0.24450683593,0.0002072025122743,0.0143571906767269,1.0167363834335232,1.00193565754,1.03490230396,6.060897475674231e-05,0.0077649815594183,Null
0.5931628349729609,0.57202148437,0.61071777343,9.165499499812232e-05,0.009546881999895,0.7962100918689944,0.76391601562,0.83312988281,0.0002495348659566,0.0157524860395486,0.1944143625577653,0.11779785156,0.22705078125,0.0004758807311201,0.0217536704845329,1.0120676450698325,0.98996097319,1.03755115359,0.0001218721646141,0.0110086926804454,Null
0.6001522843969613,0.55712890625,0.61901855468,0.0001261506437746,0.0112006106481703,0.7930301223636463,0.76831054687,0.84326171875,0.0003523185227182,0.0187182267200445,0.1896986144645304,0.12316894531,0.2392578125,0.0009368257371658,0.0305229406244514,1.013101928020663,0.9954102284,1.04135351083,9.760204768448602e-05,0.0098520459728918,Null
0.6077282321028386,0.59204101562,0.62670898437,7.746559609027457e-05,0.0087730164738807,0.789839812243871,0.76623535156,0.81494140625,0.0001591887217347,0.0125762354352769,0.1834858555913548,0.11169433593,0.251953125,0.0012539325122129,0.0352964959314292,1.0140286980571616,0.99489112509,1.03132967207,7.484483230650745e-05,0.0086233382411139,Null
0.597231850102228,0.5732421875,0.61743164062,8.081645899184375e-05,0.0089664776173451,0.802695160699171,0.77355957031,0.84265136718,0.0002406458434728,0.0154725231884644,0.1614610741134715,0.12524414062,0.20690917968,0.0002863346092421,0.0168775297431383,1.0136811596581348,0.98895512852,1.03551728052,0.0001154300249628,0.0107159666821046,Null
0.6000326948517544,0.56176757812,0.62854003906,0.0002115120408403,0.0145008664679337,0.8011024876611111,0.77880859375,0.84448242187,0.0002297246972726,0.0151122889725666,0.1643701742930994,0.10363769531,0.19738769531,0.0005486317135334,0.0233543002665404,1.0147151983002338,0.98299391304,1.04321753288,0.0001600669746384,0.0126147100822511,Null
0.3214035034155729,-0.32763671875,0.62475585937,0.0952771722049884,0.3078651278288717,0.4372844696032812,-0.35693359375,0.97473144531,0.2565646317007986,0.5052013040139118,-0.2766329447440104,-1.02722167968,0.28601074218,0.3057458252438906,0.5515010417675976,1.0121996309506252,0.94200136044,1.08129523133,0.0006617527965229,0.0256574778061752,Null
0.1143829928817197,-0.08215332031,0.28540039062,0.0089673982496704,0.0943942851202699,-0.2788980083066879,-0.53991699218,-0.17687988281,0.0104900582061128,0.1020942826447645,-0.9706043802207645,-1.09851074218,-0.82775878906,0.003141318974913,0.055868690460749,1.0265230346792995,0.93077351746,1.12998907171,0.001656273978944,0.0405675296654182,Null
0.0528590152129473,-0.13037109375,0.20007324218,0.0106379968392113,0.102868884421689,-0.3888292814512104,-0.53479003906,-0.28918457031,0.0032835132135083,0.0571509541916511,-0.9298693205145788,-1.0087890625,-0.77685546875,0.0024037201473073,0.0488985581447682,1.0162619933397896,0.85568098805,1.11462762631,0.0020938397963543,0.0456379183015598,Null
0.0862006455808383,-0.06921386718,0.20336914062,0.0051560089485005,0.0715900457006402,-0.3438494105497006,-0.48315429687,-0.14416503906,0.0063551529025701,0.0794801742245848,-0.9533983790194012,-1.14392089843,-0.82348632812,0.0078022308037358,0.0880653783209002,1.0229496307415566,0.90091335985,1.20766369444,0.0074478319108514,0.0860420485284845,Null
-0.8370174485773978,-1.25854492187,0.10119628906,0.1470791044455505,0.3825293463924573,0.1576338787446428,-0.42834472656,0.98315429687,0.0821192670907574,0.2858326280155112,-0.190470792809847,-1.14465332031,0.17651367187,0.1681320887152161,0.40899177490025,1.066278173323112,0.81339622549,1.3658447211,0.0201828667948877,0.1417035390691062,Null
-0.2504615992145354,-1.34191894531,1.06677246093,0.6268135175925416,0.7895494329767414,0.4124208877629508,-0.57373046875,1.47265625,0.2372435306152462,0.4857438809492548,-0.3214451524054644,-0.85595703125,0.10290527343,0.063185406810403,0.2506793397217882,1.0770964592765573,0.43188888866,1.81166545794,0.0987272543122914,0.3133492637925421,stairs down
-0.4449589900184971,-2.02392578125,1.06970214843,0.7891529360184413,0.8857716174915489,0.1565562341941618,-0.82653808593,0.88562011718,0.1651817800348019,0.4052492715079475,-0.2496387283210982,-0.87194824218,0.49951171875,0.0985961572635631,0.3130914200028175,1.0968111686987865,0.26563313415,2.13130057546,0.1321165139152955,0.3624263161583453,stairs down
-1.1251412436563872,-1.97863769531,-0.39624023437,0.0879510753478828,0.2957880973156301,0.2530754049387435,-0.41174316406,0.97412109375,0.1092702523515348,0.3296940351135957,-0.0273731491338219,-1.01794433593,0.24450683593,0.0612064917544605,0.2467509653842306,1.231829857429372,0.67429613087,2.03241985818,0.0707798396979515,0.2653474413311703,stairs down
-1.247272537412048,-1.91625976562,-0.19250488281,0.1183055813954164,0.3429182076970292,0.3109873576313253,-0.89013671875,1.29248046875,0.2406185908329693,0.4890491603608355,0.0594048557502409,-0.45422363281,0.64184570312,0.0446592939638723,0.2106899667106238,1.4035847688683736,0.6164380243,1.92380924893,0.0875603652463093,0.295013377944988,stairs down
-0.6950955563843005,-1.68920898437,0.01281738281,0.1422000151295623,0.3761159761116297,0.1388559292005181,-0.52075195312,1.31628417968,0.1443935743071752,0.3790058325044919,-0.6038268094209326,-1.17053222656,0.32141113281,0.1536313197395253,0.3909415589813935,1.113087509373057,0.73944313215,1.85750454499,0.0663696491243221,0.2569547916112251,stairs down
-0.7217969301693785,-1.67309570312,-0.09875488281,0.1718758843100754,0.4134063789012371,0.3272780941000001,-0.41748046875,0.96655273437,0.0872102515520336,0.2944784173185344,-0.504546257059435,-0.93884277343,0.28527832031,0.1636501061757197,0.4033925250976652,1.1255080695590962,0.79018529946,1.75715852228,0.0364541273605345,0.1903895265993475,stairs down
-1.2458686418396236,-1.76037597656,-0.57946777343,0.0638925681631071,0.2520893883766683,0.2856707829277419,-0.19763183593,1.18835449218,0.1161944268023795,0.3399554758832572,0.1204269573239247,-0.35107421875,0.71594238281,0.0537506632084049,0.2312178218653239,1.3514868211841935,0.91640026744,1.90917040732,0.0546568134519877,0.233158657605126,stairs down
-1.213953564735497,-1.70361328125,-0.79870605468,0.0408216950982473,0.2014521574347113,0.1539941977329824,-0.24560546875,0.583984375,0.0443149239407961,0.2098946696293242,0.13043962445,-0.14819335937,0.63488769531,0.0319668026615613,0.1782690727387098,1.2598803453997074,0.81129368767,1.71230927,0.0437881586419874,0.2086434459522223,stairs down
-1.1310177364823244,-1.48559570312,-0.67578125,0.0408837016708017,0.2016499657545158,0.2781659100487027,-0.06970214843,0.95642089843,0.0799306078784494,0.2819548732307457,0.0474912901174053,-0.505859375,0.3017578125,0.0283992080384794,0.1680645673717069,1.2104825870416756,0.69853514814,1.6497649999,0.0421997878521445,0.2048699121168883,stairs down
-0.7908902375561958,-1.76489257812,0.31616210937,0.2350266426669589,0.483476290997617,0.4836638077415216,-0.05041503906,1.33190917968,0.121200342845141,0.3471910789891904,-0.1573990531580434,-0.93090820312,0.18591308593,0.0586054802750475,0.2414269500906527,1.112551363325652,0.72701251542,1.77812317745,0.0593424273884352,0.242940145295311,stairs down
-0.7743317522290285,-1.76489257812,0.14599609375,0.2445416581034202,0.4930966205521714,0.4605280412914284,-0.01794433593,1.24011230468,0.1273853982684652,0.355889704412661,-0.0747467912945142,-0.58959960937,0.19909667968,0.0342108891972916,0.1844326391989187,1.0759774722882858,0.63154673258,1.77812317745,0.063716553160639,0.2516991429686436,stairs down
-1.2075265873338727,-1.74328613281,-0.72741699218,0.0786032499465034,0.2795512402057445,0.2739095522464739,-0.19934082031,1.09387207031,0.0835298136857609,0.2881787334151839,0.0081871782431214,-0.26196289062,0.24389648437,0.0118930084379484,0.1087394258051525,1.269662337545029,0.73028228542,1.87807056217,0.0947392471595442,0.3069065353709818,stairs down
-1.2467742414065748,-1.70617675781,-0.78454589843,0.0413160657093641,0.2027012583901709,0.2428383168575138,-0.19934082031,0.64807128906,0.0484044629749874,0.2194015382871094,0.0685495618934254,-0.18530273437,0.32263183593,0.0115465456110346,0.1071576060826315,1.2946243460457458,0.78895984586,1.73391774739,0.0430085059810721,0.206811242261943,stairs down
-1.2220894478431894,-1.5859375,-0.83117675781,0.028791352333571,0.1692209307445099,0.192418443832054,-0.16967773437,0.60278320312,0.0461226335868622,0.2141805828126355,0.0616705817126486,-0.12475585937,0.25598144531,0.0076619814426827,0.0872958494246796,1.2592719931836216,0.83221059308,1.60035757468,0.0308612120334904,0.1751981582983886,stairs down
-1.1952690036778162,-1.72717285156,-0.72521972656,0.0639293834573224,0.252114999965428,0.1658184884593678,-0.59301757812,0.62841796875,0.1023411054129889,0.3189873636063042,0.0454326059612068,-0.16284179687,0.19201660156,0.006090549729363,0.0778173924646599,1.2532079041441957,0.73180455959,1.78699987941,0.0594097260682962,0.2430396898883126,stairs down
-0.2379249750180232,-1.73547363281,1.21362304687,0.90177780658049,0.9468552752961694,0.1997829703384883,-0.53186035156,0.97985839843,0.1093944637409132,0.3297854596807418,-0.2176747876523255,-0.92822265625,0.13134765625,0.057033379755852,0.2381213773239749,1.0661503207311045,0.58373918776,1.77148330671,0.0730602899134547,0.269509778646436,stairs down
-0.6103228793102732,-1.65368652343,1.0361328125,0.6382876268485161,0.7967431934565173,0.201670162012459,-0.52526855468,1.505859375,0.1617235156325524,0.4010483519158893,-0.0643090420086885,-0.92822265625,0.76354980468,0.1393471000795472,0.3722709235439574,1.1107750422883609,0.51239705447,1.86437887575,0.1183511948192514,0.3430808461262579,stairs down
-1.3200010557392974,-2.0009765625,-0.73278808593,0.0789928868544297,0.2802960903702338,0.2182815139341621,-0.18151855468,0.81811523437,0.0691364570416453,0.262226517467326,0.1452993032074594,-0.173828125,0.59765625,0.0324399319217348,0.1796234420624827,1.381429286679135,0.73845551467,2.00422491176,0.0828557143007113,0.2870676672402546,stairs down
-1.284403365467052,-1.65905761718,-0.84680175781,0.0482952165169839,0.2191256566806582,0.1864126569261849,-0.16186523437,0.66918945312,0.0632083613951569,0.2506850516969807,0.0985170926653757,-0.19494628906,0.40234375,0.0250760776465124,0.1578959442823343,1.3347504346036416,0.84987328475,1.67857710042,0.048660028377964,0.2199517141047758,stairs down
-1.214762586224415,-1.68322753906,-0.80944824218,0.052817538132741,0.2292086250143548,0.1462356892014893,-0.11218261718,0.50708007812,0.0309532486125095,0.1754668164442532,0.031318177566968,-0.27990722656,0.36486816406,0.013171792854819,0.1144627892673766,1.2401998789379254,0.81560606733,1.71260554726,0.0565725527091632,0.237216430450346,stairs down
-1.1359552688113017,-1.65051269531,-0.61584472656,0.06394754403918,0.2521292450403735,0.2288471650774556,-0.19555664062,0.626953125,0.0427139408850678,0.2060611454707805,-0.0172364725866863,-0.32385253906,0.3046875,0.0177785732166682,0.1329412447609147,1.1850980072608286,0.62533094465,1.71284105061,0.0626798198191564,0.2496175741235997,stairs down
-0.757113086929847,-1.61999511718,-0.03503417968,0.1109922275071767,0.3323039882880435,0.078260149272704,-0.2041015625,0.3623046875,0.0149970558013829,0.122149663161875,-0.5946773606870408,-1.18579101562,0.10180664062,0.0943618859353287,0.3063991640683458,1.0601643298836734,0.77837195518,1.638590564,0.0284095093827141,0.1681206795913926,stairs down
-0.9252768462527672,-1.48510742187,-0.21630859375,0.1203333833768712,0.3457984523460758,0.0849210151328301,-0.48559570312,0.60583496093,0.063136184232311,0.2504777461424687,-0.4455113440916353,-1.12036132812,0.16137695312,0.1275688424042297,0.3560428662965754,1.1491362057194967,0.71642670181,1.56497742705,0.0507163236259256,0.2244935478740609,stairs down
-1.3038447810872589,-1.65869140625,-0.87646484375,0.0309506876103509,0.1754809890585254,0.1865748681380203,-0.34912109375,0.67980957031,0.0799529318306322,0.2820409179264446,0.0328468284011167,-0.18298339843,0.32983398437,0.013407940059593,0.1154983958769707,1.3516069009577665,0.90343449051,1.69002327091,0.0329066692960787,0.1809409582312468,stairs down
-1.1876484263989204,-1.89611816406,-0.63342285156,0.0638104242764252,0.2518885965016715,0.1791603781929545,-0.05529785156,0.56127929687,0.0243415744114696,0.155574001720739,0.0511141690322159,-0.12524414062,0.29772949218,0.0107030026319046,0.1031609912561461,1.216268845656932,0.63546351875,1.90253432648,0.0645701804014274,0.2533837097692339,stairs down
-0.6348936661398914,-1.54553222656,0.05505371093,0.1646429533641828,0.4046580713449255,0.2736060101029348,-0.11657714843,1.29467773437,0.0971883010471417,0.3109020806602008,-0.4784419847551086,-1.21008300781,0.15563964843,0.1808377315452547,0.4240930532169286,1.0396381947523914,0.55249108395,1.74783435147,0.0666346941834009,0.2574345530543971,stairs down
-0.6913838446855064,-1.19702148437,-0.30700683593,0.0451610363286337,0.2118376901894032,0.1161437215666455,-0.3681640625,0.4833984375,0.0601472694291766,0.2444720648841885,-0.7128782634446201,-0.98889160156,-0.3095703125,0.0242780819419134,0.1553203888594335,1.0554360715638604,0.84728641616,1.30348882604,0.0146097898038202,0.1204878532456507,stairs down
0.7630642820846327,0.07385253906,1.18444824218,0.0491369686604867,0.2210415315456682,-0.1296655687220904,-0.63232421875,0.35412597656,0.0510136085809624,0.2252229919504309,-0.4851722501730509,-0.82739257812,0.20458984375,0.0722351556870447,0.2680056855046626,0.9920431098060454,0.34931101934,1.21010096788,0.0218581334455449,0.1474267315183767,Null
-0.5582215682302718,-1.45642089843,0.92224121093,0.4912697538081228,0.6989991484214757,0.1111616051698913,-0.95483398437,0.93310546875,0.2522389708455476,0.5008673545696115,-0.1089378025204891,-0.51110839843,0.16174316406,0.0280699836401274,0.1670850962270833,1.0293389380091849,0.42659403715,1.68870045207,0.0439210644031516,0.2090032606592011,Null
-0.9172197895629676,-1.30517578125,-0.52172851562,0.0473916457223138,0.2169928412857591,0.2538101688470323,-0.0146484375,0.82263183593,0.0342285741434682,0.1844118885345117,-0.2028753465200645,-0.91357421875,0.44055175781,0.1251572916902251,0.3526327059310065,1.0604309316090323,0.7553259177,1.46361118595,0.0279803713091959,0.1667328785351602,Null
-1.3082813005952851,-2.25952148437,-0.4853515625,0.1472892844715135,0.3827873137359091,0.2682435030741451,-0.36645507812,1.05810546875,0.0965052253074944,0.3098470561960568,0.0602597251448704,-0.50463867187,0.38452148437,0.0276576157991765,0.165874386480772,1.374024871433938,0.60860420041,2.48951676444,0.1701687669200531,0.4114450916762877,Null
-1.3281449881171346,-1.89184570312,-0.88549804687,0.0612378793092533,0.2467382480605365,0.2075423748153801,-0.17114257812,0.59191894531,0.0467659490953003,0.2156211121687107,0.0593818530673099,-0.201171875,0.27429199218,0.0123785385679094,0.1109330854771342,1.3652232012121637,0.89128781634,1.92320655424,0.0668038041945758,0.2577074672433264,Null
-0.8171060771809424,-2.02233886718,0.76147460937,0.4116367711322306,0.6399074970581483,0.1940368332757068,-1.4189453125,1.41076660156,0.2527912449877318,0.5014655826834662,0.0845685229867015,-0.70837402343,1.2353515625,0.2063837848341681,0.4531040073295236,1.1894434304537174,0.59610973301,2.48964651611,0.1648042210583237,0.4048967420632216,Null
0.0974190627463924,-0.93298339843,0.89709472656,0.4360561796459501,0.6582524822647345,0.2320479380922784,-0.40832519531,0.98376464843,0.1083123689002938,0.3280653099279778,-0.0255930453903797,-0.84521484375,0.84240722656,0.4094795248210812,0.6378776389394148,1.0010248747842403,0.70181306727,1.35585285867,0.0098140981860271,0.0987521323341725,Null
-0.6088145266255376,-0.77856445312,-0.42163085937,0.0072178234077051,0.0847290853574686,-0.1542200888325806,-0.34020996093,0.79919433593,0.0620975086323574,0.2485229386979504,0.7440789335482796,0.4189453125,0.88513183593,0.0059114131165399,0.0766787540691083,1.0107055558699465,0.95929980092,1.19590150121,0.0013965107290981,0.0372693252809692,Null
-0.2426432291646666,-0.54138183593,0.43835449218,0.0972424768683031,0.3110366497693603,0.905589568306,0.72741699218,1.10217285156,0.0069869749923965,0.0833735230838295,0.008139898838564,-0.34802246093,0.5341796875,0.064970039235684,0.2542378011769609,1.0197083363466668,0.7447297375,1.22496702821,0.0076001461305018,0.0869549942334557,lift up
-0.3175245960280124,-0.86108398437,0.63928222656,0.1123107977008099,0.3340856403774263,0.7692203877094409,0.12133789062,1.15563964843,0.0468778565433993,0.21583949993588,0.153032196233354,-0.58227539062,0.66467285156,0.1730056720856569,0.4146457556684025,1.0122392836098135,0.56977715906,1.32131729039,0.0215773883321747,0.1464355396979615,lift up
-0.3656125123436207,-0.51635742187,-0.25256347656,0.0047405464921203,0.0686534920601328,0.8157994062009196,0.59912109375,0.98413085937,0.0088685830941251,0.0939021524022112,0.4468229447252873,0.10083007812,0.81042480468,0.0275600270660092,0.1655343955371807,1.0190840892738504,0.92587359486,1.09754257699,0.0012593331151636,0.0353849624632387,lift up
-0.3620998806391111,-0.40002441406,-0.3251953125,0.0003666036381337,0.0190936364073273,0.7713046603687221,0.74279785156,0.80993652343,0.0004043032054967,0.0200513609657139,0.5619750976523888,0.49584960937,0.59985351562,0.0007305851029239,0.0269541517543508,1.0213990445497223,1.00685812243,1.04596625926,8.080407961209646e-05,0.0089641044203364,lift up
-0.3438344594554053,-0.40393066406,-0.29956054687,0.0006392753187263,0.0252154670086226,0.6778867979270812,0.6025390625,0.82507324218,0.00555548189787,0.0743333859446056,0.6235166807395676,0.11633300781,0.75988769531,0.0215990517257197,0.1465684143830787,0.9961765366407028,0.84896978222,1.0650080503,0.0018113686399702,0.0424449933223292,lift up
-0.3281101822122543,-0.37170410156,-0.27209472656,0.0004515993084744,0.0211893583632778,0.6221705089373988,0.59582519531,0.65014648437,0.000199496178159,0.0140834307276257,0.7385818393206357,0.71459960937,0.78308105468,0.0002232809924302,0.0148993406181456,1.02031427582,1.00203407064,1.04613905275,8.415451956116076e-05,0.0091470255958731,lift up
-0.3873284556842327,-0.50439453125,-0.26184082031,0.0035684883114955,0.0595785818978475,0.5783562231286773,0.46044921875,0.65234375,0.0013410894385617,0.0365238788636502,0.7490828579662964,0.615234375,0.81640625,0.0022098161452016,0.0468841550663466,1.0257296402710578,0.95078037672,1.10253287922,0.0006080288118828,0.0245929202865797,Null
-0.428158230248111,-0.58972167968,-0.23876953125,0.0064910004974389,0.0803426373948742,0.7353407118023332,0.63110351562,0.80151367187,0.0019127563872315,0.0436134149414832,0.5636522081126111,0.4677734375,0.71203613281,0.0032710255131374,0.0570337895389706,1.0261735748298335,0.97566401538,1.08090264027,0.0003287876912217,0.0180820655052773,Null
-0.3385711869352941,-0.3642578125,-0.306640625,0.0001692185066271,0.0129658205801195,0.6793532028654248,0.65454101562,0.73364257812,0.0002707111151604,0.0163994439377264,0.6931287977395425,0.67053222656,0.72912597656,0.0002306898870583,0.0151387618390251,1.028026504653072,1.00578927101,1.08811428572,0.0004091695406226,0.020161726858074,lift up
-0.3436431884726041,-0.4287109375,-0.25939941406,0.0011641346503135,0.0340304488511364,0.6557006835899478,0.58862304687,0.71984863281,0.0012683865287376,0.0355215476703995,0.7058715820275001,0.67114257812,0.73913574218,0.0002925417810262,0.0170592533809888,1.0236779205459374,0.96884001036,1.09110819024,0.0010887733650872,0.0329105252233605,lift up
-0.3510499517562048,-0.41357421875,-0.30590820312,0.0004873664487318,0.0220097820586574,0.6396366716828915,0.59838867187,0.67858886718,0.0003936982929373,0.0197819770618071,0.6886729045042769,0.66516113281,0.71508789062,0.0001668293862958,0.0128772819334244,1.003617465568253,0.95976100791,1.03126848088,0.0004377109223393,0.020858430179526,lift up
-0.3599268076332652,-0.38391113281,-0.34777832031,5.433979083270097e-05,0.0073527237811522,0.6444471709547448,0.62426757812,0.65966796875,6.093214837424127e-05,0.0077859662256016,0.6982035734179083,0.68591308593,0.71069335937,3.3771410030326104e-05,0.0057964736623162,1.0161051437642346,1.00668979919,1.02607245891,2.64476168530214e-05,0.0051295886806197,lift up
-0.4431786300029834,-1.1923828125,-0.23889160156,0.0249563004559488,0.1575386312716109,0.6180386200753037,0.25048828125,0.88635253906,0.0184063632341912,0.1352947545902562,0.5039655990996132,-0.50048828125,0.83264160156,0.1577005339326979,0.3960167424043603,1.0114647096153038,0.70287708574,1.27890069082,0.0093032506777435,0.0961865453310823,Null
-1.0247147042379428,-1.291015625,-0.298828125,0.0545168556280592,0.2328203829967557,0.1740339006660571,-0.19714355468,0.39697265625,0.0155886634079926,0.1244973306194776,-0.0248297991085142,-0.54040527343,0.25012207031,0.0475138335202707,0.2173529983693688,1.079199085577714,0.61352847516,1.34322762316,0.0334120442106025,0.1822666130800833,Null
-1.0076923673080422,-1.15734863281,-0.96301269531,0.0010624844147023,0.0325094263874736,0.1405791428942328,-0.4599609375,0.259765625,0.0109557991590147,0.1043926815811205,0.0432445384814285,-0.02722167968,0.14526367187,0.0019814632273237,0.0443957125734459,1.0244784817276722,0.97192670279,1.20742984474,0.0014536987248004,0.0380264013174526,Null
-1.00483237625988,-1.14306640625,-0.81481933593,0.0028952238512546,0.0536459428241001,0.1425349983598204,-0.0400390625,0.228515625,0.0038709220536563,0.0620301771695227,0.0275425711065269,-0.19970703125,0.17248535156,0.0054369185504507,0.0735143669764291,1.0197050856582637,0.8159070291,1.16623428824,0.0031130951405846,0.0556278154551986,Null
-1.086334579288908,-1.32751464843,-0.82385253906,0.0145160599657844,0.1201358994380828,0.1896088698779885,-0.1923828125,0.45239257812,0.0176522684194604,0.1324795025691061,0.1229458512897701,-0.0458984375,0.34973144531,0.0087957074555992,0.0935155463693123,1.1195945143020116,0.843213202,1.35314014725,0.0166282511544447,0.1285794948373867,Null
-1.1432016733492432,-1.453125,-0.81188964843,0.0251556140769253,0.1581759709457087,0.1706714526994594,-0.17919921875,0.44384765625,0.0189435176181207,0.1372629601370683,0.0848942937063243,-0.140625,0.32531738281,0.013995529019155,0.1179825305328863,1.172927317601297,0.82915363664,1.51241814651,0.0254053210223835,0.1589590983957919,stairs up
-1.0975010160728322,-1.38684082031,-0.77880859375,0.0239234913427179,0.154224528741677,0.2241373227484971,-0.15869140625,0.60205078125,0.0286593288128401,0.1688006752138459,-0.0375750767683237,-0.35205078125,0.18725585937,0.0147248283093285,0.1209946845726031,1.1372109576980347,0.79184867414,1.45584202114,0.0300011477676625,0.172707066238018,stairs up
-1.063861611444877,-1.31079101562,-0.83825683593,0.0194707238102342,0.1391061974071775,0.1447226441908024,-0.10131835937,0.28271484375,0.0088818363660068,0.0939521698291176,0.0055104950332098,-0.21984863281,0.16076660156,0.0096970803737161,0.0981693529208107,1.0822273732637655,0.8510391482,1.31835200554,0.0194955593446092,0.1391948863489314,stairs up
-1.0403109757325395,-1.31860351562,-0.85180664062,0.017484490638193,0.1318786567482237,0.1647910466227513,-0.02722167968,0.37243652343,0.0088973118115353,0.0940756933945467,0.0480918278762433,-0.20031738281,0.27404785156,0.0166320929026646,0.1286238407571325,1.0663490590968256,0.87558350521,1.33992322791,0.0174943948862318,0.1319160033897551,stairs up
-1.039491780595389,-1.45483398437,-0.85314941406,0.014578487699105,0.1204055484634186,0.1895453558997222,0.04248046875,0.55334472656,0.0109663863126191,0.1044292197817051,0.0616292317678888,-0.12890625,0.23815917968,0.0069547987180834,0.0831634592079203,1.066550504567389,0.86793178544,1.45902206188,0.0146763030184421,0.1208088076328586,stairs up
-0.6910536024270555,-1.361328125,-0.29125976562,0.1085058936675486,0.3284860471118573,0.33854370117,-0.33984375,1.09948730468,0.1552087761941366,0.3928695778693997,0.3255995008657221,-0.16943359375,1.11486816406,0.1404983300209282,0.373788421092781,1.0414541682546112,0.83304447393,1.39023102848,0.0156092596337258,0.1245894920314293,Null
-0.5820827731802597,-0.73083496093,-0.49987792968,0.0043596060023037,0.0658125890116678,-0.3787643630746104,-0.51318359375,-0.22888183593,0.0051111782437088,0.0712600082416066,0.730188939474935,0.64697265625,0.79138183593,0.001738350555967,0.0415579422655157,1.0130065410866236,0.96888123669,1.05556270878,0.0004154787442319,0.0203170083995733,Null
-0.5603160858118749,-0.88916015625,-0.19189453125,0.025780195863934,0.1601434482283807,-0.5058377583781771,-0.75622558593,-0.18298339843,0.0143654341768616,0.1195433570182405,0.6641928354857812,0.36218261718,0.90844726562,0.0133617175592298,0.1152914796516876,1.0277816565934896,0.83479331492,1.22875751606,0.0079128190016378,0.0887220739312994,Null
-0.5332864200334118,-0.6962890625,-0.39660644531,0.0049425738138854,0.0700963611771278,-0.3373707490775882,-0.48645019531,-0.11962890625,0.0097911439537707,0.0986587501914392,0.7808557846931176,0.62390136718,0.97839355468,0.0063213912387652,0.0792729877349122,1.013286547176647,0.91103367404,1.12122602712,0.0021434217126086,0.0461607338502462,Null
-0.5339534419959162,-0.62890625,-0.48034667968,0.0014770738306694,0.0383319769882564,-0.3605298746284293,-0.44104003906,-0.24438476562,0.0020197427159591,0.0448237453451365,0.7787881421759161,0.67797851562,0.84997558593,0.0010662953036751,0.0325685831093419,1.0127807909046074,0.96002045735,1.05042747299,0.0004155053215777,0.0203305164972728,Null
-0.5111382062999418,-0.58947753906,-0.43823242187,0.0014348550972735,0.0377692059285793,-0.3740596327631977,-0.4423828125,-0.29467773437,0.0006486330706871,0.025394132160464,0.7886785462806977,0.72644042968,0.85424804687,0.0005455978577431,0.023290036006302,1.0126079257466278,0.98234343168,1.07823640828,0.0004382615597609,0.0208737521168761,Null
-0.5617853937884324,-0.74340820312,-0.37866210937,0.006382985693212,0.0796773686051652,-0.386018000418054,-0.47436523437,-0.32800292968,0.0007826779480391,0.0279006676699352,0.7435513882986485,0.53125,0.904296875,0.0059872995628795,0.0771682303895756,1.0147240181715136,0.95640738257,1.12322655608,0.0009033081634867,0.0299737454559335,Null
-0.5967083706842076,-1.47351074218,-0.31811523437,0.0612311717653295,0.2467723144890972,-0.1918451694822951,-0.52587890625,0.67199707031,0.1132319633491616,0.3355789168751201,0.6776276468542622,0.01232910156,1.16149902343,0.0645835907338866,0.2534377141183344,1.028930641289945,0.59220455467,1.57516376347,0.0312576784683514,0.1763146944590428,Null
-1.128035714282,-1.40808105468,-0.81372070312,0.019930293503427,0.140770757304132,0.1655803571401142,-0.07275390625,0.44848632812,0.019613799777208,0.139648562188582,0.0970542689700571,-0.05456542968,0.35791015625,0.0083637978474518,0.0911921307838288,1.1556792897546289,0.81423813797,1.42766472767,0.0214631158510429,0.1460837755356538,Null
-0.2485672082307262,-1.673828125,0.99182128906,0.9688094103080136,0.9815279248364088,0.3196250872872625,-0.01098632812,0.57690429687,0.0316654021539278,0.1774499942685744,0.0289784010569273,-0.19921875,0.58752441406,0.0349849449626611,0.1865194315420193,1.0658962523444135,0.58940635025,1.83422087098,0.0586535197342962,0.2415074459301228,Null
0.2544607388766102,-0.93884277343,1.11694335937,0.4965680231313001,0.7026823991491896,0.3906174137070621,-0.55822753906,1.25817871093,0.2308885704298026,0.4791493663041142,-0.0123725503171751,-0.44030761718,0.56616210937,0.0999105068560178,0.3151920695632876,1.004213221963277,0.60246480425,1.48511793718,0.0319141322070112,0.1781399067456059,Null
-0.237606310965873,-0.49780273437,-0.08947753906,0.005953526488181,0.0769547032222981,0.4109190279804761,0.27563476562,0.82995605468,0.0186287967854387,0.1361257937463796,0.8763763589171959,0.19909667968,0.95471191406,0.0253792335134626,0.1588866006139637,1.0208712975641798,0.9403292324,1.12325459425,0.0008703377332548,0.0294233371952137,Null
-0.2282348632775,-0.29479980468,-0.17651367187,0.0005901187658748,0.024224787476605,0.3404120551172778,0.28820800781,0.37487792968,0.0004539205578827,0.0212461473450051,0.9287828233465556,0.89575195312,0.95080566406,0.0001220286539937,0.0110159301480667,1.0156766832095,0.9785824218,1.042770324,0.0001704650661909,0.0130199092948225,lift down
-0.2233691406214286,-0.29577636718,-0.2001953125,0.0004751192015916,0.0217348621970656,0.3631968470941142,0.30895996093,0.59704589843,0.0045954635891037,0.0675958859485253,0.8951625278978856,0.62145996093,0.99340820312,0.0044335218387962,0.0663941821870626,0.9953739083506288,0.87447970111,1.11920638498,0.001815927273371,0.0424917703337319,lift down
-0.2295445033442328,-0.27209472656,-0.19982910156,0.0002044675741521,0.0142613370739042,0.3544967086183597,0.31909179687,0.41235351562,0.0002393264989981,0.0154292002782284,0.9255978215897356,0.91235351562,0.95361328125,9.171785577736892e-05,0.0095515745360213,1.0176075518915346,0.99932417533,1.04508578004,9.799010186131428e-05,0.0098727724431336,lift down
-0.2235427129794643,-0.26550292968,-0.18530273437,0.0002686285398015,0.0163410391468215,0.3427211216480357,0.31909179687,0.37292480468,0.0001516007683715,0.0122759269648153,0.9301118396539284,0.91357421875,0.95043945312,6.372485195196678e-05,0.0079589909760606,1.0163461627166073,0.99958493142,1.03233659459,5.904850651103416e-05,0.007661398521524,lift down
-0.0620418934322471,-0.41528320312,0.92590332031,0.150018821589156,0.3862331151269627,0.4618674288937078,0.15356445312,1.10705566406,0.0727045620248297,0.2688793585033716,0.5529181662553933,-0.31652832031,1.10473632812,0.2742899148192088,0.5222537316684035,1.002900426756011,0.75645037274,1.26233117325,0.0113648875767853,0.1063063492636714,lift down
0.0412878829458989,-0.52319335937,0.99499511718,0.2852734480127731,0.5326075367402124,0.5114416915347754,0.00598144531,1.19799804687,0.1216785282278887,0.3478432707278572,0.2693200272114606,-0.41784667968,1.01062011718,0.2659310759968893,0.514234461299433,0.9939914893802246,0.49144673991,1.21127982069,0.0169897476092855,0.1299780734932192,lift down
-0.2422433406709574,-0.30517578125,-0.16638183593,0.0008001318478282,0.0282112712822559,0.3152374916854787,0.26379394531,0.35498046875,0.0004578890932574,0.0213413568681608,0.9467279961726596,0.92565917968,1.01220703125,0.0004919197849726,0.0221201986964793,1.027509615025,1.00612899722,1.07362178514,0.0003167192399874,0.0177492130298493,lift down
-0.2719213722686982,-0.31530761718,-0.20007324218,0.0008292280821536,0.0287109980166373,0.2877334504402367,0.2587890625,0.33178710937,0.0003476819523367,0.0185909833703849,0.9575245874126628,0.91796875,1.01794433593,0.0005766139773311,0.0239416386303338,1.0367044506563905,0.99032316242,1.08981863286,0.0005755423964471,0.0239193816838314,lift down
-0.2556244721244864,-0.29248046875,-0.19848632812,0.0003720308889532,0.0192359016210598,0.2768336940423243,0.25402832031,0.3076171875,0.0001537906016967,0.0123676716138079,0.9430914801484324,0.92358398437,0.97448730468,0.0001333675788198,0.0115172337385505,1.0158395010948649,0.99713974429,1.05060052558,0.0001287345983017,0.0113154202576941,Null
-0.4995828146421977,-1.13342285156,-0.16967773437,0.0745029028164011,0.2722012972186574,0.3622483473518131,0.14025878906,0.86254882812,0.036674674804362,0.1909794900038751,0.6786894745841758,0.05480957031,0.9765625,0.0962961816962793,0.3094625692985328,1.0211432330926924,0.80233243174,1.15872410319,0.0050543188577253,0.070898151421533,Null
-0.9333276641471908,-1.42407226562,-0.3154296875,0.0949008630030152,0.3071932813185666,0.3309285024550562,-0.01403808593,1.05615234375,0.1034978562318151,0.320805872142795,0.0596862107160112,-0.30261230468,0.6357421875,0.0374130940481853,0.1928805540394529,1.0922378730757305,0.70986385809,1.50559821628,0.0258251879057831,0.160250125056019,Null
-0.4341390509317763,-0.56030273437,-0.24877929687,0.0078610761904312,0.0883705753286426,0.9028938694960528,0.74060058593,1.14221191406,0.0070605958923342,0.0837504901691261,0.005886680202171,-0.31970214843,0.52478027343,0.0585536128220683,0.2411812423989085,1.035012161309408,0.91089572254,1.25134237451,0.005506656942648,0.0739623480998706,Null
-0.9206966477957652,-1.36108398437,-0.33728027343,0.0757749145158838,0.2745693133057118,0.3355949557517346,-0.03820800781,0.96887207031,0.0832300052147687,0.2877592089421639,0.0769964724158163,-0.28491210937,0.50988769531,0.0461132916296371,0.2141915491646848,1.0704380551,0.64073340731,1.44946077798,0.0245942894896444,0.156425088847089,Null
-0.4642355275694186,-1.66662597656,0.80993652343,0.5244657115711353,0.7220917478532868,0.6079023494233139,0.01550292968,0.94689941406,0.0450984884681429,0.2117458097667891,0.0084938226738372,-0.56958007812,0.70837402343,0.1303902916592853,0.3600447313435415,1.0878161636844768,0.32265945414,1.98605818212,0.0982442066315562,0.312526829862171,Null
-0.5871963097265608,-0.64282226562,-0.55383300781,0.000331138088813,0.0181489954386752,0.7862774884221163,0.68969726562,0.81518554687,0.0006144816031121,0.024723073791478,0.2599477616528571,0.22094726562,0.39904785156,0.0017398105370017,0.0416005431484393,1.0164407292198414,0.97071107673,1.03565855255,0.0001247594365381,0.0111399880475398,Null
-0.5755715394591795,-0.59765625,-0.55541992187,8.519475356185537e-05,0.0092064030647013,0.8085593199084615,0.78796386718,0.86059570312,0.0002492062123492,0.0157457369396639,0.2514028695872307,0.22961425781,0.2734375,0.0001003274243609,0.009990641858704,1.0238966537598462,0.99680659648,1.07983487444,0.0003239765376156,0.0179531367586277,lift up
-0.5800823102650285,-0.60009765625,-0.56652832031,0.0001087287885702,0.0103974747514454,0.8137981305768001,0.7392578125,0.86108398437,0.0009628298462698,0.0309407168862325,0.2587562778976,0.24157714843,0.39929199218,0.0003675143932021,0.0191158131125841,1.0326399853479429,0.97700403531,1.08204660508,0.0008078219042315,0.0283408852907679,lift up
-0.5324017924608064,-1.18579101562,-0.24853515625,0.0604640377313364,0.2452324657537467,0.6819044543818816,0.16870117187,0.97387695312,0.0336121904820591,0.1828427733888948,0.2139052524348387,-0.36901855468,0.87683105468,0.1251012764981623,0.3527445095109315,0.9997153424714516,0.6912967358,1.27656631259,0.0133774583879736,0.1153496275186159,lift up
-0.2521127554055128,-0.41015625,-0.14025878906,0.0057132070325487,0.0753431079166852,0.623075045068782,0.33056640625,0.97204589843,0.0396516515066278,0.1984879700470038,0.7018526517391666,0.05139160156,1.01623535156,0.0864391751899928,0.2930615599377269,1.0341299488639744,0.84514496424,1.26989385854,0.0059530434546075,0.0769082760152776,lift up
-0.0669246897962353,-0.95849609375,0.98754882812,0.3731810876947051,0.6090861226673225,0.6674524643804117,0.17077636718,1.14599609375,0.0892105319492207,0.297801551564503,0.181549431294647,-0.37878417968,0.82751464843,0.0887211157464975,0.2969835463966677,1.0036908725721765,0.6183927092,1.33277832962,0.0235459359054077,0.1529948705025166,Null
-1.0113788805471051,-1.23010253906,-0.85168457031,0.0080698668761006,0.0895957247447793,0.2077154862222631,-0.01550292968,0.57275390625,0.0167216662844802,0.1289715376141647,0.1145790501607894,-0.05908203125,0.46899414062,0.0074234988172246,0.0859326932594236,1.0497428565607367,0.86301016542,1.26276339106,0.0092956607763309,0.0961599513619326,Null
-1.0364959133628024,-1.21313476562,-0.90393066406,0.0054794633902482,0.0737872776943695,0.1422756705283439,-0.10961914062,0.34924316406,0.0095344695113483,0.0973331413557608,0.0867585589141401,-0.09265136718,0.23205566406,0.006676898860479,0.0814516472654756,1.0573569030578982,0.9494135229,1.25461654509,0.0056784137779579,0.0751148822626647,Null
-1.128458875287713,-1.39807128906,-0.8857421875,0.0168121267360014,0.1293162809933804,0.1706426092887234,-0.03491210937,0.55725097656,0.023991201194372,0.1544784399910279,0.0985042490830319,-0.09533691406,0.24206542968,0.0077962604008947,0.0880612907620438,1.1577819673063832,0.89935638043,1.44023157858,0.0202310283207069,0.1418570282641547,Null
-1.1740999516707218,-1.8134765625,-0.56030273437,0.0996412247280894,0.3148453750138874,0.2454903199470103,-0.37292480468,0.59594726562,0.0479178155616101,0.2183364754509047,0.0899557526554639,-0.13305664062,0.37731933593,0.013257892072604,0.1148457766865863,1.2279270196325256,0.57228601308,1.84259767406,0.0995646646190273,0.3147243948255532,stairs down
-0.2071111231668518,-1.39099121093,0.41674804687,0.2942420764932809,0.5407640588825452,0.6430777090529629,0.16833496093,1.28039550781,0.0748150314983683,0.2726778507988496,0.2300038278825925,-0.76806640625,0.98474121093,0.2084679602687726,0.455171529214926,1.013820825786173,0.64940494158,1.43038049172,0.0558177036945371,0.2355273868747065,stairs down
-0.9902791341115,-1.56787109375,-0.64111328125,0.0712437935880288,0.2661728662631898,0.2593648274697223,0.0380859375,0.50756835937,0.0209314425688139,0.1442745881185074,-0.0140475802950555,-0.67980957031,0.20190429687,0.0228773312947903,0.1508318103379367,1.0459191408242776,0.67232571499,1.57622296369,0.0681953876262514,0.2604160601070163,stairs down
-1.1917055819862237,-1.74072265625,-0.59875488281,0.0600685107970341,0.2444360804826709,0.2069267110601063,-0.07043457031,0.5966796875,0.0383198972942458,0.1952333681861761,0.0579639191307446,-0.16674804687,0.20751953125,0.007736847139804,0.0877251030068991,1.2271671340218089,0.6000375865,1.75333871133,0.0663149975254848,0.256831186145579,Null
-1.0290382021909523,-1.42224121093,-0.91235351562,0.0129694008557391,0.1135438331267781,0.1547604515404761,-0.41955566406,0.36010742187,0.0237847674671184,0.1537634269593729,0.1116972423702976,-0.10083007812,0.30139160156,0.0108725523073239,0.1039607365021338,1.0627485040704765,0.93176622163,1.4784828394,0.0133349127059467,0.1151326983335064,Null
-1.054652060227957,-1.484375,-0.77392578125,0.0234736563648335,0.1527987366153896,0.1597559118743548,-0.0498046875,0.39465332031,0.0096517808904952,0.0979790263035157,0.0908682218138709,-0.03991699218,0.21496582031,0.0051527466601477,0.0715894106772413,1.0772927101727956,0.79668903985,1.48562633573,0.0237102314566593,0.153566783823811,stairs up
-1.062840582912486,-1.47436523437,-0.74987792968,0.0273696776912615,0.1649801927576749,0.1246877427886188,-0.14819335937,0.31323242187,0.0076086558101784,0.0869863152326074,0.0351245521841989,-0.23156738281,0.22045898437,0.0168365631488937,0.1293968448726176,1.0825639974039778,0.78543591619,1.48371332378,0.0261391050240288,0.1612286887596145,stairs up
-1.0349687118063686,-1.349609375,-0.75622558593,0.0265258983040404,0.1624121575746109,0.1158031271787709,-0.00952148437,0.24255371093,0.0029821360891269,0.0544561852407545,0.0466547278693854,-0.15393066406,0.16613769531,0.0058816920967464,0.0764776665548891,1.0470357034793294,0.76926043629,1.35276556769,0.0257996485890886,0.1601733950257213,stairs up
-0.683627259494183,-1.4189453125,0.03503417968,0.1785043056929284,0.421114724136402,0.5936534607290196,0.03210449218,1.33203125,0.1253554010571183,0.352896705439906,0.0369561887249019,-0.30285644531,0.50366210937,0.0387278357078539,0.1961497198536165,1.05650371439366,0.64900351719,1.48971586093,0.0455826567705614,0.2128020932916684,stairs up
-1.0327025721279366,-1.3447265625,-0.787109375,0.0254970837375454,0.1592550738048395,0.1399913969456614,-0.01586914062,0.35778808593,0.0071852967412938,0.084541583248826,0.0342158564803174,-0.21789550781,0.23852539062,0.0108707874856451,0.1039868746118527,1.0513638081201058,0.79292740737,1.37448269151,0.0253338308611874,0.1587444154232188,stairs up
-1.0437866941862275,-1.36584472656,-0.8203125,0.0278000019246701,0.1662333746492471,0.149739339675988,-0.04736328125,0.43640136718,0.0082743021755831,0.0906904375111778,0.0433517730156287,-0.17321777343,0.23425292968,0.0127231986608043,0.1124589340269422,1.0648246786102995,0.82613956216,1.39288832217,0.0286169741236129,0.1686582787684146,stairs up
-1.0335575025878572,-1.41088867187,-0.80847167968,0.0166905920596832,0.1288620812254175,0.1738916513833163,0.03002929687,0.36291503906,0.006292247536795,0.0791210732550812,0.0525730677995408,-0.0908203125,0.21533203125,0.0063776634247297,0.0796562886759353,1.0551444468530102,0.81990234475,1.42637014376,0.0172120624875309,0.1308596417624105,stairs up
-1.0726464229524526,-1.27551269531,-0.88916015625,0.0108714506152152,0.1039378502374132,0.1854693334764151,0.01696777343,0.44665527343,0.0125322350258521,0.1115948741548611,0.0648308520032075,-0.19482421875,0.2255859375,0.011835164999193,0.1084468994448349,1.1010921880349058,0.90059089502,1.30513122573,0.0118600694321789,0.1085609404921032,stairs up
-1.0978664420729587,-1.43713378906,-0.85583496093,0.0163745631713301,0.1275839812240979,0.1591710197823669,-0.05700683593,0.49328613281,0.0179579423958496,0.1336101881656971,0.0688303208186982,-0.17834472656,0.27001953125,0.0085377670637266,0.0921262597308096,1.1232194505304736,0.87038529672,1.43762352143,0.0164759101524635,0.127978199549163,stairs up
-1.0583403214126086,-1.43713378906,-0.76379394531,0.0218601722644899,0.1474495404551801,0.1435188625138043,-0.05969238281,0.35412597656,0.0096130395643388,0.0977793167500051,0.0240704080333152,-0.15710449218,0.2802734375,0.010490661249752,0.1021452240020949,1.0781125186538043,0.79617452688,1.43762352143,0.0207834435372952,0.1437723549219736,stairs up
-1.046580555670934,-1.52941894531,-0.74938964843,0.0294584054062873,0.1711623382520906,0.1183270464865384,-0.15637207031,0.42614746093,0.0132528942386479,0.1148045127093685,0.042656867056923,-0.20678710937,0.2802734375,0.0123067169676382,0.1106304553169706,1.0659253281443406,0.75837131425,1.5440348069,0.0298345987489305,0.1722517703310422,stairs up
-1.0522281625136722,-1.3505859375,-0.77404785156,0.0282626602612538,0.167639447071923,0.1061122053735593,-0.20568847656,0.24731445312,0.0100513137012262,0.0999726293450788,0.0439680713706214,-0.18542480468,0.22094726562,0.0086531685532179,0.0927592615068175,1.0673919071516382,0.78813224193,1.36129494165,0.0279110951936703,0.1665935334588838,stairs up
-1.0336523118322878,-1.44372558593,-0.80554199218,0.0242713400902511,0.1552826580159901,0.0959839665004575,-0.09387207031,0.26550292968,0.0082136126101134,0.0903323245995787,0.0053663066790196,-0.23327636718,0.18041992187,0.0120202326223746,0.1092779438425872,1.0478279088318954,0.80842023637,1.45319288874,0.0241073605080424,0.1547572165046835,stairs up
-1.0470052083295898,-1.82800292968,-0.64477539062,0.0698894353051846,0.2636873678139422,0.0922532301658974,-0.29040527343,0.30041503906,0.013475146156456,0.1157844671915589,0.0615303235156923,-0.18713378906,0.24084472656,0.012730836589663,0.1125413268456417,1.0652750379737947,0.64985145237,1.83661977792,0.0696655190347944,0.2632646196563852,stairs up
-1.0609572838052297,-1.23828125,-0.66784667968,0.0186017459003615,0.1359957327077849,0.1504397337422414,-0.15270996093,0.38891601562,0.0130641479226922,0.113969586350007,0.0690847813386206,-0.14404296875,0.35095214843,0.0145984601609774,0.1204763917315338,1.0860260025370112,0.68359442574,1.26588915787,0.020102722628414,0.1413760578731242,Null
-0.5679444657962767,-1.57971191406,-0.16052246093,0.1298171542453001,0.3593419506088867,0.5047204849533511,0.04528808593,1.00415039062,0.0760913470170692,0.2751119877604965,0.448518144321383,-0.19860839843,0.97912597656,0.1534790028715041,0.3907206485414556,1.0551022900682985,0.74652207148,1.60755462839,0.0228286649811399,0.1506892030375479,Null
-0.3141932333629032,-0.52612304687,-0.11083984375,0.0120276533374784,0.1093163097346905,0.5297623172845161,0.29797363281,0.85461425781,0.0271852869466983,0.1643468831425017,0.7626433341694194,0.162109375,1.02612304687,0.0634814254935958,0.2511411314575256,1.0290026646287742,0.91230139661,1.22591483273,0.0042028084240371,0.0646196063975854,Null
-0.3148996104327173,-0.53515625,-0.1298828125,0.0094652224295533,0.0970246412170939,0.4998195482291848,0.24755859375,0.84460449218,0.0294540239416885,0.1711547478880271,0.7611773946978262,0.23718261718,0.96862792968,0.061672050544054,0.2476628279663998,1.0115881288186956,0.82248279847,1.22572455971,0.0051343383739699,0.0714593196236004,Null
-0.2850327602615116,-0.49841308593,-0.11181640625,0.008511157061729,0.0919873556008646,0.3551536382593023,0.22814941406,0.64331054687,0.0085848989769264,0.0923849921446783,0.918486839112965,0.78845214843,1.00891113281,0.0031469570391888,0.0559344328417933,1.0336628297225,0.94351433533,1.19683512778,0.0026778995918222,0.0515977752247984,Null
-0.4303342809194241,-0.72265625,-0.15661621093,0.0176563433902382,0.1325288715782627,0.9042240162759684,0.61474609375,1.17834472656,0.0212101991207234,0.1452554679101192,0.1398478403110471,-0.15698242187,0.763671875,0.034973993610393,0.1865231452024185,1.0424141169159162,0.7541140433,1.21818356922,0.0092412120043654,0.0958792401692987,Null
-0.3767052627154268,-1.09899902343,0.04028320312,0.0520758119503032,0.2275044538280115,0.7523409215378047,0.44299316406,1.11889648437,0.0352055304137537,0.1870584468698946,-0.3535133920041463,-0.94885253906,0.18640136718,0.1513778522454166,0.3878850558619052,1.0286336162784755,0.82339578374,1.62800107363,0.0120859695222573,0.1096005227457699,Null
-0.2244471296482278,-1.48754882812,1.10620117187,0.9491386456105076,0.9711495451230564,0.2893421800796835,-0.09033203125,1.22314453125,0.0748128859298699,0.272652501642352,-0.1439672542515822,-0.69555664062,0.28723144531,0.1010999741439817,0.3169544145297647,1.0945535349118989,0.44295086294,1.67398470276,0.0751812982252312,0.2733230089542512,Null
-0.8299020131404168,-1.5185546875,0.81384277343,0.545865976631753,0.73690089202696,0.3362833658826562,-0.04113769531,0.91052246093,0.0684079267798108,0.2608670839613524,0.0289516448960416,-0.41845703125,0.35949707031,0.0407638633528491,0.2013741581349331,1.1861604185616146,0.59896262761,1.54752533179,0.0475593293334636,0.2175123548058481,Null
-0.052676114170284,-1.27368164062,0.86694335937,0.497541854539133,0.7033597317047636,0.4212764393163068,-0.12780761718,1.17102050781,0.0804604117661727,0.2828484582522647,-0.26136849143125,-0.95397949218,0.74255371093,0.3076301164251091,0.5530661967941362,1.0414368628626705,0.50814688017,1.68611804129,0.0465742395372767,0.2151966848635672,Null
-0.6778312351354348,-1.07897949218,-0.10168457031,0.1097459806245646,0.3303778671123294,0.535763947855924,0.04443359375,0.94909667968,0.1036649790873192,0.321094351339049,0.1374345862342391,-0.30285644531,0.8349609375,0.0918867191973093,0.3023033821409309,1.0317935260429347,0.85516688276,1.17134291331,0.0044512200626137,0.0665359199923621,Null
-0.3001456968209677,-0.42663574218,-0.21350097656,0.0033833097515761,0.0579782885805302,0.618954763100516,0.47033691406,0.92407226562,0.0151060096504449,0.1225093936139915,0.7014002646130322,0.07495117187,0.98498535156,0.0613143110642697,0.2468172094159058,1.020425368000387,0.85636657909,1.19594977725,0.0031962267814794,0.0563525151482559,Null
-0.2854892973226011,-0.32043457031,-0.25891113281,0.0002403673591366,0.0154589117481293,0.4870033925634103,0.45678710937,0.51379394531,0.0001882289622985,0.0136799464039434,0.8567134438184971,0.83032226562,0.90747070312,0.0003651639851917,0.0190539552510984,1.0261650005368783,0.99694498378,1.07995132888,0.0004113093558428,0.0202220633248793,lift up
-0.3023509080462828,-0.3828125,-0.24865722656,0.0009789933643123,0.0312068541286035,0.5041184350427749,0.46142578125,0.54125976562,0.0002162247041887,0.0146660368769029,0.8463115592243977,0.79028320312,0.91015625,0.0007115623631848,0.026605204486828,1.0310313905016228,0.99246997266,1.08983320142,0.0005437128345157,0.0232565296306365,lift up
-0.2859374999961818,-0.33239746093,-0.23657226562,0.0007540250696738,0.027376179805932,0.4903283321461211,0.45471191406,0.52429199218,0.0003187130544519,0.0177983555471445,0.8450639204515152,0.82446289062,0.86389160156,9.615099483184138e-05,0.0097759020826637,1.018512537099818,0.99834541439,1.04671343937,0.0001098392646848,0.010448615801705,lift up
-0.2854822495365882,-0.36901855468,-0.24304199218,0.0007550985814012,0.027398117180567,0.4858168658055881,0.44738769531,0.50927734375,0.000295706047168,0.0171454542031338,0.8450489717335882,0.82019042968,0.87780761718,0.0002291383397285,0.0150927289494602,1.0162527274091764,0.99040910582,1.04961575959,0.0001294760789895,0.0113452393097518,lift up
-0.3102622654096739,-0.40930175781,-0.2666015625,0.0011809169249966,0.034270962902001,0.4791525135830978,0.404296875,0.51342773437,0.00076981819593,0.0276700994105005,0.8384047798454892,0.81201171875,0.8662109375,0.0001630311401424,0.0127336209044153,1.0152568799926087,0.98781211936,1.04344127252,0.0001288256467076,0.0113192538324462,lift up
-0.2931370277149717,-0.36975097656,-0.14697265625,0.0016880382223664,0.0409695165123663,0.4620788919010169,0.40881347656,0.49963378906,0.0004461766883199,0.0210631411729018,0.853469417589661,0.818359375,0.88610839843,0.0002107618239651,0.0144765700080172,1.014891808900226,0.98089159628,1.03675711301,0.0001836481867878,0.0135133499329556,Null
-0.4314027847740645,-0.59753417968,-0.220703125,0.0078991227322923,0.0885898450735098,0.8399374684942579,0.37622070312,1.08447265625,0.0297426817128663,0.1719034422103034,0.1481413810475483,-0.36584472656,0.93408203125,0.1208171983702377,0.3464646195130185,1.032611289896323,0.91084209681,1.21182944765,0.0047303112552916,0.0685550371465202,Null
-0.5528229234093264,-0.70092773437,-0.43933105468,0.0035104977002295,0.0590957578255365,0.7451507093955442,0.59765625,0.94165039062,0.0105557805272615,0.1024748133148231,-0.3863923858445596,-0.74609375,-0.04052734375,0.0309170494192671,0.1753763309382547,1.025076464675233,0.8869342038,1.16042842305,0.0041518473424539,0.0642676837925392,Null
