avg_accX,min_accX,max_accX,var_accX,std_accX,avg_accY,min_accY,max_accY,var_accY,std_accY,avg_accZ,min_accZ,max_accZ,var_accZ,std_accZ,avg_magnitude,min_magnitude,max_magnitude,var_magnitude,std_magnitude,avg_pressure,min_pressure,max_pressure,var_pressure,range_pressure,std_pressure,slope_pressure,kurtosis_pressure,Pressure_below_avg,Pressure_above_avg,skew_pressure,Label
0.28630173808015147,0.16540527343,0.41003417968,0.0036482093325564268,0.06032409703200487,-0.028912785078383803,-0.40197753906,0.26904296875,0.05843019068458525,0.24141797716410437,-0.9498697916629799,-1.09790039062,-0.798828125,0.0028920744038611777,0.053710065962253375,1.0242167781825757,0.91589621475,1.15409211538,0.0008457901735517847,0.029045728425711573,948.3773330735655,948.36255576508,948.39113200975,3.245137417012561e-05,0.028576244670034612,0.005689413524745287,-1.77821739981543e-05,0.021131607799602214,0.47,0.53,-0.5325474968572542,Null
0.37684875487945,0.05029296875,0.90209960937,0.0587492188410378,0.24207921388242984,0.50319580077855,-0.29943847656,1.03747558593,0.10981385073716732,0.330967243258792,-0.5619927978492499,-0.98986816406,0.30029296875,0.18596650814403937,0.43069895736312075,1.0293795410220499,0.80183874876,1.24898483061,0.005090643723870286,0.07125950543303405,948.395813861863,948.35913161633,948.43995392035,0.000198182933882319,0.08082230401998913,0.014060137856636158,-1.8107714811888158e-06,1.2715501937005342,0.61,0.39,0.37993994984574647,Null
-1.1220751953083001,-1.47094726562,-0.82275390625,0.013746276660665583,0.11709786919074966,0.2310443115199,-0.07690429687,0.58374023437,0.02134261847988779,0.14590840254655682,0.02347473144435,-0.26293945312,0.27221679687,0.0115419006575973,0.10729886255666136,1.1594341631869,0.86578923984,1.49304911318,0.01525004598773089,0.12333661610714623,948.1200021934998,947.96365016012,948.35336553105,0.006772750642998247,0.38971537093004827,0.0821937878819972,-0.0005965367390688569,-0.05653979770865636,0.48,0.52,0.3157015836369067,Stairs up
-0.8967510986294002,-1.232421875,0.0107421875,0.08815987950861941,0.2965459151798383,0.4607763671841,-0.04748535156,1.2236328125,0.07716237733231206,0.2774337243180455,0.0117492675778,-0.30090332031,0.2607421875,0.018249382462517744,0.13492130671751384,1.0867052680759,0.632105892,1.43350219953,0.018846926592776092,0.13711239650846363,947.9650936415925,947.83827677987,948.11356552131,0.003950893864808168,0.275288741440022,0.06277751691605958,-7.519979555982263e-05,-0.6461183356330702,0.49,0.51,0.08291884558269703,Stairs up
-1.06802978515255,-1.33679199218,-0.82897949218,0.01016014694870015,0.10067147848983048,0.29458007812145,-0.09436035156,0.611328125,0.022215871882511506,0.14886346832855005,-0.04154418945235,-0.39624023437,0.2880859375,0.015364506654852925,0.12379860818367787,1.12501340880425,0.88679309146,1.38382535145,0.011184930585376509,0.10562655091837973,947.9073935322373,947.76113469522,948.05520995134,0.004069022748570429,0.29407525611998153,0.06370910603437316,-0.0003848814957035781,-0.6588959213609664,0.45,0.56,-0.19899778909438665,Stairs up
-0.85928222656105,-2.84240722656,1.03356933593,0.9598694920544458,0.9785038673016626,0.04727844238255001,-1.23059082031,1.22546386718,0.288188954818381,0.5361608736483249,-0.007116088866949992,-0.83520507812,0.75500488281,0.08767710051546797,0.29573283173191867,1.32928266471815,0.49233608425,2.85066670234,0.30682269726127565,0.5532229573310588,947.6582201373487,947.43307664551,947.93374959121,0.013357588309476101,0.5006729456999892,0.11543047404694486,-0.000604470652578741,-0.3498282421713559,0.55,0.45,0.3319823308444819,Stairs up
-0.22013977050599998,-2.19787597656,0.79968261718,0.32079555899524836,0.5656797416363434,0.5974029540977,-0.65539550781,1.17663574218,0.13596786725654877,0.3682769984514474,0.10624389648389998,-0.98999023437,0.91223144531,0.2616575576496644,0.5108849320106635,1.0469523719187002,0.62836488678,2.22638740854,0.037248356933697,0.19275693513169054,947.5561449433231,946.94478300749,948.41791286957,0.11199307982538255,1.4731298620800999,0.3342350926007308,-0.0005609818231071847,0.20617942564644887,0.62,0.38,0.6129843861094949,Null
0.04449157714682497,-0.8388671875,0.59130859375,0.0918582442454769,0.30270216159595426,0.7393975830044001,-0.201171875,1.48474121093,0.16240063517187622,0.4024855694108132,-0.18791107177622504,-0.96484375,1.09802246093,0.2220309135052049,0.4706121930224948,1.01361622827495,0.60905990034,1.54202446834,0.03175946596907952,0.1779889527587508,947.5109593154796,947.38857816667,947.82353331962,0.00509880339910209,0.4349551529500104,0.07131659267382545,-6.072579397175971e-05,4.660482919956876,0.55,0.46,1.7371140217401113,Null
0.08208526611244998,-1.65771484375,0.61743164062,0.22912517498432516,0.4780715030692212,0.7348071289027749,0.09765625,1.595703125,0.04947915260068779,0.22216087576165625,0.4011709594702249,-0.84619140625,1.10266113281,0.16648321990312706,0.40751320451412276,1.050454917010925,0.4214413498,1.70236487005,0.048257586235312,0.2194013269552482,947.3820523272619,947.27669373977,947.62557836402,0.0054368242220995825,0.34888462424999034,0.0736425974660341,-0.0005621290344398205,0.39632246594024556,0.51,0.49,0.7367695301276824,Stairs up
0.47739098722982454,0.2900390625,0.67431640625,0.007427101342376209,0.08607256852968646,0.6564858802238597,0.35180664062,0.84985351562,0.0053843473659098305,0.07328610209980292,0.5876883982377945,0.41088867187,1.03381347656,0.011026393227564893,0.10487496439484076,1.0122633384324058,0.8968471217,1.23495352141,0.0033629792042748083,0.057918483103115266,947.0638712929987,947.0354845989,947.11529676292,0.00025560261716112365,0.07981216402004065,0.015967529837080725,-6.743889245889427e-06,0.42877187816187545,0.65,0.35,0.8526624721592201,Null
0.33571044921465004,0.18395996093,0.50170898437,0.0047003831541558025,0.06847358758142012,0.7128894042932999,0.58911132812,0.88354492187,0.004120466104180868,0.0641105680751654,0.6465814208949,0.51135253906,0.81604003906,0.004440143636756611,0.06655105767502661,1.0241176281716,0.90484785263,1.19459126722,0.0033997658095336262,0.05823458074898275,947.0719776970592,947.05559360209,947.08357979179,3.249341850095823e-05,0.027986189700072828,0.005693170026857255,7.461803717516595e-06,-0.02931661406536845,0.48,0.52,-0.13428824572174727,Null
0.2384133659954863,0.01770019531,0.36352539062,0.007083723928189437,0.08405985237458097,0.8859178348039402,0.62976074218,1.06372070312,0.0167744182330737,0.12935450037071883,0.2809854635842893,-0.09948730468,0.86145019531,0.09848926334803298,0.3134384376755693,1.019994663710424,0.92055770541,1.15346886617,0.0023031030156209155,0.047930779428040464,947.0760690158733,947.04624045176,947.14011379848,0.0003101671598553273,0.09387334671998815,0.017589589980046776,-1.4039903824587109e-05,3.7962780463616017,0.71,0.29,1.7511967186170239,Null
-0.2364736938457,-0.90319824218,0.25463867187,0.0873808988550884,0.29523286844108443,0.38158599853510006,-0.07019042968,1.10302734375,0.23421576133717917,0.483353102745639,0.5953759765587749,-0.21936035156,0.99877929687,0.1876814574163803,0.4326803135951985,1.030560752277075,0.96154246632,1.18034895611,0.001954580255269446,0.0441553372156897,947.0821570056152,946.96934210883,947.14885142591,0.0007012749623238151,0.17950931708003282,0.026448473961988916,4.102361513416571e-06,3.6549547393768824,0.45,0.55,-0.7409508998017678,Null
-0.271043701168,-0.32067871093,-0.22302246093,0.0008720183118692932,0.0294930206335265,-0.02978057860985,-0.10949707031,0.05078125,0.0005800323093496311,0.024053736270614114,0.9728710937468001,0.93920898437,1.06787109375,0.00024686365200026606,0.015692243079632223,1.011099414090725,0.9821803818,1.10247454526,0.00020288487681912462,0.014225950394510618,947.1018993119251,947.0705928366,947.12999208735,7.998213119634743e-05,0.05939925075006158,0.008932086870846956,3.404859738086519e-05,2.9937365148014488,0.47,0.53,-0.3388067655507612,Null
-0.25707641601167497,-0.28649902343,-0.21618652343,0.00029285060283767056,0.017091473790477416,-0.037381591792874994,-0.09094238281,-0.00463867187,0.0003491536581959426,0.0186622821233217,0.9760223388637249,0.94714355468,1.01000976562,0.00012460701112323492,0.011148788884691773,1.010333378094475,0.98071924938,1.03664504898,9.667457350467316e-05,0.00982002479991326,947.0870103404575,947.07835341723,947.10065539534,2.3379296174428144e-05,0.02230197811002199,0.004829166380856231,-2.3080197157208815e-05,0.284140747611461,0.6,0.4,0.9274515808953387,Null
0.04138488769685006,-0.53735351562,1.13146972656,0.24580799815020457,0.49517015071067144,0.05381500244155,-0.4072265625,1.2958984375,0.09836563214995872,0.3132406711613034,0.5483084106432,-0.55407714843,1.16577148437,0.3871351218445936,0.6214235946920442,1.0081472518852999,0.60567408125,1.80545968714,0.018416516672680353,0.13553772678113887,947.0750668757593,947.03819874162,947.09346676815,0.00017538849022754712,0.0552680265300296,0.013226867316261182,-7.482969060778066e-05,-0.052996324280256246,0.4,0.6,-0.8748411278108669,Null
-0.05705139160327505,-1.61682128906,0.91564941406,0.4337843439402199,0.6577992726359382,0.7171997070280249,-0.24145507812,1.16772460937,0.08326157158156898,0.2881898985957264,-0.283881530759725,-1.04907226562,0.32543945312,0.09838396387856795,0.3132698580599026,1.0814207578565749,0.30419133208,1.66399088781,0.04274631952974058,0.20649322926167876,947.0846396426256,947.00361409692,947.22401205687,0.0017120632722960828,0.22039795994999167,0.04132533259533845,8.562978932452774e-05,1.810491149474232,0.65,0.35,1.3304796943667245,Null
-0.38668487548755,-1.15881347656,0.66955566406,0.4282612762532317,0.6535982122547449,0.11310424804542503,-0.60571289062,0.84655761718,0.15398679710751645,0.3919206936546572,-0.41984802245747505,-0.96313476562,0.13195800781,0.11199312929960518,0.3342351664268082,1.011068635869825,0.70501566052,1.44897818303,0.008858084245381419,0.09399967571629152,947.0933764734893,946.95737433045,947.21576697472,0.003442083305352895,0.25839264427008857,0.05859588805615555,0.0002896750110861356,-0.17348447843161985,0.41,0.59,-0.5428093541526456,Null
0.1537692260723,-0.12475585937,0.5546875,0.023113903596588423,0.15184241448816913,-0.05406585693232498,-0.84802246093,1.07202148437,0.36716778981463616,0.6051858147214784,-0.70748596191085,-1.13745117187,0.11206054687,0.09349305818454018,0.30538389862446713,1.003192923310975,0.82841589155,1.14529314167,0.003281956299591526,0.05721670567974486,947.5801533174512,947.11815163851,947.97413715761,0.0604029369214676,0.8559855191000452,0.24546268469802884,0.002074258365759413,-1.2819882572116013,0.49,0.51,-0.02864882823201471,Lift down
-0.279996032711175,-0.89575195312,0.11401367187,0.04227154428525246,0.2053432867773849,-0.08789459228290002,-0.7421875,1.05517578125,0.17143149134418723,0.4135249842703906,0.29288757324195,-1.09533691406,1.02307128906,0.6888891534303994,0.8289553248196331,1.031423523995725,0.72999514561,1.4154135904,0.008428662638256722,0.09169291674748427,948.4418991617028,947.97413715761,948.83868189725,0.06478157004136112,0.8645447396399959,0.2542038869023401,0.0021750270246258655,-1.3655820497415785,0.45,0.55,-0.10054911807813102,Lift down
-0.67568908691005,-1.21459960937,-0.17004394531,0.09820291168375943,0.3129814761364481,0.34469604491875006,-0.12255859375,0.97216796875,0.057282623901884856,0.2390385268991803,0.18712341308695,-0.3974609375,1.11865234375,0.31021046164245064,0.556268761920301,1.024723306603725,0.48701933492,1.47956319204,0.02492248562995187,0.15767111154513053,948.8726614079648,948.80981777649,949.06271497594,0.0012327026739927527,0.2528971994499898,0.035065950968250825,0.00019162288570899328,7.532798639752347,0.54,0.46,1.8038621243422235,Null
-0.03266418457110003,-1.40612792968,0.63537597656,0.2631341019155559,0.512324376406947,0.719227905269725,0.19909667968,1.12194824218,0.0451255411249126,0.2121620307031876,0.41086273193055006,-0.17687988281,1.080078125,0.07507988701966421,0.2736643698074615,1.0201038834872,0.66890050362,1.56501166651,0.028097013688624543,0.16741198031922022,948.8777996615785,948.81510577901,948.96478081294,0.0011132659755786359,0.1496750339300661,0.033323907493565175,0.00010926304509094817,-0.28715713311469804,0.49,0.51,0.14304350630567877,Null
0.1082199096675,-1.29016113281,1.03820800781,0.777045134586177,0.8803990695983905,0.34163055419575,-0.22131347656,1.04211425781,0.06734975367408662,0.2591937099736438,-0.066018371581425,-0.45080566406,0.8310546875,0.08852779620117437,0.29716405689563374,1.0190027676477,0.38191967604,1.7768235378,0.02512748131132425,0.15831823207718668,948.8600680678273,948.77960472678,948.94260711234,0.0011352952262429934,0.16300238556004842,0.03365199827911243,9.050682609025251e-05,-0.5032923751646496,0.51,0.49,-0.175493191883809,Null
-0.77758911132465,-1.02075195312,-0.52380371093,0.03131893239682618,0.17675020527805366,0.59536346435205,0.25866699218,0.87133789062,0.050469806994902576,0.22437386763483694,-0.09296173095364998,-0.24816894531,0.15734863281,0.0029517344691206925,0.054261912359848605,1.024311632554475,0.82515475382,1.24340015575,0.002230541370275309,0.04716953483817305,948.553157822081,948.12030026479,948.91421087416,0.06295921443437444,0.7939106093699593,0.2506029058057558,-0.002148256548592286,-1.2533804646689073,0.5,0.5,-0.17144209374455927,Lift up
-0.615292053219025,-0.84729003906,-0.03637695312,0.03648959297043715,0.19078356582266476,0.5852429199184,0.15161132812,1.16540527343,0.03991394912234602,0.19953486975849646,0.50192138671505,0.05895996093,0.97863769531,0.03018048371891678,0.17350801857441486,1.03466395601525,0.67330510946,1.27474273886,0.008828800382749746,0.09384417073954499,948.0067825248397,947.88392036953,948.11580938226,0.0017805752190266698,0.23188901272999374,0.042144083582148315,2.596993337375451e-06,1.3312946409155275,0.53,0.47,0.12192473479783053,Null
-0.7652612304649,-1.08679199218,-0.52648925781,0.012295026820861999,0.11074425156101712,0.5959204101519,0.29028320312,1.10510253906,0.023315154095837072,0.1525020203492317,0.3340039062462,0.09057617187,0.55041503906,0.013866108676833761,0.11760715711699554,1.0431791082795001,0.75207393716,1.39042646083,0.013468112680015697,0.1159070420566225,948.0159517901594,947.95030267049,948.10246146604,0.0005706947643981662,0.1521587955500081,0.0238593383706919,3.964848426725556e-05,3.877042835387546,0.52,0.48,0.8084463632408428,Null
-0.724478759763,-1.8251953125,0.79479980468,0.3966027669272151,0.628976358864065,0.5892724609336999,0.09631347656,1.70812988281,0.13021229498964415,0.3603980636076865,-0.0678869628901,-0.66137695312,0.41381835937,0.03564128381316901,0.18855285891133045,1.1457921777688,0.39370508846,1.90623914215,0.1252437458890827,0.3534552822131252,948.1147812919554,947.9870803878,948.39266404857,0.005706502066978167,0.4055836607700485,0.07544690723820774,0.00038399764546986654,1.699219139258747,0.52,0.48,0.8347840887806737,Stairs down
-0.8364880371062001,-1.42590332031,0.55676269531,0.1883903035215184,0.43349662947099665,0.4145947265586,0.18835449218,1.08947753906,0.028772684123460283,0.169412964123622,-0.1274707031216,-0.55871582031,0.1728515625,0.015355740608961853,0.12376328719551469,1.0279791522244,0.45867477688,1.55643237742,0.06320410796360562,0.2510898199722494,948.3158363312,948.15985613956,948.5912449153,0.004394712053376546,0.43138877573994705,0.06620970679019131,0.00040262368259607917,2.1349436383475826,0.42,0.58,-0.021557806127243898,Stairs down
-0.9761499023401001,-1.50988769531,-0.61596679687,0.032686430941743616,0.1805677569899711,0.3649255371057,0.13525390625,0.64111328125,0.012350335890440432,0.11099306307474505,-0.1543994140593,-0.44689941406,0.07043457031,0.010015979362663548,0.09995468680485617,1.0638293422198999,0.71501955882,1.59713330372,0.0331435624006257,0.18182602535012454,948.4646184879172,948.37557903004,948.56723686384,0.0015317584021146034,0.19165783380003631,0.0390887324699755,0.00018780338067999437,0.34075232013097745,0.46,0.54,-0.021196833128669375,Stairs down
-0.7057409667945,-1.50146484375,1.22143554687,0.417329411531909,0.6452023620563391,0.44081542968340004,0.08728027343,1.00317382812,0.026912123553486465,0.16384396004919666,-0.0726147460928,-0.87670898437,0.40808105468,0.05700597160002767,0.2384605977326812,1.0634682059925,0.23202541742,1.70351493816,0.06685836528419077,0.25824643147772686,948.4782678650456,948.35348329022,948.74806567828,0.0032496316022255513,0.3945823880600301,0.05693423858470391,-8.293085681300236e-05,9.632750194320169,0.52,0.48,2.1793402984146493,Stairs down
-0.6155859374975,-1.3134765625,1.1533203125,0.4500146256550357,0.6699922306198021,0.3376245117157,-0.34313964843,1.1328125,0.0770083171014168,0.27715662775525185,-0.1789501953097,-0.78796386718,0.22387695312,0.03238732501639494,0.17973969150928784,1.0165811152408,0.45060137394,1.53218592048,0.04965825363195703,0.22256259343806437,948.5931841672567,948.32658791638,948.73528888967,0.00753683473608575,0.4087009732899105,0.08670635875900645,0.0005067812414884561,0.41604245437784826,0.46,0.54,-0.8108037574621514,Stairs down
0.49132354735987493,0.15246582031,0.70324707031,0.01431704249441862,0.11950418355933223,0.6807296752891,0.50573730468,1.19970703125,0.012520620975204948,0.11175562367400997,0.5398828124963749,0.04516601562,0.72802734375,0.01609939548305946,0.1267246897583569,1.018034594826975,0.8743061823,1.22844170619,0.0027072183278320492,0.05196585688711838,948.9073770502714,948.88300924096,948.96477942592,0.00025215480905101654,0.08177018496007804,0.015859521494307104,-8.634584877968242e-05,2.1813599427199053,0.64,0.36,1.50144021547025,Null
0.4149829101527,0.18054199218,0.52270507812,0.007558647976784015,0.0868317416434915,0.7014648437465999,0.54272460937,0.93603515625,0.007472827918568929,0.08633739542499824,0.5981835937459,0.4287109375,0.75061035156,0.003776483631338371,0.06137623662509803,1.0171527807076002,0.81722290771,1.25325981304,0.006264175325115966,0.07904754826560516,948.9028080775477,948.89032259599,948.92549380315,4.849698207819321e-05,0.035171207159919504,0.0069552670418178576,1.6559399870179722e-05,1.374431736381803,0.52,0.48,0.818886177545559,Null
0.33901214599205004,0.16247558593,0.55163574218,0.00879248815881125,0.09365098471673548,0.7776190185511499,0.56787109375,1.03955078125,0.01212201478449233,0.10996231057744785,0.5521929931602,0.36291503906,0.75109863281,0.007093618698480678,0.08411827775064393,1.017864132588525,0.76997721766,1.30102072335,0.01646955766102572,0.1281732568318101,948.9075166321718,948.89131252757,948.94206139369,9.94670735149735e-05,0.050748866119988634,0.009960843630495665,3.490150792611718e-05,3.5776440686629813,0.61,0.39,1.7585726189785817,Null
-0.06880371093850002,-1.47387695312,0.47204589843,0.30407907983920496,0.5507439351818655,0.6898522949183,0.20642089843,1.22338867187,0.055207236923313315,0.234668316632231,0.4389660644506,-0.232421875,0.89929199218,0.09336969173968937,0.3051823512432201,1.0422767636762,0.73789104867,1.53022419376,0.03860136497798204,0.1962265567285353,949.0329918213243,948.9310228886,949.16671950895,0.003311726761838247,0.23569662035004058,0.05747562478941531,0.0004507059135983339,-0.6232645339130358,0.52,0.48,0.2817742209756665,Stairs down
-0.957558593746275,-1.61096191406,-0.65539550781,0.039653589665830775,0.19888302011902925,0.3059613037071,0.17395019531,0.57446289062,0.006334714136192377,0.07949136651770364,-0.16606292724317498,-0.50415039062,0.01574707031,0.01253964424925085,0.11184048971024636,1.0266457660696249,0.73661634637,1.68190521834,0.045009412594258925,0.21188886016677064,949.2657177355887,949.15368338015,949.39934219493,0.004619972754847536,0.2456588147799721,0.06788536530770398,0.0005746685951681866,-1.109307835514373,0.51,0.49,0.06874968571370633,Stairs down
-0.8152856445275001,-1.56030273437,-0.06640625,0.09997574230789713,0.31579392481827034,0.5377624511683,0.16418457031,1.22644042968,0.06496630198218349,0.2545660743838975,-0.0094970703109,-0.35485839843,0.63293457031,0.02862617575042167,0.1689810945373642,1.0485968465781,0.5659989833,1.60440724496,0.047617326556907716,0.21794100862507598,949.4404098800263,949.27617832978,949.64415020007,0.004220259937062031,0.36797187029003453,0.0648822725189198,0.0002566799196816579,1.2931526864190657,0.49,0.51,0.46200177379962026,Stairs down
-0.94528656005495,-1.36877441406,-0.33178710937,0.03427538010330638,0.1849045474104088,0.362678527828075,0.19323730468,1.02758789062,0.029975197945602987,0.17291691632324174,-0.13418334960627498,-0.30383300781,0.1162109375,0.006480676594462565,0.08040195832799353,1.049900727917175,0.75226328014,1.4579552694,0.0115729843393318,0.10744324957149923,949.4825417191122,949.42870387855,949.51722845378,0.0003279651417923079,0.08852457523005341,0.018087156463574564,7.696334883427733e-05,0.7910017202670154,0.49,0.51,-0.6581607631639779,Stairs down
-0.977743530270275,-1.51245117187,-0.65380859375,0.04770447876764377,0.21814036208534326,0.2807940673792,0.1572265625,0.63098144531,0.007400500815814144,0.08591856355744437,-0.18999359130510002,-0.50073242187,0.04357910156,0.009789959525979084,0.09882046664109685,1.041683068802825,0.67661979776,1.55362730922,0.05003003023348104,0.2233941699281728,949.5874494416589,949.48262838445,949.72885486989,0.004360243576439548,0.24622648544004733,0.06594954865272733,0.0005516249280999496,-1.0183819224170658,0.5,0.5,0.11026003000128438,Stairs down
-0.968668212886625,-1.48803710937,-0.63513183593,0.04841068978749214,0.2197490911540328,0.286111145016175,0.16052246093,0.43310546875,0.0032814812241412404,0.057212564363790644,-0.18732147216445,-0.61047363281,-0.00537109375,0.010818629763681312,0.10388254516169744,1.0332556880241501,0.68210647098,1.51959423042,0.05012955872999654,0.2236162669243263,949.8423397551238,949.68783460391,949.96866025002,0.005147437112463234,0.2808256461099745,0.07165590359267042,0.0006037107648733204,-1.0950011458003783,0.51,0.49,-0.139564381464132,Stairs down
-0.9811059570271499,-1.16284179687,-0.82653808593,0.005400295418904398,0.07339478646577792,0.30016632079735,0.17065429687,0.53674316406,0.00534519435308268,0.07301939035078267,-0.14026641845370003,-0.30590820312,-0.00549316406,0.004907236565261025,0.06996405129670431,1.04024781658585,0.8966341413,1.26665206137,0.005856102066180476,0.07642945643542826,950.0658331621551,950.03200196364,950.11519847469,0.00036155651550444167,0.08319651105000503,0.018990856331816124,-0.00012053364959668076,-0.29559496091450654,0.52,0.48,0.4928279079098693,Null
-0.9724557495080001,-1.11206054687,-0.89038085937,0.0017441833779904123,0.041711184585737145,0.27844665526962503,0.05578613281,0.55346679687,0.0058048428565660925,0.07609422283869306,-0.101815795895875,-0.302734375,0.25756835937,0.012960692759879378,0.11370264301228744,1.026008659908425,0.93788080428,1.14436912039,0.0013371983621068761,0.03652198469691384,950.050136929985,950.00451059284,950.09516268803,0.0002319589266664912,0.09065209518996653,0.015211148193013732,-1.027299944222752e-06,2.5134716545835367,0.58,0.42,0.6297969055500858,Null
-0.959867858882825,-1.19799804687,-0.75915527343,0.006655009335018004,0.08147620395968666,0.33155334472292497,0.1162109375,0.75207519531,0.0157253276551826,0.12524381955228228,-0.10283569335662503,-0.44104003906,0.06262207031,0.009447534208140092,0.09707685291880729,1.0348876681376498,0.89500858447,1.24168722407,0.002611451227212758,0.05103844236597279,950.0778877448782,950.04344611098,950.16078552557,0.0005277758340213201,0.11733941458999197,0.022944637596533677,9.647536773583195e-05,1.6391415001525145,0.51,0.49,1.0500769237077268,Null
-0.9085412597614502,-1.17358398437,-0.41918945312,0.0329600494474038,0.1813219493712366,0.405695495601625,0.08032226562,1.07092285156,0.05379384372461304,0.23164489874655453,-0.049880065917025,-0.36950683593,0.34216308593,0.029743952203093102,0.17224863518352002,1.04829964575515,0.83501583164,1.31720340488,0.009823088009173806,0.09898752592701199,950.0922834117955,949.97968484808,950.18411043319,0.0009303104573597722,0.20442558511001607,0.03046284099056378,-1.799313506988117e-06,1.625240006672728,0.54,0.46,0.31813958230809664,Null
-0.669195556637025,-0.75024414062,-0.57873535156,0.0021178318668532204,0.045962346406445434,0.70949401855125,0.60803222656,0.81591796875,0.0018092909159997202,0.042482557464325534,-0.33612884521097497,-0.517578125,-0.1357421875,0.00618460812435318,0.07854391513059619,1.036099383211425,0.9804259667,1.10207304384,0.0007735094304110296,0.02777725070691846,949.9310287079466,949.58032454613,950.09953618786,0.022973267454315476,0.5192116417300667,0.15137976841599304,-0.001115778086290954,-0.5271575735829743,0.34,0.66,-0.9529740722393009,Lift up
-0.6253387451134749,-0.75866699218,-0.55004882812,0.0024493530784651368,0.04942903696987201,0.68213897704695,0.57409667968,0.90808105468,0.005329759358423707,0.07291388729198059,-0.403956298824875,-0.53784179687,0.06030273437,0.014286179230037067,0.11937530641620141,1.0202009468350999,0.96112823144,1.11895434175,0.0007448401238182061,0.027257623218260623,949.1799631434558,948.73317919203,949.93009332528,0.07354503416361816,1.1969141332500612,0.27085267504348026,-0.0020775407151221127,0.2932400641975059,0.45,0.55,0.4771277351405169,Lift up
-0.53605957030925,-0.64770507812,-0.41149902343,0.003574498763373102,0.059712331360152644,0.673842468257825,0.50500488281,0.80261230468,0.0031541434847375985,0.05609151563316643,-0.5404837036099,-0.66284179687,-0.38195800781,0.004408677713230575,0.06631482503141736,1.0217158046040502,0.93772169511,1.09023948375,0.0007543459657255374,0.02743100619392631,948.6094514484264,948.32242024526,949.04994395117,0.034587487981443114,0.7275237059100164,0.1857444999494992,-0.0005314055748454494,-0.12308537090614591,0.54,0.46,0.7920586293698821,Lift up
-0.45975433349247496,-0.71301269531,-0.19641113281,0.011586591085261392,0.10750639333336524,0.7909301757771999,0.61376953125,1.06567382812,0.010368223029031877,0.10169711142141302,-0.466155700679775,-0.75158691406,-0.23254394531,0.014024585167999357,0.11827731695079728,1.038672750552275,0.81728533821,1.41934761807,0.011322401445910138,0.10627368179514325,948.5025373598656,948.20447921916,948.76389023464,0.007708319413758318,0.5594110154800092,0.08768722036433771,0.00017408018261153954,2.4991682998786438,0.66,0.34,0.4751575740510638,Null
-0.5083529663045999,-0.68957519531,-0.357421875,0.005934667015774918,0.07694043376687891,0.793674621578225,0.52978515625,0.98083496093,0.005718690861931033,0.07552743961485921,-0.39969421386327497,-0.64685058593,-0.18408203125,0.010085111318096626,0.10029904555777878,1.03245227562205,0.8899972527,1.2384433941,0.003833613507458302,0.06183873764631403,948.4617241435373,948.20447921916,948.64325082176,0.006149956707914945,0.43877160260001347,0.07832357126781923,0.0003423802857530045,1.771651507428424,0.46,0.54,-0.7580071687711373,Null
-0.5488247680630499,-0.68029785156,-0.37915039062,0.0036878731726160954,0.060651904254397114,0.7913247680621499,0.65551757812,1.09594726562,0.008658989015782777,0.09293729898831427,-0.380030212398025,-0.51403808593,-0.15075683593,0.0048044460525778635,0.06922741463789052,1.04161078738395,0.87422286161,1.27312221017,0.004120638562254787,0.0641119097036514,948.4817280524218,948.36679562453,948.73876196289,0.005514823237945014,0.37196633835992543,0.07416897046508164,1.09799748895893e-05,1.1259177197636197,0.58,0.42,1.0081200285353595,Null
-0.61221435546505,-0.71325683593,-0.54333496093,0.0006976530575681435,0.026380085764155944,0.676871032711675,0.56518554687,0.7548828125,0.002306006564876173,0.047960833483833266,-0.4761007690389749,-0.57971191406,-0.30895996093,0.001516738559317047,0.038896615700067715,1.0311600176051499,0.97378194541,1.0995490564,0.0007880401726097517,0.028036941205813223,948.1861636535879,947.70808925363,948.73926131777,0.07126024812621362,1.031172064140037,0.26661226060685594,-0.0019696707045005696,-1.4527616935735679,0.42,0.58,-0.03560043932515073,Lift up
-0.17519805908085004,-0.79833984375,0.75427246093,0.36997562635993425,0.6074954216239283,0.63226043700805,0.36791992187,0.92260742187,0.006803404037461326,0.08237958198102047,-0.45383117675387497,-0.75903320312,-0.26245117187,0.011996272867659712,0.10939050317779218,1.01012545394535,0.74098213091,1.25387509625,0.003857090758557878,0.062027800474154196,947.3811751256743,946.95537971009,947.87213827465,0.07375436073364136,0.9167585645599274,0.271237856561003,-0.0019753385995405015,-1.6735647943038676,0.48,0.52,0.01673218623346218,Lift up
0.7114807128865999,0.51635742187,1.03735351562,0.01248050165506245,0.11157643299964735,0.5951715087852,0.05554199218,0.95874023437,0.028074316198284873,0.16734434680558874,0.013049316406349992,-0.59350585937,0.72827148437,0.10652615895344687,0.325975219236161,1.0001128984173,0.8300577408,1.2013346802,0.007109452755866937,0.08421210794165689,947.1251489336012,947.07723304813,947.22139899482,0.000947137004817066,0.14416594669000915,0.030737097493176276,-0.00010897004737316955,1.1690075534597382,0.66,0.34,1.1391911083908444,Lift up
0.5925436401332,0.33532714843,0.84130859375,0.008367544482768762,0.09135986876939918,0.7921325683557251,0.52770996093,1.00231933593,0.007755459213895307,0.08795493485791783,-0.15361267089535002,-0.34387207031,0.31494140625,0.015799168640369093,0.12553752713339614,1.0138347285442502,0.8542606585,1.23985478156,0.006175773511039551,0.0784877957217678,947.1212431403301,946.95449247243,947.4088512072,0.006129567082021588,0.45435873476992583,0.07819362611055031,-0.0002769769207640723,2.7379582232095654,0.61,0.39,0.9000490831235693,Null
0.53033935546485,0.39526367187,0.77087402343,0.007319892235572783,0.08544935637548039,0.8071484374961,0.58984375,1.00512695312,0.008338230211903146,0.09119969647084024,0.07594665527399999,-0.33959960937,0.69201660156,0.08294885097094877,0.28764818588602536,1.0167885802972998,0.85603106755,1.19240479445,0.003025328839901082,0.05493419261080779,947.1304504873825,946.84598079067,947.4418688091,0.016135525649358187,0.5958880184300597,0.12686680746055995,-1.6442225784374741e-06,0.053470815385306736,0.6,0.4,0.3556330662923659,Null
-1.0031677246059,-1.80688476562,-0.12707519531,0.09964510100110384,0.3152712930931091,0.46603454589500004,0.11560058593,0.93383789062,0.03524036104180004,0.18748936006929975,-0.12567993163775001,-0.38891601562,0.09619140625,0.01167948047442698,0.10793647100605482,1.1304995603291,0.26742387766,1.92782770721,0.10776782068241023,0.3278694879532162,947.3196740760666,947.18857526695,947.50267136081,0.006509315415090302,0.3140960938600301,0.08057941502984851,0.0006721772788617461,-0.9370874891419043,0.55,0.46,0.34385400701961466,Stairs down
-0.71911987304355,-1.42883300781,0.1494140625,0.13290633920819253,0.36410722783291743,0.39474121093444997,-0.12487792968,0.97241210937,0.04450830139873787,0.21070602897221766,-0.46754638671544996,-1.4287109375,0.14526367187,0.11475572102663568,0.33833242783403,1.0730274312166,0.71162953074,1.53477108712,0.03168491903141439,0.1777799390646646,947.5520652370775,947.41742350864,947.66599526804,0.0034079397821951078,0.24857175939996523,0.05830454470056018,0.00028161662838875655,-0.8778958014886098,0.41,0.58,-0.3462027178279304,Stairs down
-0.5485418701148,-1.19470214843,0.40002441406,0.20860796824525876,0.4561649354396342,0.23606567382577498,-0.76501464843,0.74963378906,0.07406719432167748,0.27181248377488715,-0.608567504878975,-1.27734375,0.18249511718,0.12618014674680605,0.3547741484098567,1.054807967666425,0.7309837158,1.54519535638,0.022248537354873907,0.14897287005185447,947.6298062185125,947.42827870399,947.81695565356,0.005078899971356472,0.3886769495699127,0.07117726267164312,0.00012160627790801298,0.2687895756846692,0.58,0.41,0.49636775061302246,Stairs down
-0.2198620605456,-1.23876953125,0.67663574218,0.18368251890968093,0.4280459234853274,0.2356372070295,-0.33630371093,0.91577148437,0.06543174385009304,0.25547634820168347,-0.8663897705042001,-1.21057128906,-0.43505859375,0.02841850941606729,0.16836704886208323,1.04396900952955,0.63719246215,1.65576431962,0.04156701837223104,0.20362490227450195,947.8454740587092,947.65564697369,948.15503018793,0.010038702692728413,0.49938321424008336,0.10006800655552499,0.0005823624238978223,0.8669509562567996,0.55,0.46,0.7774674508782233,Stairs down
-0.36946899413975004,-1.1748046875,1.08862304687,0.5097233646130835,0.7130561381837693,0.4205572509735,-0.76306152343,1.8095703125,0.08271141074571478,0.2872361958717085,-0.36059143066145,-1.06408691406,0.50122070312,0.13869979318379907,0.37195838974385237,1.0642810413858501,0.5327188857,2.14134836504,0.04011480291871691,0.2000362864867775,948.0136837918809,947.86444186945,948.1011399144,0.0023367791998882056,0.23669804495000335,0.048279780984263845,0.0001973768890984828,0.6817927345183246,0.49,0.51,-0.7079553048543539,Stairs down
-0.12227722167970001,-1.27221679687,0.85070800781,0.5417627344394804,0.7351247020767169,0.5942083740196,0.00305175781,1.8095703125,0.0552757796932915,0.23481394814631065,0.09467834472569998,-0.79809570312,0.82104492187,0.14421672911879505,0.379283782010249,1.0355156609711,0.19291701916,2.14134836504,0.04421926885878843,0.2100207625132369,948.0548307455308,947.98772220362,948.1824292289,0.001751849870603219,0.19470702527996764,0.041802754047152335,0.00024874031399533695,0.7979876394489165,0.67,0.34,1.1457389501774606,Stairs down
-0.38703186034919995,-1.18334960937,0.42761230468,0.14556835895284362,0.3810570010581901,0.21723815917699996,-0.37084960937,0.61206054687,0.04917150969932585,0.22146914215094965,-0.8358514404260501,-1.63220214843,-0.21569824218,0.047963006723021645,0.2187306544730621,1.0417492535802,0.4477396789,2.00867761535,0.052619869718319584,0.22910329557652326,948.2542645954611,948.05298513076,948.45250420345,0.01170926264623449,0.3995190726899409,0.1080740000630073,0.0007987829867108925,-0.9731863575387507,0.47,0.53,-0.039545579084684306,Stairs down
-0.8518029785121499,-1.61767578125,0.67932128906,0.16394554028574998,0.40439544561608953,0.268454589841,-0.16662597656,0.75415039062,0.02178140462771856,0.14740064828944702,-0.30125122069925,-1.03930664062,0.16198730468,0.055329106169105274,0.23492718745109625,1.04875577158325,0.66894319631,1.74146269787,0.02902578597254147,0.17015646184500344,948.4588808877915,948.3363066994,948.56879766821,0.002743631096546716,0.23249096880999787,0.052314166521176174,0.0002515487343187024,0.02396519483362214,0.43,0.57,-0.45177624682660544,Stairs down
-0.44442687988155,-1.19348144531,0.6591796875,0.4332970007272538,0.6574296602872702,0.42072753905885,0.08715820312,1.28552246093,0.047020012274617766,0.21656976299550965,0.15249328613349997,-0.49853515625,1.11022949218,0.19032845288285338,0.4357208185875977,1.0168431487818,0.42669333313,1.48723456855,0.03286213433202348,0.18105242057535,948.4793431052469,948.37431984533,948.6070708745,0.0020099054984969787,0.23275102917000368,0.04477589457231129,8.811064811199931e-05,0.9598059157899166,0.69,0.32,0.7135126322488958,Stairs down
-0.254303894042925,-1.50036621093,0.67565917968,0.3986268314789734,0.6305793085728995,0.6092547607382249,0.158203125,1.41333007812,0.06843677065676898,0.261277015311579,0.07466156005907497,-0.68688964843,0.95886230468,0.2184912619666529,0.46684583516588884,1.0368537059881,0.64332024062,1.57078124874,0.04798313346287127,0.2187765426850285,948.6051220413315,948.47178778298,948.78492245752,0.007907620829458097,0.31313467454003785,0.08881357878941964,0.0006874502548128453,-1.1159108140465663,0.56,0.45,0.2835904566622726,Stairs down
-0.94267883300375,-1.47546386718,-0.56555175781,0.029804552174602116,0.1724240145518182,0.37282409667569993,0.21875,0.76525878906,0.010883171522142493,0.10419195551162833,-0.1309503173796,-0.39733886718,0.06591796875,0.009290008616036351,0.09626413451798266,1.029964346898,0.64317463374,1.61464863204,0.033900157373460194,0.183889659796375,948.8677475277337,948.76705156786,949.04314181621,0.0030464606550873216,0.27609024834998763,0.0551257154461473,0.0004122341946470968,0.548697725497691,0.54,0.47,0.5641472320999106,Stairs down
-0.9526818847614001,-1.26916503906,-0.74536132812,0.012388120365306654,0.11116271886020684,0.38591766357029994,0.18774414062,0.69653320312,0.014807982195282026,0.12153584755039898,-0.12341552734044998,-0.36022949218,0.02111816406,0.007682408897921024,0.08753972170207204,1.044464457347825,0.80753046421,1.35461618836,0.016661878512881156,0.12891944700703206,948.9168253235684,948.87585971537,948.97594672541,0.0003305552259817017,0.10008701004005616,0.018158437100057576,-2.5809044282707788e-06,0.918996917206071,0.52,0.48,0.5586623693076525,Stairs down
-0.9627655029265,-1.5537109375,-0.63684082031,0.03253473075367603,0.18014825540868232,0.384241333003875,0.21203613281,0.68664550781,0.011277489688658614,0.10606269827058412,-0.127114562985025,-0.48852539062,0.50964355468,0.014775778767390006,0.12140362152947305,1.0540459870780747,0.67692747645,1.69325305732,0.037941340793770824,0.1945417370175007,948.9532907251461,948.89418752327,949.07345637968,0.0018178882473544548,0.17926885640997625,0.04258337148155449,0.000311538462521249,0.12826214071633535,0.66,0.34,1.0793793311311701,Stairs down
-0.47287231445095,-1.11694335937,0.18469238281,0.1350912682842118,0.3670879187790049,0.27015838622739996,-0.42517089843,0.61633300781,0.03742338613998008,0.19320928464913412,-0.768587951656425,-1.13305664062,0.01440429687,0.06470762074791471,0.2540587563852994,1.0435529519662499,0.61917192398,1.63428805723,0.03503526293956549,0.18694297200541288,949.1364140696417,948.97885923848,949.32895082556,0.005764599446677352,0.3500915870799872,0.0758299937232007,0.0004275787425800895,-0.5998959350662165,0.54,0.47,0.20312820476818447,Stairs down
-0.2287353515614,-0.99182128906,0.68054199218,0.16321893786756483,0.4034983153904064,0.3556799316381,-0.47351074218,0.96118164062,0.10553589496061702,0.32445655367585885,-0.802168273921925,-1.24328613281,-0.15759277343,0.03256329835930567,0.1802273289859432,1.0488326484041,0.66362314836,1.44000578769,0.022874111293388583,0.15105272594413882,949.368224332222,949.190599298,949.52665516375,0.0064845350460830805,0.33605586574992685,0.08042588954104189,0.0004914230464282104,-0.6926545599507716,0.49,0.51,-0.07787211531348998,Stairs down
-0.15098663330155,-1.37963867187,1.09106445312,0.5491087772547902,0.7400918897756233,0.5101663207971749,-0.34765625,1.12548828125,0.0877596467462816,0.2958720122441727,-0.30358428954805,-1.01940917968,0.4873046875,0.11380979831082746,0.33693511810888815,1.035809141702075,0.13973990692,1.74108441674,0.051259155784677546,0.2261216661339993,949.4580013423993,949.32763089546,949.62879056987,0.0028092190137953828,0.30115967441008706,0.052935772085243964,8.094003348709761e-05,1.6876082123889153,0.47,0.54,0.6389103806868094,Stairs down
-0.6160809326137,-1.29296875,0.19140625,0.09736334658697827,0.31164071977280317,0.26150726318115,-0.3544921875,1.03283691406,0.081635332808004,0.28536160301621516,-0.6327978515581251,-1.05358886718,-0.12646484375,0.06820205332933536,0.2608285800981404,1.038462602494925,0.79310128556,1.59524183948,0.016594525592638482,0.1286586152523681,949.53958475753,949.4239496289,949.63642324709,0.0021064236006156345,0.2124736181899607,0.04583838502406139,0.00021957476416134685,-0.8114709487942711,0.46,0.55,-0.0722240227506548,Stairs down
-0.371727905271675,-1.09423828125,0.470703125,0.13763646660998188,0.370529857694973,0.315704956051225,-0.13757324218,0.65979003906,0.029802840081047544,0.1724190621156632,-0.8416815185504,-1.17700195312,-0.56140136718,0.019555493807891566,0.13966604839176855,1.045534194712875,0.60689256672,1.5102464569,0.03976400470120257,0.1991597215539567,949.7502594630106,949.57144265002,949.95104252024,0.006045349953826745,0.37959987021997676,0.07765459792531398,0.000524657520260114,0.17640335927070527,0.49,0.51,0.27945022350680604,Stairs down
-0.8088366699183002,-1.15148925781,-0.412109375,0.032704480457812206,0.18061760505739102,0.52487915038705,0.20434570312,0.9599609375,0.047832982490900684,0.21843397179622367,-0.20576690673530001,-0.45812988281,0.06994628906,0.026139384891361788,0.1614745689857489,1.03638945210125,0.87582326374,1.21000151608,0.004372892548353512,0.06604513848106178,950.056784700027,949.82330688688,950.59379218335,0.02304392367235805,0.7704852964700422,0.15161238030971336,5.4216393880715096e-05,5.3822551430726016,0.67,0.33,2.143057827827683,Null
-0.747908020015325,-1.02038574218,-0.49145507812,0.011576022026070115,0.10745734954392343,0.6292843627894,0.39855957031,0.9306640625,0.015583629790323435,0.12467826881958069,-0.292138061519625,-0.56091308593,-0.06103515625,0.013970515064209698,0.11804909477225639,1.030645327807775,0.803640833,1.36903572496,0.01955630313474889,0.13966893848279946,949.8855969146741,949.74289807642,950.14587225276,0.00559957300674903,0.402974176339967,0.07473669830968022,-0.0005190880762449984,1.5604519263158005,0.59,0.41,0.9579123812210691,Stairs up
-0.7458749389605001,-1.00085449218,-0.56323242187,0.011641342828696933,0.10776010148299411,0.61388854980085,0.42321777343,0.80517578125,0.009062494690504332,0.09507806505066282,-0.322698974606,-0.55554199218,-0.13806152343,0.009948634376781892,0.09961808465755571,1.0251343793238,0.78827956986,1.31776956433,0.017041152285422103,0.13037848520637346,949.7237711568844,949.60857200461,949.82076624851,0.0035948075212597565,0.2121942439000577,0.05988172093766684,-0.00046723868834626473,-1.252550180650781,0.51,0.49,-0.08752340224285698,Stairs up
-0.6940102137199251,-0.84973144531,-0.50012207031,0.004717255938341762,0.06859659035128646,0.6785867362806983,0.47741699218,0.90710449218,0.006138599473131417,0.07825146161586292,-0.30444153288249376,-0.53857421875,-0.12109375,0.005726954486691428,0.07558222545466446,1.0237003282690025,0.90113162085,1.24548629974,0.0034023612001273153,0.05825698678145976,949.519010887256,949.46158657514,949.58250095047,0.0006753885549021202,0.12091437533001681,0.025955814265144976,-5.5389215716303504e-05,-0.35217292927288524,0.46,0.54,0.044777553785072616,Null
-0.7068681836391478,-0.93908691406,-0.46643066406,0.008469351834023095,0.09191368444537401,0.6882804545503508,0.51306152343,0.95434570312,0.006525826260347507,0.0806812915492862,-0.2595107764488471,-0.56958007812,-0.04028320312,0.011404767554956957,0.10665919640437123,1.0297676303450627,0.8138850035,1.31537980945,0.006667574831538113,0.08155283022479727,949.4969105800755,949.44984263285,949.5635986222,0.0007112215865975647,0.11375598934989739,0.026635297564612744,4.730307989885191e-05,-0.7762992624872034,0.52,0.48,0.38229173735636646,Null
-0.7716921086861153,-1.05261230468,-0.58715820312,0.013671831251513973,0.11677998976829082,0.5978079965501003,0.37963867187,0.90026855468,0.01469342895098918,0.12106445933683649,-0.29105325569408513,-0.50073242187,-0.14208984375,0.005431850991433334,0.07360867700074951,1.0244767370591727,0.77126882897,1.32815151188,0.021809591509913732,0.14749552833751628,949.3245054253515,949.18495950304,949.43667293082,0.003772912416941993,0.25171342778003236,0.06134701701058925,-0.000491525760212746,-0.6124414124163624,0.47,0.53,-0.18940729928712113,Stairs up
-0.7848208618132,-1.51733398437,-0.07958984375,0.041427748151535895,0.20328349362689796,0.5738589477502749,0.107421875,0.83825683593,0.02247245941751626,0.14972066747437532,-0.254568481442,-0.52270507812,0.03051757812,0.01318007661829927,0.11466091935246953,1.02781495149725,0.50353127951,1.54401013445,0.032327585765645324,0.17957384776528906,949.1476532715074,948.96761348305,949.27127409674,0.005435531113716176,0.3036606136899991,0.0736338392719807,-0.0005144989512887231,-0.4852606046205721,0.32,0.68,-0.7602647876353151,Stairs up
-0.963530809203167,-1.34228515625,-0.72924804687,0.015751060249403884,0.12534664254542424,0.29405642387800496,0.13159179687,0.4873046875,0.005799354194357423,0.07605847726878516,-0.21579809021980048,-0.45349121093,-0.03833007812,0.007990434904035055,0.08927770512537786,1.0371353324354613,0.77626109807,1.37369295333,0.015285217810686626,0.12347914828235287,948.9986789124475,948.96170316444,949.05335068697,0.00040766615200491863,0.09164752253002462,0.020165553009636447,-0.00010169968403249638,-0.6259636513338744,0.61,0.39,0.4161747262742368,Stairs up
-0.6693326333369923,-1.095703125,-0.26550292968,0.038096164603695304,0.1949376451443201,0.6824929755991729,0.22277832031,1.21423339843,0.04010691950056729,0.20001600162318955,-0.16216872748117794,-0.873046875,0.34838867187,0.08651495420274995,0.29376542469050915,1.0439774014149374,0.71416901184,1.3636324411,0.016444222021277426,0.12807423016458722,948.986365128618,948.70859253953,949.2395960645,0.009425258981583098,0.5310035249700604,0.09696203782213808,-0.00020865616417269092,0.35760963252766587,0.56,0.44,0.15425164247607032,Stairs up
-0.07759399414109999,-0.76220703125,0.81164550781,0.18199396024873024,0.4260739083165131,0.8345593261674,0.12548828125,1.33068847656,0.06645524869104669,0.25746671740114113,0.0631799316404,-0.62255859375,1.32971191406,0.14385680096115455,0.3788101885624932,1.0249591401478,0.44465146442,1.62251705974,0.047404317279172714,0.2174529983375138,948.8735860463365,948.55478637945,949.85262610786,0.03085679244866564,1.2978397284100538,0.1754413020572521,-0.00048276403475988274,16.976046874560442,0.64,0.36,3.1729339105123158,Stairs up
0.0854931640619,-0.57434082031,0.75817871093,0.07697213518157008,0.27709150987285075,0.9426733398403999,0.18017578125,1.7685546875,0.09079799012121073,0.3009501539223858,0.003826904297599998,-0.90551757812,1.20690917968,0.12379012770129061,0.3513981394117467,1.0530217511973,0.28528842736,1.86770926651,0.0781286173647471,0.2791653556968257,948.5876756698437,948.39089825106,949.60362604001,0.017492368327176863,1.2127277889500192,0.13209329054255148,-0.0005604858458333346,32.49819911517205,0.64,0.36,4.605463338068668,Stairs up
0.3493261718727,-0.39672851562,1.00769042968,0.1277275548170793,0.35694290289910036,0.7902233886686,0.24194335937,1.23413085937,0.06500712477621369,0.25464604250660006,-0.27507080077939994,-1.00708007812,0.40319824218,0.07644446116523276,0.2761400912803494,1.0339250941412,0.65414940609,1.52781561174,0.02170507910497061,0.14714216393409532,948.4969896947214,948.27175197788,948.8583020493,0.007660730709864943,0.5865500714201062,0.08741612484599326,0.00013218645419623855,3.000938065393157,0.54,0.46,0.371136509774421,Stairs up
-0.2116870117151,-0.52172851562,0.04040527343,0.01527335052788969,0.12343081929392662,0.9757751464807001,0.63781738281,1.37744140625,0.030499095419357677,0.17442146565377004,-0.195545654294,-0.73559570312,0.09350585937,0.026237407153127865,0.1617770491610137,1.036459440719,0.65784005132,1.39825775014,0.032850412573692644,0.18102012745067442,948.4054855330288,948.26987996469,948.63366031037,0.004940147607460472,0.3637803456800839,0.07019827090777822,-0.0005358951637040764,0.2298569619461328,0.5,0.5,0.25443163842305344,Stairs up
0.30818522541204485,-0.53308105468,1.0029296875,0.22105753156275143,0.4695809471198831,0.7040671636300498,0.0302734375,1.20434570312,0.05789141860442728,0.24030616092182241,-0.1810217498225187,-0.81848144531,0.98425292968,0.1680549947160753,0.40943363925511916,1.0285584619238655,0.76859186414,1.36263177698,0.011442825934354132,0.10683768159611128,948.0393970842592,947.95881452646,948.12635039153,0.0012672342508942348,0.16753586507002183,0.03555381928471131,-0.0001632665575101696,-0.045732481684098936,0.5,0.5,0.07956546901832437,Null
0.06420133585814534,-0.71411132812,0.87878417968,0.12394169996478703,0.35161210038593327,0.6859886532701754,0.1474609375,1.49133300781,0.08245725166350525,0.28679363989618034,-0.39961628925624054,-1.02624511718,0.88146972656,0.27468557887536393,0.5234473649189464,1.0438148444163908,0.42831419919,1.66563862943,0.024786920628397466,0.15724120967579155,948.0661099563468,947.84825306836,948.70476556656,0.013257684021874239,0.8565124982000043,0.11499763799149933,3.716704692434161e-05,13.319447141323462,0.68,0.32,3.337909278145914,Null
0.1032800292935,-0.07238769531,0.29602050781,0.004493917515018451,0.06695283953075407,0.5021020507774999,0.36511230468,0.64025878906,0.0035949113614882023,0.05988258580826718,-0.8961938476527002,-1.05554199218,-0.7265625,0.003895008408655223,0.06233194115085447,1.0369456261455,0.93491495089,1.21121937947,0.002640894763061432,0.05132535948392158,948.0650837836852,947.89484295123,948.19558909266,0.002894175325623916,0.30074614143006784,0.0537302511376027,-3.421608728392082e-05,1.4052196210029528,0.46,0.54,-0.3676042289367535,Null
0.034144984215461346,0.00598144531,0.06311035156,0.0002393069710845469,0.015450249046392682,0.2851096745398504,0.11206054687,0.46716308593,0.019620767482373288,0.13989938487232226,-0.9754507773500499,-1.03894042968,-0.90954589843,0.001872530147058305,0.043218751668908234,1.0273890060029427,1.00048344072,1.05474069955,0.00010813408002670432,0.010385779651969138,948.078431828407,948.0230890423,948.16801183699,0.0010738503894884564,0.14492279469004643,0.032728771109569635,6.15896880362273e-05,1.0107099867033673,0.69,0.31,1.2183530193796812,Null
-0.0227536010721,-0.08520507812,0.07958984375,0.0014970463092767979,0.03864328781953738,0.286414489742125,0.03552246093,0.3955078125,0.014875612057903907,0.12181306591560344,-0.975404968257875,-1.08483886718,-0.86242675781,0.0012842914916880695,0.03579218857458775,1.025108097287275,0.88756327806,1.12437422885,0.0007338694317698701,0.027056140859155163,948.0632380223062,947.82672715553,948.24474356663,0.0027416276353505837,0.418016411099984,0.05229506254190932,2.8300661750887086e-05,9.199364575161503,0.36,0.64,-0.7869330833365015,Null
0.0154321289037,-0.01171875,0.05065917968,0.00022300328820367774,0.014914616320347249,0.04445770263314999,-0.0009765625,0.07604980468,0.00034032136116286826,0.018424726802858196,-1.0227291870081,-1.04248046875,-1.00646972656,5.144132548947547e-05,0.007163289898904817,1.0240859770378499,1.00740595313,1.04278706457,5.089581649911981e-05,0.007125207151927024,948.0750649740687,948.04550019699,948.10473959972,0.00011101428097657328,0.05923940272998607,0.010523152820050265,1.7576637545539954e-05,0.8793584724470112,0.45,0.55,0.10551311090414325,Null
0.000863952636925,-0.03881835937,0.0458984375,0.00022047551186948357,0.014829845686648592,0.129265136715075,0.01086425781,0.19128417968,0.0031457760937502214,0.056017065734612036,-1.0118872070276501,-1.03747558593,-0.97412109375,0.000162099471363181,0.012715904320368766,1.0217500622241251,0.97579633794,1.05501871912,0.000172714057585077,0.013125634172911963,948.0846566536586,948.02545335653,948.35095972908,0.0019201952145374305,0.3255063725500804,0.04376522279734318,-8.609750169874219e-05,17.38114061324411,0.68,0.32,3.611611378809946,Null
-0.03871892866551378,-0.06811523437,-0.00036621093,0.00025325393092562705,0.015893999159879005,0.20822105311731828,0.17504882812,0.24145507812,0.000299020082883042,0.017270514153215528,-1.0014819764217795,-1.025390625,-0.9716796875,8.237691906340334e-05,0.009064792364948875,1.0239066210662655,0.98957680231,1.04543085269,6.97780421698426e-05,0.008342850823228233,948.0803637650714,947.94436253439,948.2125332385,0.0016404483332140422,0.2681707041099344,0.04045166169494992,-8.448816400206757e-06,4.512542267673449,0.43,0.57,-0.18971443175720215,Null
-0.03895473717660848,-0.06713867187,0.02075195312,0.0003155767727974264,0.017742316599071054,0.1921523705348628,-0.00610351562,0.26672363281,0.007557567952099009,0.08682580923450091,-1.0048404988474813,-1.068359375,-0.97717285156,0.00022188159890409662,0.014877105841143134,1.0276552168050872,0.98612708885,1.08642798948,0.00014438784033627807,0.012001157065425216,948.0880817716873,948.05890191439,948.14477969371,0.00023672903357465359,0.08587777931995788,0.015366804705517339,-4.050539441946085e-05,2.924952193574267,0.54,0.46,1.1075806555108016,Null
0.04842010498085001,-0.04650878906,0.30383300781,0.009133653161996524,0.0954506104175952,0.04624145507684999,-0.05932617187,0.28161621093,0.006207767791855862,0.07869084046047686,-1.0178771972619252,-1.07861328125,-0.904296875,0.0006598908276833455,0.025656209786602095,1.027694773597575,0.95611431804,1.10171289296,0.0003894473876763456,0.019709737928423978,948.1246122910654,947.8962944866,948.64265288965,0.015085799939875213,0.7463584030499533,0.12267063805175844,0.00017362790383317823,5.416312074837856,0.68,0.32,2.069516908934973,Null
0.076251525875075,0.02661132812,0.16320800781,0.0006899160960127899,0.02623340057584525,0.22201385497695,0.02001953125,0.33020019531,0.007778617427384661,0.08808615602815348,-0.9963937377889499,-1.04113769531,-0.95935058593,0.0003482903034998293,0.018639194664498777,1.0278530002614001,0.97564778785,1.06405240836,0.00021846549024850446,0.014762090858780243,948.0788376338962,947.93623721467,948.2665563721,0.003511499889848566,0.3303191574300399,0.0591837911942446,0.0002692365391296448,1.3701713259680464,0.58,0.42,0.6360054217675278,Null
0.022096862790175004,-0.0205078125,0.07092285156,0.000470722262247672,0.02166899759084515,0.237492980953525,0.15478515625,0.29284667968,0.0010244046117021512,0.03196628849542743,-1.0005316162074251,-1.02160644531,-0.97644042968,0.00010092125465186998,0.010033391825062963,1.02931457064815,1.00860958958,1.05038290024,7.221769644657134e-05,0.008487470306602251,948.0856127804337,948.01190320271,948.17379855906,0.0008328627727826305,0.1618953563499872,0.028823265183713552,4.320239242668425e-05,1.5699514170703317,0.47,0.53,0.2652783692064761,Null
0.021305236813625,-0.03125,0.04968261718,0.00030062452503617067,0.017316840465962036,0.25820404052335,0.23840332031,0.28723144531,0.0001471566891665438,0.012115642675633325,-0.9946215820272001,-1.01513671875,-0.9677734375,8.931608726191567e-05,0.009438898084191866,1.028030547677675,0.99932512219,1.04850166539,8.448991737703168e-05,0.009180342726913255,948.0839531995284,948.02560036443,948.15827287977,0.0004469032990656158,0.1326725153400048,0.02111364584381276,7.782447151600084e-06,2.769849144074364,0.54,0.46,0.6104614289957103,Null
0.015476684568349998,-0.0654296875,0.05920410156,0.0006116877935741818,0.024701388100474158,0.163369445796475,0.01037597656,0.32336425781,0.010709564167495732,0.10335758441970765,-1.008063964839875,-1.04528808593,-0.96325683593,0.0003505957365738048,0.018700781995209994,1.0269410765121751,0.9868838718,1.05354915221,0.0001326971818559482,0.011505017987874176,948.0802933855405,947.97397414593,948.29520889795,0.002371953603179561,0.3212347520200183,0.0486417898434218,6.30781947164409e-05,6.279810701912755,0.55,0.45,1.6375801302884727,Null
0.05150451659919999,-0.08178710937,0.15734863281,0.00284503948360518,0.05327219617113759,0.24262268066055,-0.06860351562,0.44458007812,0.022173447204878974,0.14872126138137337,-0.98742736816015,-1.12268066406,-0.89147949218,0.0016113342643575028,0.04009122009488623,1.03086257357945,0.97955697055,1.12268882019,0.00041793342022079495,0.020417849707308627,948.0971737616242,947.95679128326,948.24901784888,0.003419484697045439,0.2922265656200125,0.058403218963536806,9.133421368484284e-06,0.3511851730625821,0.49,0.51,-0.10754089547811488,Null
0.0497952270475,-0.0380859375,0.10009765625,0.0009564971190503155,0.030888604310533193,0.26509704589592503,-0.08618164062,0.41979980468,0.02622960495652144,0.16175299361721296,-0.97656555175385,-1.041015625,-0.93408203125,0.000705642798406735,0.026530712229616418,1.02669570845085,0.9792839582,1.06852789182,0.0001546095356938325,0.012418655799022611,948.0988430190835,947.96336698288,948.33796616988,0.004070495910607514,0.374599187000058,0.06372063771519393,8.533066991368347e-05,2.525602870287785,0.58,0.42,0.9767982147055705,Null
-0.075982666013,-0.23388671875,0.07214355468,0.0034147001670097217,0.058362345879789626,0.17551269530935,-0.04772949218,0.29736328125,0.007972906705186262,0.08917945076318476,-1.00366149901955,-1.06274414062,-0.92761230468,0.0005010147586985672,0.022355362260581258,1.0272726359395,0.93611269666,1.08049277129,0.0004855216933206094,0.02200699636677636,948.0814582784296,947.94584583734,948.28080412676,0.004217694894399969,0.33495828942000117,0.0648625520401716,9.43166028100817e-05,1.3128176211731262,0.58,0.42,0.7392002610645216,Null
0.060119628902775,0.0,0.33801269531,0.0069036391892949795,0.08298421591677385,0.013701477049099998,-0.55297851562,0.15319824218,0.007985101810799446,0.08924762773470479,-1.0187289428669,-1.09155273437,-0.92944335937,0.0005143066657124186,0.022649964658871712,1.0278975177613001,0.97175115581,1.12578153616,0.00040299981218617137,0.02004974594990435,948.1406962679763,947.93454985824,948.8620404523,0.024873705276924857,0.927490594060032,0.1575167324881155,0.0004581735375649881,12.240189831992698,0.91,0.09,3.550946674940787,Null
0.12882507323825002,0.08325195312,0.20544433593,0.0005535107324263576,0.02349738188810174,0.04965209960659999,-0.17224121093,0.15783691406,0.0057390684394190315,0.07566188451473095,-1.01293029784745,-1.10046386718,-0.93566894531,0.00042068673517040744,0.020484994955637197,1.0253419521278502,0.94032565102,1.12353582601,0.0004605340710579377,0.021433215714873326,948.0820863838203,947.70940978757,948.7195420689,0.026410063672477144,1.010132281329902,0.16230846716451963,0.00036331955599504744,5.586860978076464,0.56,0.44,1.6011872907350995,Null
0.267991943356,0.02001953125,0.77856445312,0.06971737806504934,0.2637102285082752,0.05479125976315,-0.14270019531,0.20385742187,0.005125709157883979,0.07150450954303002,-0.9314764404255998,-1.14318847656,-0.45092773437,0.022833602260811416,0.15091891284779185,1.0187422260414,0.81151357706,1.15390590236,0.0020720777536237544,0.045463145065423,948.0788657896867,947.92679273696,948.34652807055,0.005358804888891016,0.4197353335899834,0.07311229634383527,4.989634447752781e-06,2.6597386585684646,0.53,0.47,0.9840004077436875,Null
0.23954467773080002,0.00451660156,0.56591796875,0.019924545833433262,0.14097778005363,0.43536651610974997,0.16918945312,0.68762207031,0.019831863030583256,0.14064950541330318,-0.8777136230432749,-1.03344726562,-0.75842285156,0.002313514507203926,0.04803884595757808,1.0290027079296251,0.96473635334,1.08588954078,0.00042610094415708325,0.020616393763136426,948.1023640329414,947.92680400739,948.23643016206,0.0026938325134859063,0.30962615466989973,0.05183722535207871,4.55492949669849e-05,2.631742246776388,0.47,0.53,-0.14529445250534273,Null
0.10772766112949998,-0.0537109375,0.291015625,0.004504925773966158,0.06703479290287427,0.5860211181600501,0.49621582031,0.80297851562,0.004777806381438466,0.06903522191957429,-0.8423071289025501,-1.02551269531,-0.68383789062,0.005469823505045688,0.07386574948027722,1.03665923764715,0.90300007685,1.24338016594,0.004572028647130049,0.06753220398826196,948.1078036234123,948.05580498185,948.21168061204,0.0009258251090183135,0.15587563019005302,0.03038931631751145,4.496683030258637e-05,1.7365452212941737,0.66,0.34,1.1582930682954014,Null
0.11358551025065002,-0.01306152343,0.35095214843,0.008326723087726943,0.09113674494959553,0.4514141845666749,0.16174316406,0.6572265625,0.01843427924253573,0.1356030735065743,-0.899252319332325,-1.02563476562,-0.7353515625,0.006133555385636529,0.078219060958135,1.028144383843875,0.93886397003,1.17924271339,0.0010652784813312522,0.03259778037118362,948.1111018440389,947.98808264261,948.39744950906,0.004944813739309044,0.4093668664500001,0.07023141537062151,-7.409269794580496e-05,5.5005664668034076,0.51,0.49,1.72713383248346,Null
0.03133850097475,-0.06652832031,0.18994140625,0.002780428646224488,0.0526638165594645,0.3521496581993999,0.0107421875,0.478515625,0.013914719917149957,0.11781312794997457,-0.959301757808,-1.13171386718,-0.91259765625,0.001545449396684598,0.0392630331634336,1.0308806144931,0.94221863576,1.17339268635,0.0007333344118094635,0.027046276560368523,948.1156451217021,948.01735876315,948.34210303951,0.0025918645141775496,0.32474427635997927,0.05084667986104998,4.792446992095385e-05,8.271827736381608,0.6,0.4,2.4119646933230072,Null
0.0425054931624,-0.1005859375,0.17370605468,0.003863094040608126,0.06207605259282041,0.08489074706725001,-0.171875,0.31384277343,0.007853807727031002,0.08851086491337334,-1.02772094726225,-1.29711914062,-0.84582519531,0.011122878660071908,0.10533314513210801,1.0377330304968,0.84708217219,1.29843200149,0.011144200219467422,0.10543405388639267,948.1125965300912,947.96009223936,948.41365406224,0.006683002271289791,0.4535618228799194,0.08164738064146067,0.00022142750995442283,2.3069152829584025,0.53,0.47,0.963593035592131,Null
0.19605163573895,-0.04064941406,0.42065429687,0.00989545649408246,0.09935148641488588,0.50437866210795,-0.236328125,0.97448730468,0.21389943903470948,0.4619141591650149,-0.67981994628515,-1.2470703125,-0.18200683593,0.07462299225329008,0.272830413943638,1.02383183575635,0.76975596482,1.25056412603,0.004440554573044213,0.0665541372614175,948.1254431901532,947.87793033066,948.49695058625,0.012067965355873142,0.6190202555900441,0.10971688768135678,3.154220919949279e-05,1.4603004676183327,0.58,0.41,0.9073743951647112,Null
0.060315246578850006,-0.11535644531,0.35571289062,0.007296459671658377,0.08531247577276861,0.40272644042579997,0.24755859375,0.85681152343,0.03803200197055311,0.19477402795451637,-0.9144216918909001,-1.07507324218,-0.58374023437,0.017986419867198223,0.13394571220285562,1.0315813466045,0.94537237466,1.12467322637,0.000978958443304191,0.031249176744290886,948.1147654635471,947.86544469568,948.34020071768,0.007108806477178639,0.47475602199995137,0.08420828024004345,-0.00020205613052441595,0.8982697941543938,0.55,0.46,0.2376482972618437,Null
-0.005769958498125001,-0.78869628906,0.24291992187,0.018937177689598017,0.13744029520258613,0.2572106933565,-0.28369140625,0.74914550781,0.013015211824853924,0.11394153674271638,-0.9878298950159001,-1.09033203125,-0.55810546875,0.007669849294036513,0.08746813517391017,1.038380406576225,0.67592661181,1.16301569498,0.0032960893585068053,0.057339769227914915,948.0317854736096,947.64128155181,948.12798680927,0.012543746639406723,0.4867052574600166,0.11185878272539983,-0.0007233398285686853,2.506290185522693,0.28,0.71,-1.756778398332017,Lift up
0.29304595947022505,-0.48767089843,0.77770996093,0.0757750211855178,0.27492832453669447,0.549565734860175,-0.61633300781,1.29150390625,0.23436413299123673,0.483506176443237,0.12822509765562504,-0.91723632812,1.27111816406,0.27767968855147585,0.5262941091539,0.982223808118875,0.4336331152,1.41977050163,0.026795925501952624,0.16348986417572725,947.3542103318132,947.15118606168,947.75052441293,0.027930137481511002,0.5993383512499122,0.16691408609763053,-0.0013318476728428198,-0.8410515251270758,0.54,0.47,0.6406917473593388,Lift up
0.495231018062975,-0.13244628906,0.75524902343,0.04231040927240016,0.20543766268437527,0.6725320434529,0.28674316406,1.05224609375,0.04205908872721774,0.20482661205370678,0.4444049072227,-0.04504394531,1.052734375,0.08013104482373641,0.28272021012244075,1.023052423272525,0.74895224301,1.29005087328,0.012533195982172018,0.11181173011905587,947.2051481426341,947.18918638365,947.22512798927,5.5269750934526884e-05,0.03594160561999615,0.007425064077648796,8.833240355224649e-06,0.33567048462324234,0.53,0.47,0.43942781504985884,Null
0.4828268432579,0.21789550781,0.83972167968,0.0130930973427633,0.11428195220333957,0.8690673828089,0.65478515625,1.10852050781,0.008723958094363335,0.09328530537618145,0.160273132320675,-0.04174804687,0.35498046875,0.010241627778112952,0.1010743474313224,1.0192009010814749,0.84477698555,1.26099014503,0.00748680202420072,0.08641808270923522,947.2097976933994,947.19909975898,947.22211474234,2.4331247301547595e-05,0.023014983359985308,0.004926501718592386,1.7547152828837178e-05,-0.4256244120383186,0.59,0.41,0.3136992160944571,Null
0.5966653442343249,0.26513671875,1.02392578125,0.026178433762032972,0.16159513506794654,0.6604211425747749,0.25622558593,1.16223144531,0.045121828582126995,0.21215330308687555,0.4449707031216249,0.09509277343,0.77001953125,0.023529013147374354,0.15319983882010424,1.01107265127545,0.52657936646,1.53325574748,0.06264545499133474,0.2499776817115008,947.4914607239297,947.34786401061,947.606770577,0.0053527274697856946,0.2589065663900101,0.07307082626542026,0.0006124611944621688,-1.1190158289039454,0.43,0.56,-0.4166373701246573,Stairs down
0.5538143920866,0.4140625,0.89953613281,0.008553622199794718,0.09237011499557218,0.68566436767225,0.35827636718,0.95764160156,0.008312822973071001,0.09106064416441564,0.503992004390875,0.27392578125,0.70935058593,0.0066846180229917325,0.0816572500022763,1.0197144093925998,0.64670738683,1.38576785514,0.014565067954530211,0.12053487165399018,947.6316120662076,947.606770577,947.64257896841,4.741393792876326e-05,0.035808391410000695,0.006877165337836611,2.1785967023693413e-05,3.5324774456435026,0.35,0.65,-1.8498280225997106,Stairs down
0.591249389644175,0.44226074218,0.70849609375,0.002894222359547252,0.053730687727297735,0.723922119136825,0.58642578125,0.92553710937,0.0029597232081546316,0.05433529147924252,0.38026580810140004,0.22448730468,0.61938476562,0.005437053289513857,0.07364414882589161,1.01408154677785,0.91421841652,1.12170293917,0.0011454115183723741,0.033801597441192675,947.6354153311756,947.62427598628,947.64625471799,1.686106794632884e-05,0.02197873170996445,0.004101087084720711,1.2578880237232147e-05,0.21525046968642725,0.52,0.48,0.08245462682918085,Stairs down
0.5557443237266,0.23840332031,0.81469726562,0.01301506901432868,0.1139409116243716,0.659223937984575,0.4140625,0.94848632812,0.013188526984302389,0.1146976707123629,0.495644226070375,0.23376464843,0.76220703125,0.0105781828804932,0.1027216502169429,1.004137915499525,0.70038333001,1.43193749007,0.01753185332642446,0.13224229162075346,947.6376722736575,947.63083078928,947.65321975114,2.541834766159295e-05,0.022388961859974188,0.005035355180366025,-2.834967509568222e-06,0.5319105721504003,0.6,0.4,0.9139585381321869,Stairs down
0.50920135497655,0.15441894531,0.82373046875,0.01839371387827442,0.1354537913591891,0.6626364135705249,0.28137207031,1.19213867187,0.04350675424701295,0.2083218360167638,0.5529464721638999,0.29516601562,0.89001464843,0.017677184313373225,0.13278927423775533,1.0103385932828002,0.55345088496,1.59185569982,0.0628746594596979,0.25043456792353697,947.7455856295579,947.65093913147,947.85772835686,0.0031677452895098788,0.20678922539002542,0.05621232895269599,0.00047304701558248315,-1.0220216142939995,0.59,0.41,0.4760686222878874,Stairs down
0.534147338863175,0.30603027343,0.68786621093,0.007135285019231211,0.08436496196101277,0.617463073726425,0.37634277343,0.88146972656,0.009496549559075555,0.09732835242198372,0.5977008056603499,0.26977539062,0.85632324218,0.017120042492182342,0.13067992342342372,1.024649419533175,0.85593121365,1.33806701945,0.007600345412018331,0.08707091677758012,948.0806441954899,948.07012222177,948.09124446872,2.19039929074638e-05,0.021122246949971668,0.004674316305642478,1.722862558365625e-05,0.04399726226100009,0.53,0.47,0.19032935488662914,Null
0.4756521606407999,0.20275878906,0.76306152343,0.014609676527651341,0.12071931219292219,0.6551083373983999,0.29174804687,0.9990234375,0.01752789364494158,0.13222735689269913,0.59525970458655,0.3388671875,0.86486816406,0.013778954556816552,0.11723697015201523,1.012233256690825,0.68867299409,1.39664109957,0.031009117818821465,0.1758738042582647,948.0832959702019,948.07082872954,948.09785786439,3.357933063261089e-05,0.027029134849954062,0.005787519529645612,-2.4949325352379154e-05,-0.32803870598155394,0.54,0.46,0.2365148218514116,Null
0.524078063960825,0.20031738281,0.9833984375,0.02350462276618449,0.15312041408404375,0.5216024780236249,0.03234863281,0.85144042968,0.03714565714562948,0.19249102057697498,0.6099194335897251,0.05895996093,1.13659667968,0.05794064111875756,0.2404075487915483,0.9904335890740498,0.59699671637,1.44165788433,0.05620493938884007,0.2367792791617712,948.1827463079643,948.09342456188,948.29568498877,0.0031897814376834403,0.2022604268898931,0.05640750822443083,0.0004719446320864298,-0.9267076396030896,0.6,0.4,0.45573003104165344,Stairs down
0.43298645019167503,0.19970703125,0.69384765625,0.013489873029407734,0.11600063942424721,0.42822540282839994,0.10607910156,0.69543457031,0.0170071082753996,0.13024818810529035,0.8277804565394,0.51147460937,1.16345214843,0.029013526708543885,0.1701205246046829,1.0344959708584751,0.71038961783,1.48215224335,0.04536798388897344,0.21273120111833854,948.4076563725472,948.29568498877,948.49134373274,0.0028488040245883244,0.195658743970057,0.05330742926203489,0.0004466619253808563,-1.0786075518915406,0.46,0.54,-0.5160401689762111,Stairs down
0.49179748534814993,0.29846191406,0.89819335937,0.014200395688812845,0.11901636315898252,0.478696594234575,0.12573242187,0.7138671875,0.012701298579467276,0.11255907485857641,0.7476910400349,0.3896484375,1.10314941406,0.0179976985683834,0.13398770212957023,1.020642301292375,0.63723164361,1.5545609437,0.03321656585937947,0.18202616417628267,948.5256408641432,948.48694004191,948.53772833273,0.00011771189335486945,0.05078829082003722,0.01083594082770307,5.994925147217182e-05,3.488634465752149,0.26,0.74,-2.0180346029736214,Stairs down
0.48350036620747505,0.23010253906,0.7978515625,0.013762566197426333,0.11716722998318586,0.548716125484225,0.24475097656,0.8193359375,0.014638370524919479,0.12083780285410349,0.6890475463824001,0.43688964843,1.05322265625,0.015249278962281662,0.12333351436197688,1.0114300839519,0.63928386985,1.50625318234,0.030274473273040156,0.17377798217800078,948.5520653934243,948.51848197899,948.60854109505,0.0008923713217416379,0.09005911605993333,0.029835220686921085,0.00022372653175687404,-0.9962792029855336,0.66,0.34,0.8170872035974149,Stairs down
0.55819824218335,0.35009765625,0.85290527343,0.009476117582852439,0.09722359430146217,0.634447937008175,0.33935546875,1.06274414062,0.030399346254282943,0.17413600399873438,0.558347473141175,0.32629394531,0.81066894531,0.013187878072081412,0.11469484895539646,1.01990606235095,0.75058866287,1.46461906744,0.038680371578803815,0.19642726554594403,948.696069714909,948.60197844638,948.81033237139,0.003940814256215843,0.2083539250099875,0.06269738607450316,0.0005411871156519707,-1.258982498957214,0.51,0.49,0.10326233003678821,Stairs down
0.5502795410116,0.28527832031,0.70959472656,0.009308197413169638,0.09635832563736624,0.6961083984338,0.51794433593,0.9169921875,0.004266796697709288,0.06523901981149789,0.46753051757420006,0.22473144531,0.720703125,0.013939782938253362,0.11791918198879997,1.0149232567344,0.84941925903,1.24622270162,0.0033443945260231843,0.05775840665832227,948.9783938719434,948.96869068238,948.98895811573,2.0684040265480536e-05,0.02026743334999992,0.004542282484040027,1.4791218735281035e-05,-0.4058024702953711,0.55,0.45,0.3269074093645921,Null
0.44919830321939996,-0.0478515625,0.74560546875,0.03594535005747393,0.18935545062746476,0.6091256713831249,0.20739746093,0.89672851562,0.028992115191798017,0.17005773991153275,0.599389038082125,0.21752929687,1.15673828125,0.03342655849296393,0.18260063553211286,1.0109712270406999,0.76992158623,1.20747071818,0.008167577598959754,0.09026161229981633,948.9810651230492,948.94506315524,949.03709881995,0.0002348590494127647,0.09203566471001068,0.015305943348556885,-3.6126221679079145e-05,2.4004758383066216,0.53,0.47,0.8212526070447973,Null
0.1841674804668,-0.12341308593,0.77270507812,0.07103830755084999,0.26619675389075065,0.8426245117150001,0.27978515625,1.13159179687,0.06997365747765212,0.26419448013529345,0.20063720703239998,-0.23278808593,0.87622070312,0.1235145670346405,0.3510068099297418,1.0218592120306,0.81809008043,1.26719968463,0.00386765310489987,0.062112671590727926,948.9880647325278,948.94121922093,949.04623580635,0.0003394884564690048,0.10501658542000314,0.01840216659330722,2.3472339541459793e-05,1.895993320569879,0.54,0.46,0.4588437551643742,Null
-0.009097900390099998,-0.21203613281,0.39685058593,0.011325059215854858,0.10628615416795935,1.0046862792928002,0.72546386718,1.18823242187,0.00541642700958774,0.0735043260091797,0.09127929687309999,-0.033203125,0.38549804687,0.01222047773489038,0.110408000346683,1.0204924408732,0.73054869107,1.23225035282,0.005307206815288375,0.07275945847963791,948.9910269996203,948.9733427433,949.01000587456,6.215785440717206e-05,0.03666313125995657,0.007874164068087108,-7.254587095797751e-06,0.10671505773284728,0.51,0.49,0.03929366812094551,Null
0.1872766113253,-0.11169433593,0.6328125,0.02574465330211156,0.16025071503383778,0.7048669433556001,0.27111816406,1.17712402343,0.07034981306175851,0.26490364008277445,0.5773339843711,0.02551269531,1.02893066406,0.08007848247245065,0.28262746905824554,1.0157003412988002,0.61149771534,1.33070585027,0.009333132477062148,0.09648730302930791,948.9891014070777,948.95646200959,949.03679931583,0.0001979947068943658,0.08033730623992597,0.014053459365121809,7.75441712709172e-06,0.6981991890537387,0.52,0.48,0.6332803546085479,Null
0.3154248046835,0.27258300781,0.3876953125,0.0011292157973870993,0.03356177524943565,0.6282238769499,0.56408691406,0.67065429687,0.0006271574117770731,0.02501178758600893,0.7432165527306,0.65356445312,0.83923339843,0.0023309904396616654,0.04821994362877783,1.0246837426162,0.98961404786,1.08678962701,0.000630841194690061,0.025085136868339703,948.9850717758259,948.84946018429,949.02203439673,0.001175099135703705,0.1725742124399403,0.03423684255103624,-0.00016582157123992968,5.511311027493221,0.22,0.78,-2.4173245287536242,Lift up
0.2492553710899,0.03369140625,0.33288574218,0.0056447264244927145,0.07503742138714178,0.6025976562462,0.56311035156,0.69909667968,0.0005480661965751167,0.023381531837834726,0.7617346191370998,0.66906738281,0.81579589843,0.0008735497358938803,0.029518906848901866,1.0059274528144002,0.91558921503,1.05606646636,0.0006520716780810278,0.025503754603701495,948.4356584309614,948.11287665919,948.83810601704,0.052228813445537925,0.7252293578500257,0.22825039192063631,-0.0019693132190056655,-1.3045357257449721,0.51,0.49,0.14258347205624744,Lift up
0.37517578124589995,0.13562011718,0.63171386718,0.016280799378084857,0.12743664064796925,0.6613757324175,0.49267578125,0.87133789062,0.005089623137774926,0.07125236192527577,0.6576599121056,0.39184570312,0.89636230468,0.01316302622621208,0.11458672986278363,1.0196571221786999,0.89317110093,1.21762168446,0.005451383025725531,0.07374113213235349,948.1023397349214,948.09240164214,948.11854344193,3.295158888261852e-05,0.02614179979002529,0.00573316752854929,-2.1991686093960623e-05,-0.13788071849800732,0.54,0.46,0.3996523602844958,Null
0.41156646728159996,0.16796875,0.70776367187,0.012471154029532822,0.11153464100654555,0.715803222652325,0.42004394531,0.87915039062,0.005933658975002349,0.076933899079436,0.57417724609,0.38513183593,0.85070800781,0.009105640909798395,0.09530412796686143,1.0164642392851249,0.81159597318,1.2432250542,0.005697091242724377,0.07538467028924094,948.0994436761889,948.09115675108,948.11083170123,2.0799354463331905e-05,0.01967495015003351,0.004554926572094612,7.62141140954926e-06,-0.02095080140260963,0.52,0.48,0.46060222921639327,Null
0.3064147949181,0.08471679687,0.50122070312,0.0053109451568066745,0.07278507947316303,0.5083972167932,0.1640625,0.869140625,0.023247677668975317,0.1522811822741171,0.8323620605435,0.59741210937,1.19604492187,0.02313318745395015,0.1519057421077797,1.029609892258,0.67942936698,1.48268243763,0.03674226259617859,0.19144296001600097,948.3204324568223,948.20138117871,948.43194731578,0.0043531557447010925,0.2305661370700136,0.06589592442131258,0.0005690127141183524,-1.1803116103714812,0.49,0.51,-0.04895080835636713,Stairs down
0.2515588378862,0.08288574218,0.49938964843,0.009797472659509754,0.09885837838980052,0.44437988280810004,0.13073730468,0.75756835937,0.013384239572073802,0.11554557098021377,0.8756140136678999,0.6494140625,1.17919921875,0.01393976320760053,0.11791909853616389,1.0219138279087001,0.72928333484,1.39716459127,0.020226596669013126,0.14204235346311533,948.4975221506061,948.43002401373,948.54644125564,0.0012093075636813052,0.11641724191008507,0.034731603688457895,0.00028673070855896515,-1.5186886042727146,0.47,0.53,-0.20488863278718894,Stairs down
0.2738928222621,0.07080078125,0.4775390625,0.008132785440557228,0.0900691594107319,0.5549999999965999,0.3173828125,0.71948242187,0.00766960669870389,0.08746675186582116,0.8012634277305,0.615234375,0.99670410156,0.008301926249219717,0.09100094193796385,1.0189001830333,0.85313724886,1.23947682711,0.010979281514076327,0.10465100721106863,948.5327174395264,948.52025692619,948.54410961535,2.836352988485385e-05,0.0238526891599804,0.005319080847302635,-2.7569517493770885e-05,-0.5126109778942873,0.52,0.48,0.36522814667730175,Stairs down
0.242441406246175,0.076171875,0.46081542968,0.006394634399108364,0.07986643733828744,0.5498928832968499,0.13952636718,0.88732910156,0.019455635390752023,0.1393089957693872,0.8181393432581001,0.52099609375,1.18200683593,0.019656672117562442,0.14002689183606318,1.020702332573425,0.63955912658,1.52223861666,0.03407982927525984,0.1843763263059325,948.5805821948383,948.52572339924,948.6567093727,0.0017414887846393305,0.13098597346004226,0.04167895227423228,0.00035048003617818563,-1.519883624755743,0.52,0.48,0.10720717502161053,Stairs down
0.26470611571887503,0.05358886718,0.48046875,0.005447349067957479,0.07371384330834735,0.41431793212485,0.16101074218,0.73327636718,0.018693359258816124,0.13655264867687145,0.8959555053677251,0.57250976562,1.27709960937,0.03427081444123147,0.18489223186799492,1.027988615936575,0.67943372044,1.45464566351,0.0468609196776601,0.2162030697711435,948.7906203565456,948.66163498654,948.89908742966,0.005290770653096619,0.23745244311999159,0.0726467048562003,0.0006264212412545745,-1.264261046736166,0.48,0.52,-0.11362284185057535,Stairs down
0.30629394530812504,0.12829589843,0.57580566406,0.008915462954106564,0.09430362822670874,0.46131439208637504,0.05139160156,0.69934082031,0.01537660354134802,0.12384733357038677,0.846140441890725,0.58337402343,1.25830078125,0.019380290603931052,0.1390389868972772,1.020575438408025,0.69685516243,1.41361575683,0.024631125221782763,0.1567467620358657,948.9495897265937,948.89499807124,948.97474314499,0.0005335501692348387,0.07974507375001849,0.023069813475876902,0.00015051407743114516,-0.10678663044619086,0.28,0.72,-1.1815268589362489,Null
0.36429260253565,0.10766601562,0.62109375,0.012212748049203864,0.1103730772384319,0.5848703002891,0.40515136718,0.75756835937,0.004927591963720992,0.07010900786497902,0.7357098388632249,0.56359863281,0.91577148437,0.005689955008304615,0.07533744169258638,1.0176821616805751,0.92285785975,1.20326918815,0.003321110196499587,0.057556992807202306,948.9662538673202,948.95519658988,948.97566594486,1.958061879020788e-05,0.02046935498003677,0.004419464587846853,-4.500665427824443e-06,-0.6323156668428407,0.52,0.48,0.027756905925895813,Null
0.4202633666955001,0.35314941406,0.4697265625,0.0005292945710955196,0.022977626828455996,0.588007812496625,0.51965332031,0.69555664062,0.0011020162111603355,0.03315510776083279,0.7063986206012001,0.61450195312,0.79760742187,0.0014910842720369285,0.03856626195727084,1.0120751872953,0.97777453167,1.04644294619,0.00019238141453996907,0.013852814190756301,948.9718126324783,948.96023294,948.99252567812,6.840971122185138e-05,0.03229273812007705,0.008260671095243822,5.9381481561870966e-05,0.010604921125339839,0.67,0.33,1.0319194931101336,Null
0.405780334468875,0.154296875,0.50915527343,0.004603422289288061,0.0677636608630676,0.5638543701134501,0.49194335937,0.61804199218,0.0007282016118124982,0.026951458360967535,0.7335870361292001,0.63024902343,0.88500976562,0.0022776243826152466,0.04766477023608431,1.0139815408863,0.98022514143,1.05217657368,0.00017145866869719425,0.013077844701075604,948.9905576130777,948.97737245995,949.00074727398,3.928894321474268e-05,0.02337481403003494,0.006260249264742245,-2.3697630735869753e-05,-0.926252898129662,0.48,0.52,-0.26020148009726346,Null
0.30258605956607504,0.09997558593,0.57556152343,0.00945572168572995,0.09711890846542513,0.5875653076138749,0.41003417968,0.81372070312,0.008186384964987074,0.09036547461599816,0.76976440429375,0.57043457031,0.98364257812,0.009988311267645203,0.09981653414878765,1.020071809485575,0.80579752423,1.2653049547,0.016384358536078492,0.12784129864694857,948.9635891080566,948.94563789446,948.97686510703,3.5855019991604565e-05,0.03122721257000194,0.005980416577599386,-4.208791853575436e-05,0.1623715133968946,0.51,0.49,0.14330729115231286,Null
0.5025967407192501,0.24072265625,0.69250488281,0.013680031473538789,0.11681537311011313,0.610328063961325,0.2294921875,0.92199707031,0.021949291982790515,0.14796762738124017,0.595986633296975,0.39111328125,0.84289550781,0.013428526392202707,0.11573657622472769,1.01237570961665,0.8267529836,1.19721716554,0.004345387783327544,0.06583710438551521,948.9597778376381,948.91079861832,949.00690775823,0.00037934277894750607,0.0961091399100269,0.01945236288989431,-9.599679910779014e-06,1.4506390483881733,0.55,0.45,0.31097404787164384,Null
0.6115100097617,0.52429199218,0.70275878906,0.0020955237813327803,0.0457196344241667,0.503986816402675,0.36584472656,0.72546386718,0.004459464376680497,0.06669569488159484,0.3794674682599249,-0.63696289062,0.73278808593,0.23637321539512657,0.48557417801674624,1.0060361639024251,0.85324844962,1.08319247763,0.002160283289427019,0.04642071284678265,948.7714759249099,948.43970819234,948.98058031583,0.027214158029662164,0.5408721234899758,0.1647608043030502,-0.0013743830658935498,-1.362441486996107,0.48,0.52,-0.21721422866354814,Lift up
0.513271179195675,0.2998046875,0.8017578125,0.008010881551963419,0.08939157873135203,0.6307687377894,0.45788574218,0.91125488281,0.011837565976617448,0.10866449310458272,0.588742675777525,0.32312011718,0.82214355468,0.011396273479054692,0.10661980489269832,1.01653268667995,0.83543610019,1.20580373153,0.005776790341469591,0.07591013348437688,948.5085759784533,948.47972968464,948.53639363169,7.858793480294471e-05,0.056663947049969465,0.00885389546843294,-2.863181953897075e-06,2.124047997170198,0.44,0.56,0.18698311297125514,Null
0.566636047359725,0.25219726562,0.72021484375,0.007679007461109772,0.08752034016419839,0.5504498290973,0.41979980468,0.74108886718,0.010150006372681436,0.10062122716777872,0.5936791992150999,0.13488769531,0.94384765625,0.029294212862475688,0.17094144415652834,1.009230873248675,0.80550788984,1.30763414983,0.004997372647501188,0.07060367707054949,948.5093442106512,948.49770614018,948.52021757596,3.0360893070165726e-05,0.022511435780074862,0.005503180065879211,6.0784884819537984e-06,-0.5576162556442097,0.47,0.53,-0.11057338501919184,Null
0.5101742553673749,0.2763671875,0.80432128906,0.009876511102068082,0.0992563339254121,0.5655825805629,0.2705078125,0.78857421875,0.013665847293524979,0.11675479722602908,0.64027709960545,0.26147460937,1.00891113281,0.025127216501283398,0.15831739784379412,1.0168074771177502,0.8711553988,1.26906459741,0.0047785924768285575,0.06904090088951972,948.506335418511,948.48818682665,948.55954249561,0.0001689062618839305,0.07135566895999546,0.012980138528891773,-3.672657300001324e-05,4.218337542972585,0.6,0.4,1.716605140353189,Null
0.47501373290635,0.37097167968,0.56848144531,0.0017105943703322674,0.04130760080670913,0.5265646362265,0.41418457031,0.56726074218,0.0006979027366914065,0.026384805852036848,0.7011444091759751,0.58813476562,0.80358886718,0.0015783271003335405,0.039678473793515634,0.9988294936049,0.88617191173,1.06160977178,0.0008304210007129343,0.028780982405247253,948.7131610787338,948.49219125379,949.10430417808,0.04008437683232352,0.6121129242900452,0.19996041080734633,0.0016878351498683733,-1.2307103514842535,0.55,0.45,0.42868372604925314,Lift down
0.542685852046925,0.46716308593,0.63830566406,0.001432407345904144,0.0377998191469137,0.5840863037071249,0.47229003906,0.65698242187,0.0018071438551756692,0.04245734324634232,0.6182351684531749,0.47546386718,0.72570800781,0.004110465494840198,0.06403272078479172,1.0121324086037498,0.88997760465,1.07827862736,0.0008010995620443971,0.028268300499663685,949.524998415976,949.10430417808,949.94987171006,0.05883402805367851,0.8455675319800093,0.242253881255893,0.002096223696296177,-1.18982993757113,0.48,0.52,-0.00582739820390585,Lift down
0.528657836910225,0.30310058593,0.80700683593,0.01057761944583378,0.10271891450565078,0.60712097167635,0.26220703125,1.03344726562,0.012601173667562388,0.11211454291657921,0.29561248779205007,-0.60729980468,0.90051269531,0.2728426519932876,0.5216900855520492,1.010858956808925,0.7595675291,1.26065275316,0.00892961067627607,0.09437842258474857,950.0534206406933,950.00764214983,950.1557870633,0.0006363197520530367,0.14814491346999148,0.025193827670143814,2.6217027690284663e-05,8.272330164491994,0.69,0.31,2.494560801714196,Null
0.635777587886675,0.22570800781,0.76550292968,0.013227269925835502,0.11486601651933837,0.5117831420862999,0.26708984375,0.73449707031,0.004823114403564822,0.06936178066886627,0.12884826660084997,-0.67895507812,0.78393554687,0.3204174273900058,0.5653462512668946,1.009163630210725,0.83963216733,1.17477905296,0.0020448781518535492,0.045163768182846696,950.0333395134317,949.87000355892,950.10858382033,0.0014593395774884282,0.238580261409993,0.03815352183671525,1.4075365489487826e-05,6.4839923616719055,0.35,0.65,-2.0469276035838937,Null
0.31068908691055,0.16638183593,0.52770996093,0.005366617393089106,0.07316557147734434,0.6975708007776,0.48156738281,0.958984375,0.015782316824642248,0.12547055842938074,0.6602362060509,0.4130859375,0.95886230468,0.014879033768311343,0.12182707492134318,1.0151836446945,0.78716130239,1.31665528542,0.02444575861262993,0.15615583311582812,949.8496203664982,949.72733251176,949.96411963155,0.004627573792176006,0.2367871197900513,0.06794118675513083,-0.0005872544338778934,-1.140698499450621,0.49,0.51,-0.07328615763677089,Stairs up
0.28669921874615,0.13232421875,0.49438476562,0.0076913614081717315,0.08759071300458343,0.7208911132774,0.50341796875,0.982421875,0.014139164187318158,0.11875948920759917,0.65088073730145,0.4033203125,0.93383789062,0.017242150569189794,0.13114513026707023,1.01956197194025,0.76811461591,1.3135452763,0.02505719626252851,0.15809665800348907,949.6076924400894,949.4837530452,949.72733251176,0.004754692089031691,0.243579466559936,0.06886802856775495,-0.0005951171999697829,-1.1767262712598119,0.47,0.53,-0.08137129233271852,Stairs up
0.3657904052694,0.20251464843,0.54028320312,0.006035024166367834,0.07758825043749804,0.80580383300415,0.59533691406,1.04406738281,0.010971548025023705,0.10461414414390219,0.45159057616845005,0.07885742187,0.82580566406,0.036403492654816426,0.19055834781814043,1.01672229266475,0.83280660652,1.27408072252,0.006625369063133928,0.0812945609526006,949.4614370821066,949.45276920746,949.48569757427,4.558177076720764e-05,0.032928366809983345,0.006742982748034406,-3.3159108993649e-05,3.3808806608214974,0.63,0.37,1.6549162833716835,Null
0.39472534179345,0.212890625,0.57202148437,0.008358274215760915,0.09130924668521535,0.76657653808215,0.35632324218,0.95983886718,0.010785776914135865,0.10372469557367003,0.5042364501915,0.10437011718,0.77917480468,0.02503262199523587,0.1580191141610653,1.01630951312325,0.75916057314,1.27839214568,0.00890555075003057,0.09425119030100093,949.4463872131912,949.43732886709,949.45663753354,2.5345362664154613e-05,0.01930866645000151,0.00502812084754277,-3.593932920992032e-06,-0.7937047901717658,0.47,0.53,0.05606636333453716,Null
0.4033868408166,0.18029785156,0.67114257812,0.013061218811183986,0.11414274293250547,0.6460876464809999,0.26416015625,1.12353515625,0.042955251079234175,0.2069972534879052,0.6807653808554,0.43469238281,1.0859375,0.025242169565250015,0.15867912320572258,1.0299010269963,0.63876407436,1.57531910437,0.0641113398504824,0.2528854711146059,949.5497102243148,949.43732886709,949.66406936746,0.0037447853569367155,0.226740500370056,0.06111811019284197,0.0005221172966652409,-0.8908008670524978,0.46,0.55,0.04660965082878606,Stairs down
0.3370330810508,0.13854980468,0.57751464843,0.010670921174637502,0.10317094490068852,0.5071502685509999,0.21606445312,1.03894042968,0.02689162045141048,0.1637815355901939,0.8087689208950499,0.48779296875,1.181640625,0.03359303312750318,0.1830547747115175,1.01808147224485,0.63128932084,1.56523972165,0.059536502966468514,0.2436958385140221,949.791110111704,949.66406936746,949.88329421712,0.004482352180443838,0.21922484966000866,0.06686663069119551,0.0005722281484851091,-1.2637458698919335,0.49,0.51,-0.21843612772025292,Stairs down
0.39826171874609995,0.13598632812,0.82067871093,0.014966433006385907,0.12218435629764533,0.51595642089455,0.15478515625,0.84143066406,0.02398486773423643,0.1546767777169567,0.7698559570269999,0.51208496093,1.244140625,0.03598688336559331,0.1894648150902413,1.029835053347,0.61511987498,1.51530866664,0.03177165012287934,0.1780230911920477,949.9688392014784,949.88329421712,949.99394230458,0.0007386349782777999,0.1106480874599356,0.027143846279260156,0.00016901072561315342,1.181259233855144,0.28,0.72,-1.5636220172969844,Null
0.37910156249634996,0.12878417968,0.53002929687,0.011961178074548955,0.109230376404014,0.6470239257779999,0.34094238281,0.82678222656,0.0087648209413588,0.09350352340423009,0.6612597656218,0.48547363281,1.01574707031,0.009189092401867395,0.09573985414059667,1.0122179269837,0.84913718596,1.21022391674,0.004889829402437681,0.06983985129517092,949.9799119336739,949.9710227472,950.00599903326,2.4907010490328946e-05,0.034976286059986705,0.0049844501165226965,1.1359038512985618e-05,4.492945418554128,0.57,0.43,1.4770228768244649,Null
-1.0399564585254386,-1.29357910156,-0.74438476562,0.018567779154692293,0.1360927748535431,0.25990819333115284,-0.00939941406,0.45202636718,0.00939363270198546,0.09679922397872175,-0.1534182134992732,-0.3349609375,0.052734375,0.007725123086044668,0.08778246906588298,1.0903682074885717,0.79865901061,1.33121746968,0.019341595101758778,0.1388996757593953,949.6807851933105,949.53187944333,949.82910363145,0.006891206154081786,0.29722418812002616,0.08290919708158534,-0.0007118260928190644,-1.13811127165089,0.5,0.5,0.019888089607254505,Stairs up
-0.95109558105095,-1.35290527343,-0.18603515625,0.07319806548815157,0.27021300916949054,0.44718444823794995,0.11730957031,1.12487792968,0.05291959012623114,0.22975485011401947,-0.25800598144135,-0.54541015625,0.02209472656,0.0215586044850065,0.14664483616477597,1.14065661443335,0.71798762025,1.38064072751,0.017376820952333196,0.13165629077242136,949.4392919298001,949.3771597787,949.54620221433,0.0017674472384621362,0.16904243562999,0.04198843436431014,-0.0002511784184865856,0.16630475989964122,0.65,0.35,0.9626073910096932,Stairs up
-1.1254828017808478,-1.44677734375,-0.826171875,0.021762346073574638,0.14733660741263516,0.3277849687264339,0.11303710937,0.67504882812,0.0174512341452003,0.13193829943596802,-0.19385770193319202,-0.47485351562,0.0419921875,0.01603209094256884,0.12645991723033856,1.2020026520731921,0.8829531009,1.53927514016,0.022087939387413585,0.14843469016474156,949.3470133891631,949.20740130017,949.45058179927,0.003985899530080362,0.24318049910004902,0.06305521097421572,-0.0005045489914756958,-0.9928371361825095,0.49,0.51,-0.4148164863634601,Stairs up
-1.0431743421017292,-1.35974121093,-0.72448730468,0.017464234534355128,0.1319866073622276,0.3196932761549373,0.16333007812,0.57092285156,0.005677119529933979,0.07525218375691678,-0.21345080229521304,-0.46960449218,0.0263671875,0.01225728652393382,0.11057380570272107,1.119758314032832,0.77486251796,1.43139535486,0.017472775601501966,0.13201887813473626,949.0774535349344,948.92953428506,949.24553956375,0.007158928254282304,0.3160052786899996,0.08450435538010102,-0.000719514352669822,-1.0785927512942939,0.49,0.51,-0.003481512954462598,Stairs up
-0.424780334318379,-1.36511230468,0.82348632812,0.32802121065411216,0.5720167852847444,0.3964883323892769,-1.04077148437,1.22021484375,0.36120895231146544,0.6002567632745368,-0.1965937816565087,-0.73132324218,0.50708007812,0.06475507282499471,0.2541526880693229,1.0436992765863342,0.68622506659,1.82535547785,0.0402219431609333,0.20030386682057616,948.8518679820046,948.72034869568,948.96433477576,0.002282944469242035,0.24398608008004885,0.047720554700147924,-0.00034006593406971704,0.023806436934886932,0.53,0.47,0.24013832051633602,Stairs up
-0.813264770505175,-1.4287109375,0.58032226562,0.22284182390281534,0.47147080433793387,0.37098114013344996,-0.31494140625,1.09436035156,0.0758697953211865,0.27510020144100866,-0.2632943725553,-0.89318847656,0.30651855468,0.04252076012930044,0.20594770751085625,1.0878417256451,0.71888835238,1.52537773996,0.025393682454061223,0.1591546362753095,948.8212048840542,948.73428874762,948.89157564843,0.0009928184317330013,0.1572869008100497,0.031469610510040776,-9.754984372767224e-05,0.7631838133997397,0.55,0.45,-0.07464130335656644,Stairs up
-1.056334684363559,-1.56726074218,-0.67590332031,0.024664930577404983,0.15685379724058304,0.22632080689749373,-0.28137207031,0.54956054687,0.033513726743896514,0.18283799507017198,-0.07174552592235588,-0.63623046875,0.36706542968,0.03939610955044171,0.1982356487460667,1.115035535752807,0.74537781123,1.61548211758,0.025755486083479766,0.16028392306480702,948.712190207714,948.59154316929,948.79571402191,0.0037955384259331826,0.20417085261999546,0.061530689889674285,-0.000492684394592772,-1.1483135494575836,0.44,0.56,-0.4841391162590661,Stairs up
-1.0112295555019202,-1.43115234375,-0.68676757812,0.023723653665753554,0.15383267674543952,0.22725230380725686,-0.1884765625,0.498046875,0.017001472529450154,0.1302270127214177,-0.13160032048458853,-0.38928222656,0.212890625,0.0140537188215806,0.11840047356842595,1.0588552666934912,0.73529304788,1.45653493267,0.02463624792042754,0.15676355090771116,948.4992470062047,948.39565395661,948.61339517283,0.003547436317971454,0.21774121622001985,0.05948604746798233,-0.000487677783046596,-1.0244345205190506,0.53,0.47,0.23633774174163433,Stairs up
-0.6992701480226315,-1.20690917968,-0.42150878906,0.03066434442635628,0.17489279983122952,0.5908821125043108,-0.03344726562,0.83032226562,0.03796488277768823,0.19460147146293277,-0.41031013813478695,-0.84887695312,-0.0908203125,0.020642130252550944,0.14349353849656035,1.042103378793308,0.8513911101,1.32126926427,0.009566965234441012,0.09768821770287202,948.3975125448754,948.23660169564,948.75578991391,0.0073100080348122995,0.5191882182699601,0.08539137668798831,-0.0003386123643511913,1.9880795097501904,0.57,0.43,0.8070817518712466,Null
-0.5463599302486035,-1.16760253906,0.01330566406,0.10139630841775787,0.31803057996562956,0.4948328641255362,-0.03344726562,0.8837890625,0.03386569293403487,0.18379673510279979,-0.5878945823879801,-0.86169433593,-0.017578125,0.057568015179785104,0.23963400018501843,1.0345038978426684,0.73717733129,1.32807611487,0.011167454837811324,0.10554433108060891,948.4022381901085,947.68620969368,950.23620844186,0.1702998027298025,2.5499987481799735,0.4121590893604633,-0.0004899288379351471,7.677667334326603,0.63,0.37,2.376220832318375,Null
-0.44681152343350006,-0.7041015625,-0.13830566406,0.013837063545633686,0.11748391756648909,0.5991064453087,0.07507324218,0.65795898437,0.008812645109140765,0.0937582716157242,-0.6930310058556001,-1.03161621093,-0.59033203125,0.006965524778280984,0.08335532956167399,1.0331637706334,0.87480860558,1.16016486193,0.0009773070322052866,0.03122280840386997,948.399800225542,948.21861688096,949.16660123535,0.015071818097880742,0.9479843543899733,0.12261377798859327,-0.000143388102699994,17.397848710971687,0.7,0.3,3.65052322657527,Null
-0.4759582672466416,-0.57165527343,0.29797363281,0.01471603901361525,0.12115756976071688,0.5906046243503007,-0.07263183593,0.67053222656,0.01461470461519651,0.12073970466597803,-0.6737390962725313,-1.27099609375,-0.55310058593,0.017059356077819318,0.1304476937298195,1.0349422244178696,0.67547462651,1.34656643685,0.004454053262095713,0.06665500897410921,948.3705665851038,947.90004444229,948.7275241736,0.013245431854846718,0.8274797313100635,0.1149444878355719,-0.00013887731661618168,9.203277829706295,0.3,0.7,-1.9937537135383339,Null
-0.14330719831299252,-0.98889160156,0.9091796875,0.5467676554837603,0.738514823900616,-0.050817475354738156,-0.91906738281,0.76733398437,0.28811425080826764,0.5360930529346148,-0.22992415201990024,-0.79931640625,0.39929199218,0.08056938289179544,0.28349331868220773,0.991090051264015,0.60582766815,1.26548036879,0.0069105965288013315,0.08302627970106112,948.3314108682905,947.99788034031,948.4438709961,0.004574177280726703,0.44599065579006947,0.06754828165719394,0.0003948159548594933,4.834833195837781,0.47,0.53,-1.6941465581231077,Null
-0.978995033967995,-1.080078125,-0.89050292968,0.000743524396724255,0.027233452352911105,0.25904054569624063,0.10546875,0.39050292968,0.0050002755291354796,0.07062395847207566,-0.03326767847120301,-0.14599609375,0.08239746093,0.0025855374476599297,0.05078442087817345,1.0170628349999749,0.94549115912,1.08893077305,0.0005330066377604815,0.023057987369358428,948.3825776988683,948.35044776545,948.41524277918,0.00013656912817246682,0.0647950137299631,0.011671625836006904,-3.482318418246139e-05,1.366797394762111,0.5,0.5,0.44971430906946136,Null
-0.6494046256395263,-1.27502441406,-0.49291992187,0.02977129364768779,0.17232832332538214,0.624698629399601,-0.33081054687,0.89465332031,0.0539776390733931,0.23204101252721782,0.35081211765119696,-0.123046875,0.57019042968,0.03562571184016392,0.18851225335770333,1.0246885019466585,0.86329804486,1.3649031274,0.00414464921146917,0.0642986269518986,948.3678558871479,948.29319866164,948.5087594033,0.0012039685527803522,0.215560741660056,0.03465495833840751,-5.1935257807650536e-05,2.971555438381988,0.4,0.6,0.7080204389785864,Null
-0.5371740722621,-0.58129882812,-0.5068359375,0.00024470932051221564,0.015623621449937114,0.7054089355431,0.67297363281,0.7294921875,0.0001835698457104008,0.01353184839909629,0.5051513671837,0.46801757812,0.55883789062,0.0003910877352042607,0.019751202896690877,1.0208383585107002,1.00178152328,1.03351621445,4.212361105774477e-05,0.006482152576891446,948.3674696690096,948.35502703028,948.3778710796,3.787738246546037e-05,0.02284404932004236,0.006146762481932804,-4.684324742766977e-05,-1.061948450469056,0.45,0.55,-0.200793415769817,Null
-0.3556115722619,-0.58178710937,-0.02087402343,0.05391369489054757,0.2319028043239693,0.20167602538959994,-0.86901855468,1.14526367187,0.5182160260489811,0.718971825584187,-0.012986450195525023,-0.92810058593,0.47241210937,0.2990230809850178,0.546146064054805,1.015868573648925,0.63109200502,1.26404308426,0.004298163836071115,0.0654783813672951,948.3499164859492,948.27784657657,948.66239781883,0.0032208272840437507,0.3845512422599313,0.056681348041782154,-0.00017226572592833573,9.121835043183395,0.34,0.66,2.2993930002820147,Null
-0.27270263671489997,-0.75646972656,0.2197265625,0.05713088559594911,0.23872171744933313,-0.30208984374849995,-0.99365234375,1.3076171875,0.6783105520556141,0.8225659704093496,-0.1627954101543,-0.82495117187,0.21496582031,0.06749316946206212,0.2594695291135492,0.9871056031758999,0.63335419064,1.54475443881,0.018723956000228328,0.13666435566828594,948.3188663944557,948.21759528496,948.59761457766,0.003980800918984295,0.38001929270001256,0.06301467223343175,-0.0001410311796793618,7.324152879795941,0.69,0.31,2.2853170566294176,Null
-0.5066943359349,-1.15087890625,0.32299804687,0.179158931601706,0.4227422787854342,-0.023603515625799983,-0.68237304687,0.73999023437,0.11113301061823881,0.33294921248096265,-0.6914147949184,-1.13757324218,-0.29919433593,0.03488543584980679,0.1865428161580667,1.0239492880506,0.69351765075,1.61854798683,0.011271162683826079,0.10603294194313631,948.3312675494709,948.05340428699,948.66238483569,0.016601117496007883,0.6089805486999467,0.12868416647850606,-0.00031092057531068436,0.4981753965804985,0.57,0.43,0.5404095597678997,Null
0.2196887207004,-0.04748535156,0.34252929687,0.010748183725358598,0.10354377463684238,0.20709106445060002,-0.28723144531,0.58239746093,0.05508012296310625,0.23439800053690407,-0.9435473632768,-1.03039550781,-0.80139160156,0.0022697545591952575,0.047582351484529106,1.0236051174979999,0.86770547398,1.12021644505,0.0015958388505459922,0.039897985580974224,948.3537209737156,948.26703137309,948.6161950637,0.004092402380864688,0.3491636906099984,0.06389187252626523,0.00017919165696277974,6.4668054645366855,0.69,0.31,2.384371397953185,Null
0.19824218749609998,0.09167480468,0.29638671875,0.001608038904726746,0.040050203588308124,0.7905920410124001,0.45544433593,0.99475097656,0.019519821580200845,0.13953860407159857,-0.5839404296835999,-0.9521484375,-0.29736328125,0.03131151274639962,0.1767292674248768,1.0278682731541,0.91969123103,1.14461382935,0.0011200536111024195,0.033425341839309036,948.3216715565509,948.09811591892,948.38979828147,0.0027149998802359957,0.29168236254997737,0.05204048789678481,0.0002624335934413357,5.947274367168733,0.35,0.65,-2.3370071341582066,Null
0.2046215820274,-0.1123046875,0.75073242187,0.01750452973180161,0.13213920087344294,0.8073803710899,0.53527832031,1.041015625,0.012109291828235908,0.10990458861514982,-0.5896923828090999,-0.91833496093,-0.2353515625,0.01980337257677232,0.1405484405652741,1.0381961883664,0.80017139193,1.280659365,0.01294484953391672,0.11363312637643094,948.3406329459092,948.27721594786,948.39956196773,0.0010547793663802738,0.12234601987006499,0.03243674487312688,1.8219266089763267e-05,-0.847714749994319,0.54,0.46,0.015847243325563688,Null
-1.046890602968321,-1.76293945312,-0.41333007812,0.05494670242221139,0.2341132020808988,0.2305482945608772,-0.15832519531,0.98059082031,0.03149991503345473,0.17725960588352443,0.07596322348679198,-0.4609375,0.82373046875,0.03872597450655702,0.19654240490626976,1.1102935433424312,0.51819567995,1.77041724215,0.04790591035644393,0.21859973791888962,948.0905721165855,947.91749367119,948.87366481624,0.01914309749140235,0.956171145050007,0.13818509255145425,-0.0005772674359177511,18.267076628428853,0.73,0.27,3.833430651218612,Stairs up
-1.007643245398828,-1.3125,-0.72351074218,0.01149537671675261,0.10708272475940209,0.18025158051870327,-0.18383789062,0.50866699218,0.01845844024327943,0.13569233294563426,0.03414437538930175,-0.23474121093,0.3115234375,0.014585089326863017,0.12061806470438183,1.0407443952025937,0.83562057048,1.31949100105,0.010306021998708908,0.10139191878902189,947.9278198143558,947.8453402784,948.06604386148,0.0019811200040236445,0.22070358307996685,0.04445424113777903,-0.00024938320440772246,1.224660871238613,0.62,0.38,1.0524179361695873,Stairs up
-1.0705951891409775,-1.34631347656,-0.77661132812,0.01402695006042684,0.11828691726948294,0.20522895372922303,-0.14453125,0.42309570312,0.016157587638066854,0.12695311115114077,-0.014411333509172931,-0.36059570312,0.39099121093,0.016094351745236816,0.12670443963835998,1.1046884392524312,0.79930950853,1.38266878943,0.014699996169514283,0.12109151115520583,947.8905604515453,947.83396189516,948.02137141256,0.001431367055157,0.18740951740005585,0.037785971855357245,-2.2323043564152014e-05,1.583451980511703,0.54,0.46,1.0047836017966791,Stairs up
-1.0333133231337657,-1.41918945312,-0.75634765625,0.02308153007961936,0.15173651555981432,0.1676594646158105,-0.0859375,0.31335449218,0.005755099124938296,0.0757677190945874,0.008475819728129677,-0.15893554687,0.216796875,0.006649457830370064,0.08144246829060926,1.0515688537359849,0.76344988784,1.44262771748,0.023625736655532442,0.1535148839901726,947.789686192438,947.6923710189,947.92381708172,0.0034647732532992644,0.23144606282005498,0.0587888843319617,-0.0004626784897082446,-0.9286957309919242,0.48,0.52,0.12905449257822502,Stairs up
-1.003375549312025,-1.35278320312,-0.74877929687,0.02092201573426728,0.14446352721338218,0.170708923335875,0.03784179687,0.31555175781,0.001708815155245175,0.04128611288747176,-0.01867797851575,-0.20166015625,0.16723632812,0.006554653768117207,0.08085955190141059,1.02211317830065,0.76103454574,1.3706603982,0.020701822591507095,0.1437013153559435,947.5925870135225,947.46841746599,947.76634678704,0.004257713183007994,0.2979293210499918,0.0651695396642517,-0.0005154082267452822,-0.6666382446465251,0.48,0.52,0.1254068732794719,Stairs up
0.1039525082226316,-1.37036132812,0.93872070312,0.5974854884258566,0.7720026107866351,0.40340934122030075,-0.10998535156,1.08679199218,0.08753939859388007,0.29549957970346247,-0.03503356780614035,-1.01403808593,0.61291503906,0.16183094357987463,0.40177773985448934,0.9959974999200502,0.36678163945,1.58160294751,0.02756401924137288,0.1658159717469399,947.4391359106414,947.34607239565,947.62231335609,0.003566230178999346,0.2762409604399636,0.05964304032115757,-0.00010023597668489513,1.3156395413132556,0.64,0.36,1.186115426936021,Null
-0.13146424709613466,-0.78833007812,0.54040527343,0.10412526991723021,0.32228187336937525,0.3804167559608728,-0.4716796875,1.10620117187,0.28995538815158783,0.5378032236637579,-0.1752661802507232,-1.04650878906,0.94738769531,0.4367555573795289,0.6600502945996057,1.0064507725805487,0.52032574874,1.2412888137,0.008560485322496324,0.0924074535889791,947.4276783492086,947.25345820237,947.64335462185,0.003133820505832698,0.3898964194800101,0.05591069210895571,-3.289347213804976e-05,2.7082738723386486,0.48,0.52,0.20513652238959462,Null
0.1973278808564,0.17443847656,0.228515625,0.00026027677488805025,0.01605222748216489,-0.1610876464809,-0.21447753906,-0.10314941406,0.0007712882139808638,0.027632866876982836,-0.9936022949171999,-1.01416015625,-0.95495605468,0.00020020540767690456,0.014078471280651728,1.0262497672126,0.99455784584,1.04723404662,0.000165566531176161,0.012802767898560037,947.4243215443024,947.38490048174,947.46357676879,0.00038449049221398265,0.07867628704991603,0.019510140627167268,0.0003213702691243766,-0.3015062744288466,0.48,0.52,0.22437803682192808,Null
