avg_accX,min_accX,max_accX,var_accX,std_accX,avg_accY,min_accY,max_accY,var_accY,std_accY,avg_accZ,min_accZ,max_accZ,var_accZ,std_accZ,avg_magnitude,min_magnitude,max_magnitude,var_magnitude,std_magnitude,Label
-0.9548858564882444,-1.05041503906,-0.90930175781,0.000426184843522009,0.020617963132099387,0.28268688871239184,0.12866210937,0.40979003906,0.0029659902026815473,0.05439157245217095,-0.19404644759452927,-0.25280761718,-0.00012207031,0.0035516892525767133,0.0595201804041595,1.0179103829949874,0.98360028889,1.07624795855,0.00015794932883888717,0.012551789599484596,Null
-0.96893005370765,-1.19372558593,-0.76904296875,0.007389540650967626,0.08585491715295174,0.2687927246054,0.04333496093,0.48083496093,0.006233741877036182,0.07885529482757382,-0.09998962402124999,-0.23803710937,0.44372558593,0.023239837578961104,0.1522555023144113,1.02491122596935,0.80448804624,1.23612920839,0.007419392360219773,0.08602815747950913,Null
-0.96659912108995,-1.01953125,-0.90185546875,0.00021342220760531857,0.014590704303984275,0.2643841552697,0.18981933593,0.35021972656,0.0011189978489860146,0.033409584767900805,-0.15214782714475,-0.21569824218,-0.00524902343,0.0014824813316784537,0.038454845316933176,1.0148755633907,0.94205776004,1.05047944141,0.0001977531045545396,0.014044882405814342,Null
-0.9724339405863224,-1.21545410156,-0.76940917968,0.00784524087284631,0.08846174066128265,0.2389165075924937,0.07690429687,0.42749023437,0.005553323078328052,0.07442670796822318,-0.13019336921123428,-0.21313476562,0.06115722656,0.004337380723957508,0.06577579594125582,1.0144678236613351,0.8046370833,1.27034800152,0.008226205217879418,0.09058412828931532,Null
-0.979575575788078,-1.19885253906,-0.77917480468,0.007430494582161554,0.0860882953497969,0.24888487976475324,0.07397460937,0.47839355468,0.008414628798102647,0.09161207682072423,-0.07631296925561039,-0.19897460937,0.21984863281,0.007690311822371471,0.08758046007226274,1.0210740008221038,0.79680392004,1.26442998229,0.007685726172156764,0.08755434453546139,Null
-0.9681795810094149,-0.99206542968,-0.93298339843,7.716873340776015e-05,0.008772884212997137,0.2525556848368085,0.17797851562,0.43859863281,0.0014774820195925656,0.03838687986977064,-0.15797684040090426,-0.19763183593,-0.03540039062,0.0011805398843662887,0.03431326493692012,1.0142971812623938,1.00125922701,1.03492850911,4.8032539002186346e-05,0.006921328838295348,Null
-0.9791304216959664,-1.02368164062,-0.95703125,0.0004075934096157783,0.0201606470972923,0.24933664871781513,0.22448730468,0.2666015625,5.665236071944657e-05,0.00751622715419097,-0.18320291983616244,-0.20629882812,-0.16357421875,4.8009510412455696e-05,0.0069191784187959985,1.0269130858591318,1.00611321662,1.07335867696,0.0003898835163249531,0.019717794137148487,lift down
-0.974504944902081,-1.12255859375,-0.88928222656,0.0008108851173171142,0.028434864492593446,0.22492901575679192,0.04931640625,0.34594726562,0.001872014465608018,0.04320421297947256,-0.16518441789725433,-0.20397949218,-0.03344726562,0.0018626459876091002,0.04309596985453182,1.0156356371880346,0.9587180162,1.15928799798,0.0005571124645335464,0.023569096565247184,Null
-0.985147871206154,-1.17980957031,-0.84130859375,0.0038717751194206748,0.062131474821108645,0.23554622491766275,0.04321289062,0.40368652343,0.007230698773673378,0.08490763318896168,-0.05687248635976331,-0.17468261718,0.08239746093,0.0031555010486441974,0.05609068770059012,1.0195957791649113,0.854275398,1.22027719009,0.0038845634030141973,0.062233998842120206,Null
-0.9945814344583025,-1.17980957031,-0.80334472656,0.007368445258096101,0.08570707755548533,0.151553307047037,0.00610351562,0.37329101562,0.007622357714106762,0.08717127920762005,0.022951856071141974,-0.11547851562,0.16149902343,0.004171349170020806,0.06448623601626499,1.0119888073555248,0.81584545203,1.19195122683,0.007692829125577417,0.08757331685968688,stairs up
-0.9788586031969034,-1.21020507812,-0.84985351562,0.0026120009049684094,0.051025239789711366,0.2615612399157742,0.10571289062,0.40747070312,0.0035324052250959885,0.05933810217331831,-0.05666425150948387,-0.19836425781,0.29846191406,0.008425423067919987,0.09164193518160735,1.020585079101903,0.9215665479,1.26204269195,0.0027270075390174882,0.05213646267732908,Null
-0.9937858453919733,-1.26281738281,-0.84130859375,0.010660992341602268,0.10307927458427804,0.1787464562827425,-0.02734375,0.36218261718,0.008803979546664929,0.09367248688391495,0.00025475543505016577,-0.12536621093,0.16064453125,0.004403896766386247,0.06625079633226459,1.0163880955492641,0.86482467595,1.27004483911,0.010339526278514363,0.10151327954050064,stairs up
-0.9817141535660411,-1.29638671875,-0.78442382812,0.013841809640809867,0.11747858453216652,0.20155634278413487,0.00354003906,0.43676757812,0.011701297557132211,0.10801380884655187,-0.015176454247184756,-0.15600585937,0.17272949218,0.005692241334616041,0.07533623659818997,1.010863783285396,0.82018984831,1.29889815292,0.0139570540801496,0.11796662368139751,stairs up
-0.9826884846079396,-1.42932128906,-0.80126953125,0.0189617668902876,0.137512450796666,0.2447144225370604,-0.06872558593,0.48498535156,0.009714476922576676,0.09842656551542882,0.00712971110967033,-0.14270019531,0.18481445312,0.00605110843864766,0.0776819445840902,1.0193778946528296,0.82100443041,1.47315603725,0.020625164681019444,0.14341723097552458,stairs up
-0.9214361606323741,-1.27551269531,-0.43981933593,0.045201595518597044,0.21230952422960436,0.35888228602578204,-0.08215332031,0.98168945312,0.0670777008534184,0.2586316550114073,0.0210008674498324,-0.14819335937,0.31701660156,0.015017906383800522,0.12237629233077743,1.045125391783296,0.79274066219,1.42628279447,0.012972906373546249,0.1137394795350544,stairs up
-0.6506060843453582,-1.05139160156,0.33764648437,0.11769042346945502,0.3425685356621402,0.6652926469559598,0.17236328125,1.16882324218,0.048124742015929346,0.2190590075124296,0.054121919209455575,-0.31042480468,0.34545898437,0.0266427384467427,0.16299201889039516,1.0266592385492836,0.75612612017,1.32760584726,0.006993491795584398,0.08350720410326481,Null
-0.990491509100028,-1.35791015625,-0.69982910156,0.030006358879537242,0.17298065630036316,0.2849996443854622,0.07373046875,0.54052734375,0.007243648858988017,0.0849903437223881,-0.04566831615434173,-0.24719238281,0.10510253906,0.007170566442541942,0.08456051574023606,1.0371795646361623,0.73116002548,1.43642111387,0.03303104343470069,0.18148972285920503,stairs down
-0.9905843998148895,-1.35205078125,-0.65478515625,0.030818934240683563,0.1753105788685415,0.308497307705221,0.12866210937,0.86694335937,0.01800558681157841,0.13399943142226825,-0.04885071812171271,-0.24243164062,0.0849609375,0.003968110647204823,0.06290587425338519,1.048589454232652,0.68983697337,1.40685338215,0.032009811744891835,0.1786655726506059,stairs down
-0.8874686594720785,-1.47302246093,-0.46984863281,0.046574810763991524,0.2155086602525939,0.27100192294654496,0.03637695312,0.76904296875,0.01995663425402219,0.14106940239695667,-0.3251534794130056,-0.79187011718,0.17004394531,0.08659210063042849,0.29385177282552266,1.0446849951213204,0.69655392225,1.53744263774,0.02780020803749089,0.16649960229825014,stairs down
-0.856108684058078,-1.31372070312,-0.07543945312,0.09118419435762519,0.3015463469970573,0.3547030053063787,0.17297363281,0.73193359375,0.01944989970151232,0.1392685237514737,-0.22522584707690804,-1.00341796875,0.11608886718,0.1017601473823509,0.31855406594927943,1.0468561575520055,0.74303129315,1.41717984976,0.02482362682467551,0.15733556569272286,stairs down
-0.7811353278842699,-1.41943359375,-0.359375,0.04664756072276232,0.2156827648326127,0.4570393207608264,0.06359863281,1.06909179687,0.07359009612372983,0.2709010309803174,-0.1978231803102479,-0.88781738281,0.72680664062,0.16952462366952822,0.411166163110448,1.058627369992617,0.64547706334,1.45388360884,0.02653658421964156,0.16267599909589123,stairs down
-0.7469705597480055,-1.11096191406,-0.27673339843,0.031424071471509336,0.17702266572988493,0.6590836543415789,0.3466796875,1.05871582031,0.020975982835580578,0.1446301407728332,0.12354935833412742,-0.21118164062,0.72155761718,0.029133734648818334,0.17044949921532515,1.0279380170278394,0.64876099066,1.41006675499,0.031721682751205,0.17785896394006473,stairs down
-1.0138967069120643,-1.44714355468,-0.20617675781,0.038138296722141106,0.19502832942381942,0.3297443134180429,-0.01416015625,0.63464355468,0.015450790232912298,0.12413447225810102,0.02993242606378016,-0.18566894531,0.53552246093,0.012659964745938394,0.11236558112556774,1.084281279931689,0.66815372605,1.48083485024,0.02809466175040543,0.16738978744661548,stairs down
-0.9839033801538997,-1.37170410156,-0.69873046875,0.020327503301279855,0.1423758432087761,0.29249338983791084,0.14526367187,0.44262695312,0.0044069410858757355,0.06629227318447617,-0.013970080191699166,-0.13830566406,0.146484375,0.00463702694372151,0.06800081201080595,1.0306659826437325,0.74596673573,1.43313082359,0.020888882889972916,0.14432843304996498,stairs down
-0.9429736987925136,-1.44116210937,-0.43408203125,0.04788115610898309,0.2185217325095122,0.31998686918945946,0.0078125,0.65502929687,0.016770436839376186,0.12932560200673685,-0.18419783308435134,-0.958984375,0.09826660156,0.06767229974150163,0.2597872237699386,1.0593120262220541,0.57015542257,1.49058908963,0.03543990997133078,0.18800033625200707,stairs down
-0.976796902818604,-1.36267089843,-0.50146484375,0.02670718490088295,0.16319036753133284,0.2984511329198006,0.04174804687,0.5048828125,0.0072691687626932,0.08513788158145823,-0.07522730813618234,-0.59729003906,0.19323730468,0.027105714077146115,0.16440343615787376,1.0422151575281482,0.68829223113,1.41518828327,0.023627340522119785,0.15349275605597126,stairs down
-0.8816584425016435,-1.24780273437,-0.69226074218,0.01242005521167399,0.11128997689640552,0.44626730065807796,0.18469238281,0.61169433593,0.011452013495151056,0.10686493220936248,-0.23586908621760444,-0.42150878906,0.32055664062,0.03028301367647149,0.17377761615907208,1.0400533210085794,0.87452131188,1.29689141343,0.004415961464589007,0.06636008390798936,Null
-0.7991437543126795,-1.44738769531,-0.33142089843,0.06512412783251156,0.2548415722108481,0.5489532302060498,-1.06164550781,1.11437988281,0.09692462167401815,0.31089688660443837,-0.09967310784149168,-0.54455566406,0.53479003906,0.0662724341996842,0.25707851169833923,1.0743877706747238,0.84846566049,1.80327913726,0.02336103110248942,0.1526319031768905,Null
-0.8287599020131563,-0.86682128906,-0.61596679687,0.0036269188227685462,0.060139735322034704,0.4401105315953073,0.35583496093,0.73913574218,0.00799945492715166,0.08931466890151042,-0.3342244238793855,-0.4560546875,0.35961914062,0.030548403559463293,0.17453673774670958,1.0167871988340502,0.91725646446,1.0496706287,0.0004482357352948442,0.02114198855756767,Null
-0.8496784008278272,-0.8759765625,-0.83203125,8.164988098924995e-05,0.009023438590407258,0.4102756000792479,0.38256835937,0.43798828125,0.00017267772863298344,0.013122375248955341,-0.39804646696228413,-0.41638183593,-0.38330078125,6.789785506470232e-05,0.008228531129503112,1.0242099561911977,1.00899655626,1.04252773061,2.716955436493569e-05,0.005205177533476213,Null
-0.9215494791629971,-1.20031738281,-0.70227050781,0.010489940615446192,0.10227686457986518,0.378123563875042,0.08630371093,0.68737792968,0.010602436477142754,0.10282381910591586,-0.17250757724677873,-0.56530761718,0.07897949218,0.027576577092024178,0.16582922474051706,1.0301342025408684,0.85230255342,1.25211378426,0.00918696357961581,0.09571431339186563,Null
-0.9239909997112078,-1.22985839843,-0.59790039062,0.01240716455778676,0.11123089935782358,0.4077741644319663,0.07739257812,0.7724609375,0.017921350410566295,0.13368249525882775,-0.04717297500328651,-0.3525390625,0.38049316406,0.027921479425877797,0.16686236335343868,1.0359461988399439,0.80592551872,1.29017315037,0.006906047810796996,0.08298583493640653,Null
-0.8799193665181869,-0.94689941406,-0.85693359375,0.00020146141531400557,0.014174200149825695,0.41584895206923067,0.37780761718,0.46447753906,0.00024275109803313256,0.015559055222350824,-0.3139346615261813,-0.3544921875,-0.19702148437,0.0009654651885105433,0.031029225121150396,1.023258431614066,0.99540702484,1.05585878113,9.165310687423885e-05,0.00956040337143702,Null
-0.8798516091303089,-0.92419433593,-0.85717773437,0.0002635555258492366,0.0162115761521952,0.4359895513255899,0.41931152343,0.466796875,0.0001927177382190424,0.013862770150938553,-0.325034495146236,-0.3515625,-0.30285644531,0.00011793052360856946,0.010844319162253344,1.034402760854354,1.0097472523,1.08918223933,0.0004579716202231294,0.021370193800891727,lift up
-0.8644855458213173,-0.87829589843,-0.85668945312,1.6625248819552138e-05,0.004071923045744765,0.4395486154825268,0.42834472656,0.4541015625,3.094876241955588e-05,0.005555678790359811,-0.3237432664404301,-0.33935546875,-0.31005859375,3.6601385310873605e-05,0.00604177080748231,1.022461628477258,1.01429586737,1.03466467071,1.4545942854950427e-05,0.00380878469567768,lift up
-0.8634558272652603,-0.87609863281,-0.85095214843,2.4250799336903488e-05,0.004917759529580008,0.43790868471339717,0.42919921875,0.44616699218,1.4288199917503694e-05,0.003774791936558233,-0.32841596211090407,-0.34191894531,-0.31274414062,4.482393333516165e-05,0.006685890220333638,1.0223694824453975,1.01293493689,1.0361247732,2.0859010091681032e-05,0.004560905844108943,lift up
-0.8310490636601083,-0.97595214843,0.04211425781,0.013658015471029511,0.11670904797387005,0.4308377397704336,-0.28540039062,0.71252441406,0.006236089800262838,0.07886184012502119,-0.36126063896991867,-0.76379394531,-0.30224609375,0.009952882921066537,0.09962886297968387,1.0159626608069108,0.61167066928,1.25386990289,0.004370772296329038,0.06602217343405829,lift up
-0.5658495820180672,-1.39587402343,0.66967773437,0.4078908066173181,0.6377681830714652,0.4535654105356022,-0.28540039062,1.21997070312,0.06174982159548109,0.24814683739177207,-0.0271160221889916,-0.98217773437,0.49096679687,0.061772599460993394,0.24819260055349357,1.0097494651217929,0.31907977174,1.44384933848,0.0370771602595712,0.1922844316833989,Null
-0.9430035033474317,-1.11022949218,-0.72521972656,0.005561370734192842,0.07447265090076256,0.3671401393830874,0.21362304687,0.71850585937,0.009683622844671362,0.09827087492618024,-0.07621156452579235,-0.25732421875,0.29064941406,0.010293706161516918,0.10131920489864789,1.0262678509147816,0.89292698059,1.19737944443,0.0021046623332535517,0.04581388315478259,Null
-0.36846593438353276,-1.69702148437,0.30407714843,0.3032856948642624,0.5499287527085052,0.5185574697258974,-0.19250488281,1.00280761718,0.08841975296436864,0.2969307071292308,-0.48611841445943016,-1.1142578125,0.10119628906,0.07998139173095703,0.28240666514451873,1.0391381670020514,0.59809207608,1.83132529738,0.03160502217421361,0.17752458808851376,Null
-0.6522032349940384,-1.03723144531,0.26574707031,0.08216831739385086,0.28625614448977943,0.6775871528336265,0.29797363281,1.15673828125,0.020353409276396138,0.14246927148282046,0.016902713984368167,-0.76135253906,0.37036132812,0.07268662042856716,0.2692339724308696,1.0260096195701922,0.65654467597,1.24440306286,0.00682913856905863,0.08252500953870538,Null
-0.8009194618374381,-1.04064941406,-0.15954589843,0.06194462876835778,0.24854372333276567,0.4756259550363636,0.22436523437,1.03674316406,0.05211978426259615,0.22798290196788099,0.03392041419303032,-0.21057128906,0.87683105468,0.06765175661747065,0.2597410020423045,1.0211990576040497,0.68952499533,1.31645613442,0.00723060586637155,0.08491576321241118,lift up
-0.9767477793200822,-1.22399902343,-0.76391601562,0.004977590154136156,0.07045532570953847,0.256357354983726,0.02075195312,0.36767578125,0.006200662463944058,0.07863634240988378,-0.07778788527161644,-0.16491699218,0.10583496093,0.004256187488079184,0.06515003223668128,1.018228447398329,0.83362456338,1.26986981499,0.004592424473992612,0.0676745335346492,Null
-0.9808676948726816,-1.10766601562,-0.83190917968,0.0033203785934289216,0.05754219141541811,0.2366472808974581,-0.00231933593,0.50366210937,0.014254055470811593,0.11922348624917446,0.04845441253368714,-0.20263671875,0.37292480468,0.015138918638566465,0.12286834887934253,1.0247175726094133,0.91219362935,1.14661344357,0.0030355506944278734,0.05501882861842841,Null
-0.9606156782635261,-0.98168945312,-0.85717773437,0.0003505402671594522,0.018696913956381848,0.2982598086655923,0.21887207031,0.47607421875,0.0014846650093665755,0.03847824090463176,-0.09435799758619835,-0.21752929687,0.02282714843,0.0017183446448833467,0.041395783759692974,1.0118461371313499,0.92987975368,1.07699437911,0.00035696517487612345,0.018867479951989445,Null
-0.9669271059979946,-1.02392578125,-0.91906738281,0.00037653953985509,0.019377581975006893,0.2667032310850418,0.15844726562,0.41687011718,0.0031150686829110865,0.05573501243716506,-0.16813740424376047,-0.25793457031,-0.04016113281,0.0017967288520313908,0.04232876133656135,1.0193386179864345,0.95736116444,1.08965899497,0.0005728122814425412,0.023900140251825037,lift down
-0.98414935487281,-1.2431640625,-0.80993652343,0.0065036039271770705,0.08053376722167463,0.2299488582523416,0.07763671875,0.43957519531,0.006237413411463409,0.0788684376313303,-0.06854870168192838,-0.27160644531,0.1904296875,0.011564294516144796,0.10738918453687159,1.0217389350638568,0.83913922589,1.29912400855,0.00643097444168764,0.0800828212455873,Null
-0.980685294939548,-1.25805664062,-0.7021484375,0.011995839587240409,0.1093797776490286,0.2504386090180319,0.080078125,0.50256347656,0.00571941330998457,0.07552616834166094,-0.07776820405768617,-0.18579101562,0.16955566406,0.007556005507866974,0.08680961783430187,1.0208318940336172,0.7227711045,1.31906239167,0.013641310968231585,0.11664060564773002,Null
-0.9814840802329396,-1.51770019531,-0.73254394531,0.01902673662390191,0.13775629815958262,0.22640550668102363,0.0244140625,0.42553710937,0.010220139113544578,0.10096194630372146,0.042101762425433065,-0.08825683593,0.22009277343,0.005473002046217685,0.073882590719673,1.014935569797664,0.74121514923,1.55755788277,0.02054891098102873,0.14316066789265908,stairs up
-0.9968568599387151,-1.45556640625,-0.73779296875,0.024101742566749726,0.15503038174335587,0.215333054182514,0.01513671875,0.46252441406,0.010747834454687048,0.10352686883478805,-0.019477034413854746,-0.16796875,0.16455078125,0.0055806003353113314,0.07459900848012849,1.028100942424274,0.76764824233,1.47561067854,0.023863632577358133,0.1542626798217938,stairs up
-0.9783844884543238,-1.33129882812,-0.73193359375,0.025722988818486607,0.16017102758899635,0.2212309091058886,-0.10205078125,0.45227050781,0.013436691737011033,0.11576290703360217,0.018048597582785146,-0.1015625,0.15222167968,0.004065279827728839,0.06367492907032972,1.0113359175904508,0.75174221697,1.40636759902,0.026886357972477844,0.16375298889816134,stairs up
-0.9824842817293821,-1.189453125,-0.84143066406,0.005077216698842553,0.07115444367137504,0.2502883739649157,-0.02526855468,0.44934082031,0.008374527233347038,0.09138382395393825,0.004472025325561802,-0.13195800781,0.26831054687,0.009430799035667795,0.09697581155700961,1.0227450639364326,0.89680417076,1.25895971498,0.004763814855071288,0.0689233875594446,Null
-0.9777573295227446,-1.01611328125,-0.95532226562,0.00011108898774774722,0.010525545852754274,0.24099399732116844,0.19079589843,0.30944824218,0.0006742965350165456,0.02593191484398597,-0.1136822907784239,-0.17358398437,-0.03637695312,0.0008325755044246168,0.028815153495837572,1.0141582921013588,0.98663403894,1.05219921883,0.00010798180076021983,0.010377300802896974,Null
-0.9907059294096501,-1.23327636718,-0.83435058593,0.005544036564012844,0.07434966840616104,0.21585661328915454,-0.01599121093,0.50866699218,0.008186845039833045,0.09034919306195952,-0.030254219432507296,-0.21533203125,0.1767578125,0.008332954054616478,0.09115184983271943,1.0220243766614578,0.85684067094,1.28780699768,0.006492244806617097,0.08045692623505174,Null
-0.9795515550253551,-1.18981933593,-0.83288574218,0.003221452049724243,0.05668024583721933,0.24000624359248635,0.02563476562,0.39599609375,0.006343685180556515,0.07953837254675002,0.03471866461666667,-0.13208007812,0.2900390625,0.007208013079829403,0.08478395517443808,1.0159634633801367,0.89913018931,1.25055812654,0.0028830719402667313,0.05362084197891989,Null
-0.9919095498096501,-1.00268554687,-0.97863769531,2.5422543814636336e-05,0.005034721999385381,0.2079273813280758,0.16723632812,0.25122070312,0.00033487471443592766,0.018272887109461473,-0.033734824841311954,-0.05517578125,-0.00830078125,0.00011870903779940033,0.010879473668803525,1.0142292130596793,0.99987507576,1.03209247999,4.045484469068262e-05,0.006351133799335791,Null
-0.979158152700924,-1.00500488281,-0.9482421875,0.00029796911812504233,0.017238312546026226,0.20454406737932065,0.18530273437,0.23010253906,0.00013025621667722925,0.01139746724350166,-0.04429560121899456,-0.0673828125,-0.01794433593,0.00012604359300370397,0.011211649443329332,1.001444350840462,0.97171070298,1.02528175865,0.00025451103668315685,0.015931711477591273,lift down
-0.9883961607591495,-1.00903320312,-0.96337890625,7.391593153608735e-05,0.008584822029227989,0.20534947190762468,0.16674804687,0.37219238281,0.0011000204200680695,0.03311788872699404,-0.057785078923225805,-0.09558105468,-0.00048828125,0.00044140421085248825,0.020978793348318547,1.0119082039008505,0.9920647763,1.03889873476,8.713746944438188e-05,0.00932104792088164,lift down
-0.984051678627892,-1.02697753906,-0.95056152343,0.00014846282618040718,0.012168055526617164,0.23271022486975676,0.11022949218,0.37841796875,0.0022944490385957065,0.047835633422981666,-0.049384699637837835,-0.1455078125,0.0888671875,0.002324892301400527,0.04815193463085402,1.0146774216657568,0.97919843077,1.04819752296,0.00014348023164181839,0.01196212553152556,lift down
-0.9977277789158774,-1.04797363281,-0.97338867187,0.00044431299465218287,0.021047893810286728,0.22667350545590645,0.20190429687,0.24633789062,0.00010978879248701911,0.010462684771412448,-0.07972119425769006,-0.10595703125,-0.05847167968,9.373538407512379e-05,0.009667538673557437,1.0263861783813157,1.00254496445,1.07670074178,0.0004312964241370963,0.020737293060612436,lift down
-0.9840633733445258,-1.16931152343,-0.87927246093,0.001628216081479871,0.04029644614322662,0.20255831586295395,0.04858398437,0.30419921875,0.002978037102572068,0.05449739939959048,-0.03112792968601626,-0.10766601562,0.18530273437,0.004691963286134132,0.0684050286051781,1.0089937814791057,0.89086320268,1.1847351035,0.0015884137221062865,0.03980086780301324,Null
-0.9859191894493334,-1.14526367187,-0.87902832031,0.0015192745746451129,0.03892369930380874,0.20744934081669442,-0.02722167968,0.38708496093,0.005085740247659375,0.07121525954046559,-0.04051513671683334,-0.12878417968,0.31201171875,0.00793327031653942,0.08894511484364408,1.0148249594914445,0.93721711341,1.16884620902,0.0013452929627596004,0.03662725812646977,Null
-0.9861556343372555,-1.12451171875,-0.8408203125,0.0020075258189202676,0.04474450341345493,0.22009045144442937,-0.00695800781,0.40893554687,0.005896814710074609,0.07668631401402796,-0.04699408489535326,-0.22875976562,0.11926269531,0.006276606813795106,0.07911732311585427,1.0174102720035598,0.85362937745,1.18462020756,0.0021963622738759487,0.046801644181927206,Null
-0.9929773667241457,-1.20922851562,-0.85021972656,0.002331086798195705,0.04821366137619915,0.20125599067361347,-0.03344726562,0.31750488281,0.004168063003934639,0.06447005318304784,0.02287159981165266,-0.15637207031,0.36047363281,0.014393536756659175,0.1198049194587955,1.0224544511572269,0.88087171558,1.24642418572,0.0025249938278969967,0.05017889014370633,Null
-0.9789143656597802,-1.00427246093,-0.92712402343,0.0001414123953873446,0.011875348407336147,0.239885267316456,0.16613769531,0.35852050781,0.0014279722779066508,0.03773657744341915,-0.09947321964788464,-0.14953613281,0.01733398437,0.0006939990934871359,0.02630765102723849,1.0138309356754394,0.96653747931,1.03849543966,0.00011752060411713235,0.01082579074777509,Null
-1.0001753686143662,-1.0322265625,-0.96960449218,0.00033057869676850226,0.018156196990889124,0.20520500934949296,0.17578125,0.23059082031,0.00013591633037757868,0.011641884189215534,-0.10254284495619718,-0.12097167968,-0.07702636718,0.00010229498396924394,0.01009984302278127,1.026260450367352,0.99660356975,1.05631887927,0.000332511345049161,0.01820919255137268,lift up
-0.9848922813754973,-1.0009765625,-0.96044921875,5.776241417845514e-05,0.007589654109272975,0.2165726298085635,0.16638183593,0.28466796875,0.0007614664830313168,0.027556541591052516,-0.09822579905074585,-0.14343261718,-0.03759765625,0.0004910859934288631,0.02212983059778801,1.0137999328975966,0.98033955851,1.03825651186,8.143374297145101e-05,0.009011591861617438,lift up
-0.984292602534611,-1.20166015625,-0.82873535156,0.004728030152927056,0.06866510566390757,0.22060377332513892,-0.00598144531,0.43225097656,0.00956268216448602,0.0976530550391208,-0.002600097656472222,-0.14306640625,0.20959472656,0.009492290201989663,0.0972929736887837,1.0183525178838335,0.90604909774,1.21927136493,0.004191443559705109,0.06465137787339223,Null
-0.9814053062596079,-1.00708007812,-0.94348144531,0.00016134486170489345,0.012684357110770858,0.2314972864110364,0.15002441406,0.34753417968,0.0017296629709796245,0.04153092795331155,-0.10746085543196078,-0.15649414062,-0.0166015625,0.0013761815728586101,0.037044928431763345,1.0155421507169466,0.97407322051,1.0481582861,0.00022802066441005204,0.015079189337108464,Null
-0.9793048316687466,-1.11108398437,-0.91101074218,0.000713332293557562,0.026671057262983938,0.25641532196303624,0.06030273437,0.44226074218,0.004519746568750338,0.06713536136373331,-0.06852428892905292,-0.1240234375,0.13488769531,0.001983139925073285,0.044470393054588886,1.0179520886425906,0.94297303212,1.13002832871,0.0004532745714381521,0.021260573091407792,Null
-0.995414669770336,-1.50756835937,-0.63171386718,0.021733804860646067,0.1472172743105719,0.2996952687285434,0.06689453125,0.5400390625,0.006749558112445569,0.08204054965198992,-0.04573157387778712,-0.22448730468,0.30615234375,0.009547015795144269,0.09757188864617411,1.0487494567497198,0.78756897336,1.54000071185,0.020865871624554524,0.14424778613510122,stairs down
-1.0118620797448876,-1.33862304687,-0.75817871093,0.018095387925648156,0.1343300345577413,0.29241188991904493,0.01611328125,0.51879882812,0.011508729073330295,0.10712796638915009,-0.10115377018632024,-0.24487304687,0.0546875,0.004644491085007225,0.06805471887925725,1.0640123666778087,0.80307182588,1.39175723091,0.021666749532717633,0.14698941416553388,stairs down
-0.9687664128115967,-1.22521972656,-0.744140625,0.014482892277273394,0.12017622040806054,0.2551956817843138,0.05712890625,0.44995117187,0.005478518809077525,0.07391327903709646,-0.03197079613042017,-0.19921875,0.14929199218,0.006689445722587485,0.0816744010041516,1.0077547985018769,0.74929773711,1.289240426,0.015408028310644101,0.12395510706492505,stairs down
-0.9934662528618479,-1.3564453125,-0.70263671875,0.021661309673795363,0.14697771062051213,0.27063286822364135,0.09558105468,0.48229980468,0.008284688271253973,0.09089651000663576,-0.08386329982304348,-0.22497558593,0.10949707031,0.005420023437124897,0.07352071213316348,1.0386991899712499,0.75996364964,1.38587070914,0.023407767717637123,0.15278795650569788,stairs down
-0.9921995350973803,-1.39331054687,-0.64477539062,0.02362228641853979,0.15347880885209064,0.2713581783632958,0.09301757812,0.49914550781,0.006092635234633279,0.07794531982011277,-0.07389345840447888,-0.24291992187,0.11889648437,0.007342306532909088,0.0855664886465213,1.0366351575573238,0.6559453893,1.44171341928,0.025968965365868225,0.16092176158230775,stairs down
-0.991986558516622,-1.42724609375,-0.70971679687,0.026761471395603222,0.1633699018286326,0.25235238982554964,-0.03295898437,0.46997070312,0.009517147722529167,0.09742501003942419,-0.0333130864605362,-0.22741699218,0.25866699218,0.009784959549671093,0.0987862663235593,1.0324616337396513,0.73349243252,1.43951047889,0.028869278863377257,0.16968170594649395,stairs down
-1.0031879519585951,-1.26342773437,-0.72705078125,0.01022608673458215,0.10098473001769048,0.29313050156807163,-0.02380371093,0.68054199218,0.010129688673509545,0.10050762754671969,-0.09036027892283746,-0.29650878906,0.06518554687,0.0072404160418089,0.08497334871656494,1.056056404108292,0.76386101568,1.44587140488,0.01236261595615902,0.11103404506227522,Null
-0.5609991355001094,-1.04223632812,1.01953125,0.4830246659182796,0.6940496570087133,0.3601564501121857,-0.22546386718,1.08203125,0.03997155819661648,0.19965556914089688,-0.042382078741284156,-0.45764160156,0.98278808593,0.06426520434104092,0.25315927071912275,1.006036924507459,0.51318831219,1.53640809596,0.019829714297408978,0.14062551244403804,Null
-0.9002999247082122,-1.18029785156,-0.55053710937,0.012462153586620969,0.11147799380031083,0.26811243834874304,-0.67114257812,0.75524902343,0.08171022339260463,0.28545049053231497,-0.25577515330044687,-0.66613769531,0.02319335937,0.03352625040190554,0.18284584123727327,1.0339684167733798,0.88056130451,1.27274143175,0.0061134802536137785,0.07807946908841545,Null
0.27102467770501376,-0.75720214843,0.69921875,0.19052285528301172,0.4358875989660291,0.6186015651866942,0.03210449218,1.02685546875,0.06786607305460336,0.2601520981573377,-0.2742734966841874,-1.00012207031,0.7666015625,0.23450485804638152,0.4835895358190578,1.004801841310744,0.4061099141,1.2994310514,0.013294058071783165,0.11514093677868928,Null
-0.9195525517850142,-1.29760742187,0.43725585937,0.04534949839630935,0.21265236787378003,0.3745009986904249,0.1396484375,0.70666503906,0.0062141434660890555,0.07871810249387438,-0.09704728166753541,-0.36279296875,0.44616699218,0.011345559305560811,0.10636455664800891,1.0229602191403115,0.45108878621,1.35812955563,0.01156220069300998,0.10737526057429642,Null
-0.9674123128215277,-1.18017578125,-0.79968261718,0.004811086045917999,0.0692655897110006,0.3267791748009722,-0.00769042968,0.4453125,0.005585761653586411,0.07463407833552389,-0.1253977457651389,-0.29968261718,0.05493164062,0.005034954724375196,0.07085879436618794,1.0337729639733055,0.83206243859,1.22243781164,0.0051124031093500175,0.07140169458494541,Null
-0.8068251176279546,-1.26342773437,0.42065429687,0.16488554920502246,0.4054838151508965,0.421354467214716,0.16723632812,1.11950683593,0.04394639932636341,0.2093359777988591,0.016686179422073854,-0.24499511718,0.72766113281,0.0428254236197379,0.20664888212728022,1.030728181013125,0.55823613436,1.30934545647,0.01737600300780558,0.1316306930882651,Null
-0.8979778816655525,-1.251953125,0.08361816406,0.06417319125025128,0.2529741434243284,0.35709950146375696,0.24865722656,1.07861328125,0.010868063317965616,0.10410591262558816,-0.07601406033883977,-0.18591308593,0.91418457031,0.028284364911812465,0.16794710865949344,1.01830668100163,0.6422813565,1.37138069171,0.005770099796456396,0.07585618164827597,Null
-0.9745618060493696,-1.0224609375,-0.9404296875,0.0005273219070637773,0.022930568157825307,0.29297714451621776,0.2568359375,0.33203125,0.00022391111470502933,0.01494220651643525,-0.1385340649587106,-0.17456054687,-0.09704589843,0.0004405135737684829,0.02095832429429256,1.0273515121127221,0.98310212687,1.0760505594,0.0005367485424210942,0.023134618669463567,lift up
-0.9657267369832276,-1.19079589843,-0.68969726562,0.00810614934945313,0.08990433075499586,0.3345623620953026,0.21179199218,0.5947265625,0.006126714476599198,0.07816046467949428,-0.09646368988322768,-0.23364257812,0.099609375,0.004530867811562547,0.0672146602730494,1.0326153048522766,0.88004842505,1.25770622302,0.0062987899203654565,0.07925047500192102,Null
-0.7161120739584615,-1.51147460937,0.63024902343,0.2888417872242091,0.536701281748736,0.33407626308914834,0.04235839843,0.8427734375,0.024851744486493885,0.15742766740055364,-0.23469325474024721,-0.95349121093,0.20654296875,0.07989177866423262,0.28226281327127456,1.0244258684118954,0.50244859814,1.53784045001,0.022667805762534257,0.15035136038918617,Null
-0.7409955192983474,-1.20849609375,0.24914550781,0.1644811954308552,0.40499439970324635,0.4294286562243978,0.17614746093,1.03405761718,0.020281215389700732,0.1422125355324161,-0.27306513425288514,-0.83349609375,-0.00415039062,0.055938904585743625,0.23618258398167244,1.0188457321889914,0.48303486416,1.34869977382,0.010056523515893746,0.10014166955985794,Null
-0.6856983639160664,-1.07458496093,0.00366210937,0.11190912938899013,0.33406456232389414,0.4666328747150138,0.15612792968,0.90380859375,0.029939300625093892,0.17278994841810635,-0.3147168780268421,-1.24389648437,0.40380859375,0.1462201315769168,0.38185742059202055,1.03065288795759,0.74147813928,1.43288327627,0.012033746114274142,0.10954639034447142,Null
-0.7685742324618257,-0.8251953125,-0.68444824218,0.0005002438968914031,0.022334697611692735,0.6733525308291012,0.56066894531,0.72766113281,0.0011772207455913195,0.03426242761019938,0.12510732586098314,0.01232910156,0.33569335937,0.0029879598468764883,0.05458540740197141,1.0313213923435673,0.9463134227,1.08539886289,0.0007925559042957213,0.0281128017754488,lift up
-0.7645874023401389,-0.77685546875,-0.73645019531,7.373252286978975e-05,0.008574830045328162,0.6649603949618333,0.64587402343,0.6943359375,0.00011905241183249683,0.01089594927890717,0.0883402506476389,0.05541992187,0.11962890625,0.00016362005870804145,0.01277362746227412,1.0172700213566666,1.00209607299,1.02921316541,3.260742340289504e-05,0.005702354533591882,lift up
-0.7692533524971508,-0.7783203125,-0.76037597656,1.3003480488246015e-05,0.003600994017913637,0.6551199971590782,0.63000488281,0.67822265625,7.47271260923973e-05,0.008632403553084877,0.10121095113508378,0.08239746093,0.12133789062,5.9468231749874805e-05,0.007700786931910609,1.0155250285601396,0.9991590048,1.02850487222,3.238212679633246e-05,0.005682576346005946,lift up
-0.7787897099408289,-0.98010253906,-0.56604003906,0.006289564644321176,0.07919716002707065,0.6429891849712983,0.38415527343,0.95495605468,0.007789757944191231,0.08813761555565881,0.08450367964149172,-0.3046875,0.39440917968,0.01543065627379606,0.12404849919081147,1.0252507279788121,0.77728383394,1.23846896821,0.005393680206579284,0.0733401700127586,Null
-0.7786051432252991,-0.93408203125,-0.68823242187,0.0018328197513119543,0.04275041570112223,0.6463515235451566,0.39294433593,0.76086425781,0.003390312972353563,0.058143391378868814,0.14878840867230772,-0.03186035156,0.38818359375,0.008265657700904342,0.09078606070628675,1.028475830617379,0.91490148692,1.24217465232,0.0018272841988368287,0.042685808659886075,Null
-0.9988140267351551,-1.64953613281,-0.62353515625,0.03788858821615062,0.19437556378989704,0.2620646731918028,0.12744140625,0.41540527343,0.0039282328830430365,0.06258727856603186,-0.015397708516450705,-0.19641113281,0.13000488281,0.006666944366441097,0.08153627561683945,1.0373385153725916,0.63761568375,1.6709109138,0.038930100622393646,0.19702902924980192,stairs down
-1.0172347596194413,-1.33483886718,-0.79846191406,0.010630895880239234,0.10296213206975804,0.2985539782607542,0.09924316406,0.57080078125,0.008877687442856918,0.09408979452225412,-0.05208719775480447,-0.22473144531,0.28698730468,0.009011448740472393,0.09479597615904345,1.068960293680391,0.87994301576,1.40049078249,0.011914527197722924,0.1090011302487027,Null
-0.9816675693678991,-1.26354980468,-0.74963378906,0.0072070424863447695,0.08477531888624998,0.29018951330128856,0.13110351562,0.46240234375,0.0027432433215604096,0.05230257323113324,-0.07924175529235294,-0.18139648437,0.07800292968,0.001855346724938969,0.04301336623991756,1.028505128844706,0.77631227311,1.33935285978,0.008145611729994666,0.09012654930937303,Null
-1.007381162160754,-1.35803222656,-0.74963378906,0.023333219131878254,0.15253865917243536,0.24734718705952513,0.06359863281,0.44738769531,0.005572977280433264,0.07454804024781334,-0.02224032439282123,-0.20544433593,0.14721679687,0.007482983722360218,0.08638334059986112,1.0433135889975418,0.76100338331,1.37737478198,0.024344359247335138,0.1558087232598065,stairs down
-1.017489906114818,-1.34387207031,-0.73291015625,0.02208800888229854,0.14841205378593333,0.26563594187308126,0.04296875,0.48278808593,0.009200604658969576,0.09578534677665328,-0.05342884223803921,-0.21813964843,0.15002441406,0.005796948698190602,0.07603098543787956,1.0587117673368067,0.74484760012,1.42501834681,0.02488358056524374,0.15752421610310752,stairs down
-1.0206179151311203,-1.31616210937,-0.71069335937,0.02249010642110394,0.14975683264587983,0.262671035207339,0.03198242187,0.5498046875,0.010291199540178658,0.1013033693946572,-0.031381302519607836,-0.15380859375,0.18774414062,0.0043431664011338265,0.06581033861725501,1.0598819667583754,0.72212327428,1.40758183248,0.025383588844659147,0.15909898288454957,stairs down
-0.9968911614179999,-1.32238769531,-0.751953125,0.017579546856005233,0.13240100832586824,0.2667160678881972,0.10632324218,0.45739746093,0.005729400616459536,0.07558611949156706,-0.04052012268814084,-0.19348144531,0.13940429687,0.007377175361529127,0.08576942687148403,1.0387996055564788,0.80123126713,1.38498391178,0.018117426477411547,0.1344112773291357,stairs down
-1.0360306860657464,-1.45349121093,-0.70520019531,0.023055524413717287,0.15162644648781992,0.2763634050359718,0.10656738281,0.53540039062,0.009471527880966751,0.09718460536905357,-0.05138850681983098,-0.19934082031,0.1005859375,0.0047570916036691864,0.06887446076471802,1.0791431177067323,0.76730302923,1.48018292206,0.02507698177788007,0.15813393814292448,stairs down
-0.987118011725738,-1.34204101562,-0.70886230468,0.024382247581971144,0.1559305308712421,0.2595078832220891,0.04797363281,0.72644042968,0.010332370334759805,0.10150659761265257,-0.01598305024821727,-0.21069335937,0.13293457031,0.006930210253314164,0.08313185939506237,1.0290932366374932,0.76616926699,1.36908954737,0.024566133936093158,0.1565174258466219,stairs down
-1.0349515315117848,-1.55053710937,-0.72900390625,0.020624668810912735,0.1434093511145134,0.2739330432193201,0.04223632812,0.55505371093,0.013049590898873554,0.11407288555688133,-0.0742851451813881,-0.25061035156,0.13098144531,0.004805506103955137,0.06922349869961708,1.0802928647234278,0.74677785497,1.65084971977,0.024158412243712592,0.15520945465808503,stairs down
-0.9944206089818837,-1.37084960937,-0.63623046875,0.030089971045499198,0.17322418804875822,0.24089849159925206,-0.06188964843,0.42333984375,0.007415813909919771,0.08599576436730282,-0.014194308885844874,-0.1884765625,0.18981933593,0.008395980328641781,0.09150258338104203,1.0306399400854849,0.66101682876,1.39278313517,0.030747008475886097,0.17510521610521723,stairs down
-0.9932296374578513,-1.27453613281,-0.86999511718,0.005513141507976341,0.07414818804477635,0.27123249988887055,0.00720214843,0.44653320312,0.005241121604542756,0.07229580384099128,-0.04958408660256198,-0.25622558593,0.17041015625,0.006694221138061881,0.08170544509098678,1.0364774018219285,0.91048909105,1.328065164,0.005661371742798836,0.07513837686157239,Null
-0.7534811708320118,-1.35461425781,0.42846679687,0.23490163986059298,0.48394903098852593,0.4018724430206804,0.10229492187,0.8916015625,0.03320116125086597,0.18194211431975146,-0.23608362321695267,-0.87426757812,0.15307617187,0.08243345988755356,0.2866872405803141,1.0524532222968048,0.53440398923,1.58764288495,0.0262769352588739,0.16186164723882368,Null
-0.9597582673337808,-1.08483886718,-0.85705566406,0.0009226139869610497,0.03033292398381224,0.31356284781268495,0.22229003906,0.47863769531,0.0018882243692638185,0.043394137297724684,-0.16949345836556165,-0.30041503906,0.03637695312,0.0038998019405943472,0.06236278980061754,1.026416447328137,0.90208125734,1.17807187357,0.0013508562833397732,0.03670361436181775,Null
-0.9522015272474555,-1.14611816406,-0.87915039062,0.001277644709794185,0.035691241164463344,0.309988168565858,0.24731445312,0.36840820312,0.0005359302333098417,0.02311589584903859,-0.19313220864502958,-0.25476074218,-0.07043457031,0.0020242420283182218,0.04492497241599192,1.0212252133464497,0.94858298969,1.20716704681,0.0010089744000902814,0.031717333884314226,Null
-0.8019570498733244,-1.22399902343,0.21643066406,0.17237615606856407,0.4146160468071781,0.34898072951792913,0.07141113281,0.92028808593,0.024614259631466018,0.15667543139922202,-0.262982028053624,-0.95959472656,0.033203125,0.07083229465563334,0.2657805318829077,1.0431145913392372,0.80101630319,1.29512204195,0.013122861148834306,0.11439888126195705,Null
-0.8090382771285842,-1.44738769531,0.11608886718,0.06472220379149927,0.25402215925886645,0.5266451548343976,0.11145019531,0.92028808593,0.029245359232562374,0.1707550022726684,-0.17986876705846383,-0.71618652343,0.3466796875,0.05962570056174096,0.24381571950578015,1.0484607712266565,0.70417820146,1.49777726056,0.018059971953106796,0.13418485178001258,Null
-0.9056897008628614,-0.94506835937,-0.88452148437,0.00029165381536539316,0.017052667815531157,0.3543798395982596,0.3232421875,0.37158203125,0.00010338931964953062,0.010153045671409476,-0.34482594717554577,-0.37683105468,-0.32690429687,0.0001513155294980703,0.012282881217530994,1.0319327061320354,1.00637735159,1.07871316677,0.00042472869863665816,0.020578527926458465,lift up
