avg_accX,min_accX,max_accX,var_accX,std_accX,avg_accY,min_accY,max_accY,var_accY,std_accY,avg_accZ,min_accZ,max_accZ,var_accZ,std_accZ,avg_magnitude,min_magnitude,max_magnitude,var_magnitude,std_magnitude,Label
-0.4606805098655639,-0.73803710937,0.09252929687,0.054495706313845725,0.23315043554809664,0.4944841963288471,-0.53625488281,1.1005859375,0.2717189436951917,0.5206130461641415,-0.3803925095919047,-1.07995605468,0.08935546875,0.11495812093808234,0.3386295990411335,1.0176829427035587,0.78599087399,1.27221954936,0.0058427603635793305,0.07634210407040255,Null
-0.8995825195275501,-1.10900878906,0.0185546875,0.04944068351179624,0.2220744960661101,0.23359527587550002,-0.5068359375,0.55004882812,0.025979232030912177,0.16097914135326633,-0.26038177489869996,-0.86596679687,-0.12475585937,0.033664429027130904,0.1832491963271956,1.0179228095954749,0.73546240833,1.3163694269,0.004269592446179451,0.06526038970971597,Null
-0.9454217529263499,-1.19763183593,0.31274414062,0.04086878976355007,0.20190744857270918,0.29015655517205,0.04602050781,0.74816894531,0.018672188512852468,0.13647530194716676,-0.20454193114939997,-0.88427734375,0.21166992187,0.02768015059918227,0.16616543028766337,1.04746597907825,0.79621401656,1.40602316616,0.00969284986594789,0.09832912966808473,Null
-0.49393676757547494,-0.869140625,0.47180175781,0.10177841253747787,0.318628257544955,0.68001770019195,-0.01110839843,0.94995117187,0.0543196655897455,0.2327742821399545,0.055740051267724994,-1.00720214843,0.50244140625,0.1845034643941405,0.429001405281096,1.017495750219625,0.61222005256,1.53698721258,0.01399197313721839,0.11813971899566778,Null
-0.6294000244102,-0.74987792968,-0.57861328125,0.0011921266262577973,0.03448400077850818,0.7870227050741251,0.68444824218,0.82116699218,0.000724632875990561,0.026885336036594085,0.172340087886575,0.01745605468,0.24731445312,0.002381473016307031,0.04873929968481557,1.0244450576795001,1.0078348039,1.0421184474,5.01710865851651e-05,0.00707429564470571,Null
-0.6349261474568499,-0.76721191406,-0.54528808593,0.0024925914141733503,0.04986341279573548,0.762311401363675,0.66687011718,0.90673828125,0.0020968367129790525,0.04573395479506014,0.24748260497674998,0.06005859375,0.37902832031,0.0026910092895928777,0.05181005468409482,1.02585182334745,0.9914067493,1.15122935187,0.00038876992417065083,0.01969258742167276,Null
-0.6578787231409248,-0.82531738281,-0.43359375,0.004743159417657892,0.06878445695877629,0.7593280029256251,0.61706542968,1.0,0.004236166157187936,0.06500442863217064,0.16040283202834998,-0.14611816406,0.30651855468,0.011166533724260713,0.10553964842631446,1.026049544538475,0.82902234421,1.20445423886,0.0024364167585679075,0.04929833381232562,Null
-0.6569821166955001,-0.80407714843,-0.49499511718,0.003129815808662461,0.055874782050051926,0.7702301025356002,0.65295410156,0.93395996093,0.0021076491359297953,0.045851717667825385,0.12028198241957501,-0.14514160156,0.32275390625,0.011853298111250186,0.10873667672856321,1.026916310234475,0.88140027848,1.16601504991,0.0018432037372165875,0.042878849423387586,Null
-0.65272918700815,-0.69775390625,-0.59521484375,0.0003760714383471928,0.01936830554672568,0.7842315673788499,0.74816894531,0.82141113281,0.0002535387294855575,0.015902983451599375,0.03730010986145,-0.04260253906,0.1337890625,0.002386676355162769,0.04879251647819429,1.022450197550125,1.00109607262,1.05052554199,7.035626893359314e-05,0.00837737299284562,Null
-0.5420709228478,-0.73254394531,-0.37451171875,0.009844775247389819,0.09909673712727046,0.8157339477498,0.77526855468,0.8984375,0.0010383594446175578,0.03218328053517873,0.256222229001575,-0.03405761718,0.51220703125,0.035987331032197235,0.18946599353080948,1.0348003941179,0.97142240098,1.14701363793,0.0008561638473953151,0.029223679401759576,lift up
-0.477527770992075,-0.51525878906,-0.43212890625,0.0003179451269534877,0.017808713152165263,0.859999999996,0.79907226562,0.89770507812,0.0005899169630335923,0.024257826997198417,0.22616058349202497,0.21032714843,0.24853515625,8.149115579112604e-05,0.009015954076061403,1.009566823584775,0.95221101212,1.03076568703,0.00046046734501263255,0.021431662946446807,lift up
-0.8648876953092501,-1.11437988281,0.05236816406,0.03693282924507555,0.19193878496010872,0.4423028564413499,0.23937988281,0.86694335937,0.025732065142847184,0.16021153198190843,-0.07685913085759999,-0.53051757812,0.52746582031,0.055047632205142166,0.23432885679025814,1.02855870783315,0.75774639863,1.29995193621,0.009077792608451563,0.09515827933989997,Null
-0.6257135009749001,-1.64807128906,0.70690917968,0.5430978759289811,0.7360299798507929,0.45423828124645,-0.00366210937,0.998046875,0.04399011988966055,0.20947588068781664,-0.08251647949175,-0.69494628906,0.51184082031,0.08359249842600043,0.28876204248469955,1.1094696667675001,0.73139677408,1.71094431505,0.0428467392194589,0.2067356340145797,Null
-1.0623529052699001,-1.49951171875,-0.67041015625,0.028687365864417877,0.16916160158190993,0.3811218261688501,-0.10314941406,0.76904296875,0.03942763084597008,0.19831556108600037,-0.04375366210845,-0.26354980468,0.24572753906,0.012926477612943715,0.1135524610869855,1.15552792568855,0.83968963096,1.53446588208,0.021409532085292556,0.14613695034138124,stairs up
-1.02195373534765,-1.31018066406,-0.67321777343,0.018682300461416206,0.13651225113616236,0.37078063964485,-0.09631347656,0.7021484375,0.030247710637868207,0.1737011553250972,-0.1235314941383,-0.53979492187,0.59350585937,0.03205222920737098,0.17880743450525918,1.12417436555735,0.80287561775,1.42980659489,0.014174967921374227,0.11890975780637512,stairs up
-1.0567282104456002,-1.32299804687,-0.30151367187,0.027971963202799027,0.1670390172827655,0.364988708492575,-0.08032226562,1.07080078125,0.05573133377068027,0.2357795695904409,-0.115539550779325,-0.50061035156,0.39855957031,0.02502685874837522,0.15800092278687577,1.1643424293336,0.86186452412,1.51894257917,0.016045807980233664,0.12651360978283357,stairs up
-0.9513824462852,-1.3251953125,-0.48461914062,0.03606912664573948,0.18968118997181857,0.3794055175741,-0.0810546875,0.79907226562,0.02771742663409562,0.16627727766447942,-0.0900561523419,-0.39086914062,0.25512695312,0.01608381298799438,0.12666334693005862,1.0547777961840001,0.66774608849,1.37526706247,0.024362614005340965,0.1558900492986246,stairs up
-0.9573339843714002,-1.33508300781,-0.34155273437,0.03246862248384569,0.1799651380896758,0.38462524413675,0.08557128906,0.81127929687,0.024776456760862778,0.15720851000808012,-0.13432373046635,-0.76696777343,0.15930175781,0.024220993876687528,0.15543629367684952,1.0662914582729,0.64045463017,1.42367468113,0.026819784039720088,0.1635626319781532,Null
-1.0188165283163,-1.30102539062,-0.78076171875,0.008129105740793091,0.09004878109358898,0.24116271972265,-0.06750488281,0.58093261718,0.009471424674076497,0.09719951703785007,-0.10200988769315,-0.89782714843,0.27612304687,0.025537149092489397,0.15960359087363346,1.0666987232436,0.85410030425,1.58605379232,0.011765676272984908,0.10833403012120636,Null
-0.79640563964465,-1.25354003906,-0.27172851562,0.060811151851368164,0.24629073058428275,0.4046301269504,-0.22766113281,0.95031738281,0.0819795483793069,0.285962584105611,-0.12095947265530002,-0.97143554687,0.5419921875,0.17021050025701498,0.41204972273546364,1.0546093862724,0.80123856674,1.34695029634,0.012668086609224772,0.11241181607242946,Null
-0.65903625487955,-0.80346679687,-0.599609375,0.0020512290821512336,0.045233848050390935,0.7154370117149,0.62158203125,0.7587890625,0.0008425742522291014,0.028990822972080815,0.3082012939414,0.08923339843,0.41174316406,0.004900076167856409,0.06991298861754351,1.0240869446701502,0.99642696417,1.07507923688,0.00018773446202625946,0.01368448485954783,Null
-0.5942770385701749,-1.02746582031,-0.29809570312,0.018732973084726514,0.13669725912400255,0.6890438842740749,-0.11767578125,0.9814453125,0.07248497992550583,0.26889359880014263,0.02296295165872504,-0.96411132812,0.345703125,0.1392276080884886,0.3726654519381524,1.026096033214325,0.76050311189,1.2685842004,0.005484058140822336,0.07396180092095027,Null
-0.9927197265584999,-1.63916015625,-0.27307128906,0.11245638954321042,0.33492573590178526,0.47485717773145,-0.27392578125,0.99841308593,0.10316109177838668,0.32078526937647983,0.051627807617299994,-0.25549316406,0.60412597656,0.041060821315263216,0.20238124730808202,1.1962216432630501,0.74111398055,1.68458213912,0.03883469907829559,0.1968187296234783,Null
-0.8418829345666,-1.24108886718,0.00061035156,0.09423182285467066,0.3065880677677036,0.37577270507439997,0.11254882812,0.99755859375,0.05407243251660466,0.2322439481134291,0.012047119142149985,-0.27136230468,0.73852539062,0.08108455859592795,0.2843973403522581,1.0354082106422,0.84389615559,1.60039587096,0.006879512522026983,0.08283908341309623,Null
0.21558898925479997,-1.03308105468,0.48889160156,0.2556930791433145,0.5050285600294862,0.8344644165005249,0.12438964843,1.00170898437,0.05283496340948635,0.2295710696080032,0.014105529782875,-0.3876953125,0.13525390625,0.015704183384207034,0.12515958982733413,1.0304897215273001,0.73349408822,1.33989184991,0.004532350740504062,0.06723852960656414,Null
0.35305847167695004,-0.70288085937,0.568359375,0.09988407338602301,0.3156491140531808,0.87994140624615,0.74377441406,1.08923339843,0.0026546441761461474,0.051458794833398325,-0.08379211425695,-0.60217285156,0.17834472656,0.025069042768641442,0.15813402594546133,1.0153301496546998,0.85518594535,1.2026080408,0.0023676284649431587,0.04859742167832364,lift down
-0.6573333740198251,-0.75451660156,-0.4833984375,0.002179976758152417,0.04663182192727447,0.7738259887658501,0.64074707031,0.90490722656,0.002589832484491847,0.05082674397677484,0.10100524902095,-0.27770996093,0.29528808593,0.014131896414248706,0.11872896307646709,1.028900950690725,0.91024146274,1.14199338116,0.00125555867403302,0.03538954333341895,lift down
-0.6692279052697999,-0.70227050781,-0.62744140625,0.00042102780221330715,0.020493297262953413,0.7701031494101249,0.73815917968,0.8076171875,0.00036011812944723704,0.018953042872415473,0.076726074215175,0.03271484375,0.11584472656,0.0005137982882408121,0.02263876746910507,1.02375458623465,1.01136558584,1.04528386628,3.0069585833998143e-05,0.0054767154270979924,lift down
-0.674078063961725,-0.71936035156,-0.63684082031,0.00035714214672924195,0.018874567315899426,0.7843725585903251,0.75646972656,0.82690429687,0.0002650365136301169,0.01625957940249506,0.051076965328225,0.02709960937,0.07507324218,0.00013766400786797338,0.011718355168209548,1.0356203356229,1.00549513508,1.08799415109,0.0004724788429072178,0.021709390728437077,lift down
-0.6721685790981249,-0.69274902343,-0.65588378906,4.7794499417565696e-05,0.00690470949200774,0.767416992183575,0.75354003906,0.78967285156,3.977448718797274e-05,0.006298813457311051,0.056505432125099994,0.04431152343,0.07250976562,3.576668497757934e-05,0.00597304514172925,1.0217771534343,1.01135304738,1.04313565465,2.6845646255767228e-05,0.005174797787365977,lift down
-0.629126281734475,-0.78125,-0.42944335937,0.004706257917713866,0.06851636500077614,0.7878051757776501,0.65966796875,0.98681640625,0.003347681130380494,0.05778677986836213,0.15262512206672502,-0.03601074218,0.37768554687,0.01332726061747113,0.11529936021473602,1.0284203740992999,0.85655116924,1.21130712466,0.0034191298667574006,0.0584001887162234,Null
-0.577445678706975,-0.79467773437,-0.23620605468,0.011322653096081053,0.10627486280085639,0.7825299072226,0.59680175781,1.20239257812,0.007408856968770928,0.08596705663420727,0.20194610595345,-0.78857421875,0.58337402343,0.07439705550406484,0.2724170752087774,1.03652060521355,0.82094256409,1.31876411159,0.005112357284230298,0.07141131836774701,Null
-0.12870819091585,-0.57958984375,0.62548828125,0.07320718261701686,0.27022983673250134,0.788320922848375,-0.11999511718,1.1435546875,0.08933138465496135,0.29850972545852494,-0.15710083007825,-1.08642578125,0.4833984375,0.2726961728160468,0.5215500286492243,1.037980313998375,0.4972671239,1.48093208772,0.01948858908266399,0.13942692569929716,Null
-0.04770172119192502,-1.26611328125,0.74450683593,0.5021360650310532,0.7077292737116896,-0.08514739990207502,-0.89807128906,1.58288574218,0.49259302010949446,0.7009718521875331,-0.254542236325275,-0.70068359375,0.59362792968,0.10485094465690223,0.3234019438643806,1.057797654458,0.25683144104,1.86830336454,0.05234334429757294,0.22850051627256557,Null
-0.824425964351675,-0.95324707031,-0.79431152343,0.0008538113798737661,0.02918350306978382,0.3263858032189,0.09509277343,0.365234375,0.002132034484701342,0.0461162053782571,0.508355407710925,0.40661621093,0.58386230468,0.002247602079754467,0.04734958367879364,1.024414513516025,0.98918456609,1.07109055466,0.00042742116745250085,0.020648307788626884,lift up
-0.80912506103085,-0.94152832031,-0.77355957031,0.0009460659589312529,0.030719713443226073,0.12338043212500001,0.05798339843,0.19018554687,0.0005443013393258299,0.023301085510712055,0.591146545406,0.40576171875,0.63562011718,0.0018570902688525288,0.04304006904246783,1.0111927433035501,0.97270904918,1.07058313526,0.0001891312091604162,0.013735296907512235,lift up
-0.785360412593825,-0.81127929687,-0.75170898437,0.0001561647704934537,0.012480959841583502,0.079644470211125,0.05041503906,0.10339355468,0.00016252360014361062,0.012732528858920822,0.60665649413645,0.55932617187,0.63537597656,0.0003526855695121213,0.018756435044761065,0.99570956982045,0.94499931191,1.02212133296,0.0003994679270420236,0.019961694748302776,lift up
-1.01384368896105,-1.62231445312,-0.65490722656,0.06724592694443322,0.2589938457320408,0.29268218993785,-0.18078613281,0.87866210937,0.07015014100673343,0.26452743837684706,0.18211151122999997,-0.35668945312,0.63000488281,0.1195641062471318,0.3453479346709836,1.164396312141325,0.81875743607,1.67143150044,0.047323804019192825,0.2172682547201612,Null
-0.7876770019488001,-1.61389160156,-0.55676269531,0.0198264218735741,0.14063020948178298,0.272364196773825,0.03369140625,0.9599609375,0.018394684126068737,0.1354573638299283,0.563765258785075,-0.24060058593,0.70776367187,0.04126743709751703,0.20288979398869042,1.03953149318355,0.85165867568,1.64626994608,0.011140529843499426,0.10541668994466995,Null
-1.20734619140245,-1.79553222656,-0.599609375,0.0986474800764998,0.31368911580784653,0.315985412594775,-0.33166503906,0.88256835937,0.08676276689761767,0.29418677737174664,0.065009765624125,-0.56628417968,0.79443359375,0.07718643055088009,0.27747696206082206,1.3249263415503751,0.76936242628,1.83131233132,0.06843935016735267,0.26128193927620463,Null
-0.70526641845415,-2.03393554687,0.7021484375,0.43023713180328105,0.655104219932808,0.47688018798627496,-0.74853515625,1.30688476562,0.23749785128005085,0.48672795959534804,-0.08913940429625,-0.89624023437,0.51672363281,0.09557783927789716,0.30876997049535504,1.1658861513925,0.42078985951,2.37028347857,0.13521332369727723,0.3672537139200011,stairs down
-0.5249536132779,-0.85607910156,-0.27856445312,0.017701357881036415,0.1328800379527859,0.8531585693324749,0.53625488281,1.27990722656,0.022311422525657106,0.1491832563304038,0.227106933589725,-0.02075195312,0.51245117187,0.017700131052912488,0.1328754331141773,1.042505090116725,0.64759133753,1.48939513527,0.02584979054189259,0.16057760138181745,stairs down
-0.6886886596639501,-1.30627441406,-0.22619628906,0.05606246784216628,0.2364789878034851,0.7308660888630502,0.17993164062,1.16564941406,0.028347371589147262,0.1681561868031456,0.26073913573957497,-0.26586914062,0.59008789062,0.04044038773367783,0.2008464258191906,1.0834211059824,0.78980427048,1.47004580151,0.025714050585076274,0.16015544155168,stairs down
-0.9790682983362751,-1.61535644531,0.62841796875,0.12817535124341797,0.35756805347417353,0.35392761230145,-0.54614257812,1.19873046875,0.06271286341416178,0.250112137361677,-0.127524414060225,-0.47277832031,0.17138671875,0.02270117786829466,0.15048064634239156,1.116866844587525,0.33533130333,1.68921987433,0.06593066089475323,0.2564485021257023,stairs down
-0.04501037597725002,-1.50769042968,1.0556640625,0.5824144707286071,0.7622062939597032,0.20857513427507499,-0.9638671875,1.3046875,0.2756204804236826,0.5243390403380463,-0.42414672851207497,-0.95922851562,0.09033203125,0.05697235200451087,0.2383902706162724,1.044891224295325,0.64867420931,1.56887859619,0.045420076903181554,0.21285329856716717,stairs down
-1.0831237792928001,-1.32678222656,-0.89770507812,0.0084678763360269,0.09190596631985778,0.3145117187462,-0.08459472656,0.67761230468,0.04420726146269512,0.20999224583074105,-0.20324951171539996,-0.30383300781,-0.00170898437,0.004084079181947019,0.06382686725817077,1.1650127097989,0.9276394926,1.38358066796,0.012779760858975265,0.11290620645840434,stairs down
-1.0434484863243,-1.48107910156,-0.66906738281,0.0357845209759559,0.18893136233435678,0.30996582030909997,-0.27917480468,0.65551757812,0.03921615871830656,0.19778300817186192,-0.1798596191371,-0.51611328125,0.11706542968,0.015102915923454335,0.12274020789311749,1.1281620355704,0.7586380208,1.5097681418,0.034427863756030554,0.18531539087901058,stairs down
-0.9809802246052002,-1.4443359375,-0.67456054687,0.03766172114335513,0.1938235456297731,0.3518469238245,0.17370605468,0.65161132812,0.010643334632128194,0.10303749946280662,-0.21565551757520002,-0.62365722656,0.16186523437,0.030346371587748278,0.17398421094679514,1.0836354733558,0.75518052718,1.5217538284,0.03690698828327725,0.19187162586627826,stairs down
-1.0780822753868,-1.74841308593,-0.72338867187,0.037386664583814434,0.19311446844386077,0.2635351562472,-0.15209960937,0.74841308593,0.037083550586371736,0.19233003330188922,-0.24890869140270003,-0.71728515625,0.06188964843,0.022463239768945056,0.1496899517987854,1.1625547511543,0.80393399449,1.80481195227,0.03892258607316404,0.19704131446978607,stairs down
-1.03661865234,-1.36865234375,-0.701171875,0.021011262603263598,0.14477131776272342,0.2824279785119,-0.40283203125,0.63220214843,0.040764372263358564,0.20164935242321055,-0.23974243163689998,-0.59899902343,0.05249023437,0.01660776689665691,0.12870993543396433,1.1253556915689,0.8004694634,1.47776584435,0.023641341019034923,0.15356509260403986,stairs down
-0.9930029296837,-1.42077636718,-0.66748046875,0.04327892237748163,0.20777566044062504,0.2944934081997,0.14501953125,0.53234863281,0.004014568369167701,0.06328137125762037,-0.1896960449189,-0.49279785156,0.10998535156,0.019402827683026896,0.13911980669128077,1.0644671034962,0.72113980138,1.45036187034,0.04231091578878664,0.20543889237268262,stairs down
-1.080280761715,-2.23303222656,-0.52770996093,0.09291387596814034,0.30443651436419383,0.4205908203093,-0.50720214843,1.205078125,0.08035188255401651,0.2831095244735356,-0.0796105957021,-0.4716796875,0.48913574218,0.055510951179153785,0.23531292739925255,1.2255985166979,0.75252978519,2.25386948448,0.07654541654448384,0.2763223715212408,stairs up
-0.8446350097617001,-1.22082519531,0.82104492187,0.15099204852525205,0.3880909280103555,0.49700927733989997,-0.06750488281,1.05432128906,0.041761051293728695,0.2040996047656496,-0.1317224121075,-0.64038085937,0.22326660156,0.026466818755966307,0.1624827735763899,1.0827594073711,0.60421892192,1.42946863844,0.02414160386749037,0.15518134507028106,stairs up
-0.170967407224725,-0.77185058593,1.2841796875,0.3828666658410428,0.6179882678307415,0.709214782711325,0.26196289062,1.09619140625,0.03826588533951394,0.19537200573819463,0.22981903075920002,-0.46704101562,0.67102050781,0.05567996421914618,0.23567088133369024,1.0205312929556,0.62349951156,1.42159090767,0.019216655096886276,0.1384507618583013,Null
-0.6034362792932001,-0.74816894531,-0.46911621093,0.003069518316105763,0.05533393642526708,0.7106933593715,0.56994628906,0.76086425781,0.0009118019787607264,0.030158290299912967,0.41015991210599995,0.18920898437,0.5126953125,0.004702815273071258,0.06849130043216131,1.0227138712280002,0.96216871115,1.05071052681,0.00017073739211382317,0.013050308373120484,Null
-0.854315185543,-1.21350097656,0.22241210937,0.07982867922542948,0.28218629932611167,0.4758349609332001,0.04138183593,1.25207519531,0.06451423452621591,0.2536788302951201,0.02043457031309999,-0.36645507812,0.53125,0.04933492402272651,0.22183684705807938,1.0585608256844,0.16350137027,1.58002563785,0.029407057110332757,0.17127036949676067,Null
0.11779907226407502,-1.11145019531,0.90197753906,0.6408537892094484,0.7995321474064847,0.52055755614835,0.25952148437,1.01892089843,0.028080528338690985,0.16736286033001546,-0.284785461422125,-0.50634765625,0.0537109375,0.013542680604350823,0.11622746621534837,1.017904425296625,0.61417321621,1.54117104311,0.010627505111094317,0.10296084861886376,Null
-0.7921545410112,-1.39501953125,-0.11987304687,0.07691027528199026,0.276980142959356,0.5294580078094,-0.06225585937,0.92016601562,0.07056897143051179,0.26531594185411383,0.029338378907699986,-0.30187988281,0.681640625,0.04868708464027446,0.22037551345073203,1.0462489128537,0.80604210509,1.43061425965,0.00975886439422915,0.09866340371811413,Null
-0.995673522945425,-1.30261230468,-0.82678222656,0.0070395437800764545,0.08379704601372451,0.3399929809535,0.14904785156,0.81359863281,0.01557925176191523,0.12466075417913387,-0.111246643063175,-0.36267089843,0.11560058593,0.008068853481200788,0.08971444336057481,1.066564302012825,0.88403274801,1.4257733384,0.011313513328227841,0.10623196103295501,Null
-0.7946585082970751,-1.18591308593,-0.1005859375,0.07355266088964249,0.270866718585762,0.5053015136675499,0.14135742187,1.05798339843,0.05166286491649637,0.22701036926582258,0.20428222656109998,-0.27172851562,0.89965820312,0.08424687190630774,0.2898900735219162,1.0607490656140748,0.87285175746,1.53503655799,0.012323964041461128,0.11087449720904026,Null
-0.971539916988675,-1.03149414062,-0.88488769531,0.0005272556512693245,0.02293332754183638,0.26955535888275,0.16760253906,0.369140625,0.0010770069849817855,0.032776736681972035,-0.095412597653625,-0.26342773437,0.07751464843,0.005269719926581805,0.072502038776612,1.015924491558575,0.94590014328,1.06448689678,0.00038170787107124715,0.019512908583641984,Null
-0.94368652343365,-0.99768066406,-0.83227539062,0.0011818635672788153,0.03433524294890919,0.34959686278902496,0.236328125,0.42895507812,0.0020202221576856296,0.04489066275175067,0.0032485961908999992,-0.09094238281,0.06994628906,0.0009664281020044408,0.031048543150193533,1.0079912314777,0.90410063161,1.06790322254,0.0008867610687849284,0.029741287230262346,lift down
-0.96716033935195,-0.99584960937,-0.94250488281,7.071608579428027e-05,0.008398767503615907,0.3159637451135,0.27685546875,0.400390625,0.001133165105187266,0.033620413329170984,-0.0733834838826,-0.10388183593,0.00341796875,0.0005583865106747736,0.023600647118206034,1.020844356849975,0.99907737877,1.06967804892,0.00025263866387947886,0.0158747304613269,lift down
-0.9770816039998249,-1.17114257812,-0.72546386718,0.004699927131401836,0.06847026590844621,0.272129821773675,0.10473632812,0.61633300781,0.008953133096114476,0.09450264685909168,-0.15315765380504998,-0.36767578125,-0.04345703125,0.003972149088632697,0.06294615727676404,1.031859513203625,0.85441048367,1.22868224137,0.005060109270649467,0.07104547133683359,Null
-0.9020783003394265,-1.27136230468,0.01342773437,0.06654621838672109,0.2576436836358064,0.37699543864538654,0.14526367187,1.36755371093,0.06966289344498186,0.26360798644708233,-0.09202792578832918,-0.3515625,0.61303710937,0.040731236202926804,0.20156800849293344,1.0544038316681796,0.3697987699,1.51370194436,0.0291442989252479,0.1705040171830535,Null
-0.8806993680455638,-1.08361816406,-0.1708984375,0.04481162286078705,0.21142212048188275,0.3979776712249624,0.13293457031,1.06262207031,0.044169060748418684,0.20990083693984335,0.03987263079581454,-0.28112792968,0.58581542968,0.04735666529421526,0.21734299369894405,1.0303945447892982,0.73248455542,1.31475858837,0.009915013369558145,0.09944930221972566,Null
-0.535603027342125,-1.03649902343,0.52380371093,0.23841400574032204,0.4876658392034152,0.54593200683225,0.19348144531,1.11218261718,0.06680230694562235,0.25813814359419707,0.300700683591825,-0.38757324218,0.61083984375,0.06672016188498467,0.2579793818898561,1.0187102259178749,0.74630986823,1.38040594509,0.008590846205936463,0.0925708868404188,Null
-0.84211559723399,-0.98974609375,-0.76025390625,0.0028868082654834927,0.05366199066730146,0.4540184572715212,0.28076171875,0.58264160156,0.006063973499152505,0.07777436191140169,0.2211974945450374,-0.21691894531,0.677734375,0.09792794663258743,0.31254397656868066,1.0340123613275312,0.93918655801,1.20635637842,0.0016545307778540138,0.04062517404195539,lift up
-0.8913708832591228,-1.1005859375,-0.78430175781,0.0022243948418862202,0.04710435136450204,0.44722921806082705,0.23168945312,0.59265136718,0.00783149267224153,0.0883847547434396,0.033592281485639086,-0.25903320312,0.39318847656,0.032164760528131636,0.17912048205948988,1.018327457296391,0.93390130918,1.12471007876,0.0008105193609643224,0.02843392312221091,lift up
-0.908598632808475,-0.94226074218,-0.85339355468,0.00041931363274409864,0.02045153658438012,0.41371551513265004,0.37670898437,0.46362304687,0.0003209411006521367,0.017892421521429298,0.11441436767175,0.03430175781,0.16442871093,0.0004940582351454161,0.022199619130911966,1.00527387313235,0.95098980173,1.04494408557,0.00045946638407135475,0.021408356268316733,lift up
-0.9455067166029426,-1.48803710937,-0.34106445312,0.06273146900992059,0.25015001785197266,0.4799378506820698,-0.01354980468,1.28308105468,0.058935778257006036,0.2424640308198363,-0.013617993589900252,-0.54919433593,0.31091308593,0.03289908844377998,0.18115475657350807,1.1159585907650373,0.7673602972,1.57015165767,0.033409363730891456,0.18255423470675236,Null
-0.9662942145366417,-1.44787597656,0.09020996093,0.07831752268247871,0.2795017677305056,0.38834237693518797,-0.03527832031,1.16662597656,0.05863981547614998,0.2418529481318543,-0.07492975602937343,-0.54895019531,0.18713378906,0.020122079832164727,0.14167444566466417,1.100244166780301,0.52994989743,1.54101454682,0.03638848702961256,0.19051847105726913,Null
-0.673563537595675,-1.744140625,0.71069335937,0.4546805545380924,0.673456645339362,0.30339172363067496,-0.65051269531,1.16796875,0.15419101508435662,0.3921804910326949,-0.262264709470325,-1.09729003906,0.17053222656,0.07644735585454579,0.27614531946949494,1.1006743470240752,0.21685793592,2.09106877867,0.08685590470910581,0.2943446363488437,stairs down
-0.44888876441374065,-0.80895996093,-0.17993164062,0.02015781207703891,0.1418010691743593,0.8863361006622195,0.63220214843,1.52490234375,0.031005687070235193,0.17586462451228807,0.22818716148800494,-0.21301269531,0.56909179687,0.023466068046174765,0.1529952586626189,1.0353229668807231,0.70210264902,1.64463476457,0.04181627961927763,0.2042351576497716,stairs down
-0.8050625832122805,-1.36950683593,-0.17810058593,0.08711251163052725,0.294778195485536,0.5780996069237093,0.07250976562,1.09997558593,0.07578432304370232,0.27494433508798877,0.0626805049733083,-0.28393554687,0.49914550781,0.06090478889317106,0.246479502823227,1.0900718910110778,0.74373459439,1.43726521627,0.021793331248704872,0.14744053503324167,stairs down
-0.6036084714926683,-1.40661621093,-0.16345214843,0.08386039372586902,0.2892252851359371,0.7084026384195261,0.11669921875,1.35632324218,0.06482993543020896,0.25429955715315006,-0.24179389173316704,-0.79663085937,0.37451171875,0.06647831267746766,0.25751219650551493,1.0516297477612968,0.71360686391,1.49501986096,0.03343207812795265,0.18261628175507116,stairs down
-0.5502474975545,-0.97204589843,-0.24426269531,0.028741253105771865,0.1693204062510111,0.70830627441025,0.43579101562,1.03564453125,0.021646707457960004,0.1469441754181332,-0.49097930907792503,-0.82641601562,-0.25415039062,0.018485683053375484,0.13579200582413548,1.0343899843621,0.6429810116,1.48677488873,0.04399472319552441,0.2094868406070787,stairs down
-0.24600463867142502,-1.48974609375,0.82385253906,0.5398721421090493,0.7338408967574489,0.342298889157925,-0.61889648437,1.29699707031,0.2120521801260006,0.45991526358198376,-0.40930664062165,-0.99523925781,0.02099609375,0.05355979085256615,0.23114041484654893,1.050296621783275,0.46343347451,1.65695274936,0.04568034776976389,0.21346228449152202,Null
-0.2887249755846,-1.8408203125,0.77294921875,0.5265444071150621,0.7247261869818659,0.407241210934875,-0.66064453125,1.96801757812,0.2712698702145546,0.5201842899771371,-0.24379364013459998,-0.79626464843,0.49658203125,0.1269485121764946,0.35585269550202003,1.057004504682975,0.15997271372,2.7092924926,0.11412051528031733,0.3373947450570571,Null
-0.5578625488244251,-0.70056152343,-0.47973632812,0.0013540182480907825,0.03675096192578577,0.805938110347725,0.70593261718,0.88049316406,0.0007582560812937616,0.027502007946521415,0.294331054683375,0.16333007812,0.396484375,0.0009970982331804236,0.031537366529205836,1.0247534671421001,0.95353425729,1.10164721819,0.00036046271400596934,0.018962108459265662,Null
-0.6208367919884,-0.77893066406,-0.36975097656,0.003519803643711633,0.059253726757077095,0.754696655269675,0.64196777343,0.87036132812,0.0022315110236487937,0.047179786414201494,0.305387268062275,0.14660644531,0.46301269531,0.005307414118521764,0.07276087948358967,1.028839408280175,0.9543859786,1.11794395445,0.0007892743777832229,0.0280588879294737,Null
-0.6783029174764501,-1.2861328125,0.20056152343,0.10298541935387388,0.320512021311977,0.6279934692345249,0.17272949218,0.97534179687,0.04292270174459959,0.206918812557578,0.19247833251737503,-0.37915039062,0.80615234375,0.07355772776870811,0.2708760481277116,1.0476649992825,0.81746234757,1.47021583701,0.012865952152277347,0.11328630663896079,Null
-0.968562011714875,-1.181640625,-0.83813476562,0.0020899315287117837,0.0456585884570472,0.237594604488425,0.13220214843,0.38977050781,0.0026641071197850866,0.05155043018235273,-0.21234558105079998,-0.35412597656,0.248046875,0.005146301984349306,0.07164800227074326,1.02359544523355,0.90740004277,1.20552440522,0.00178663327341837,0.04221571615210174,Null
-0.9633843994100749,-1.00012207031,-0.94897460937,7.189273199928239e-05,0.008468352860461366,0.22948608398030002,0.18029785156,0.24938964843,0.00027767081457397597,0.016642615105131195,-0.23354553222292498,-0.2529296875,-0.21423339843,8.858920301074751e-05,0.009400411161391859,1.017699097550225,1.00076337079,1.04591556966,4.2590077782743175e-05,0.006517944659805445,lift up
-0.9595562744102001,-0.9677734375,-0.94567871093,1.3465731592764724e-05,0.0036649784806711775,0.241427612300675,0.22448730468,0.25646972656,5.6789921866360126e-05,0.0075264830473265685,-0.23871917724167502,-0.26086425781,-0.21643066406,8.075797981148851e-05,0.00897530416542859,1.017919959334575,1.01034435606,1.02510099407,1.200382286159594e-05,0.0034603198269006798,lift up
-0.9461837768517251,-0.97021484375,-0.90234375,0.00033492624601148596,0.01827809974796224,0.24079406737902503,0.20007324218,0.26501464843,0.00017563065455046445,0.013235995539213825,-0.23751464843385,-0.26013183593,-0.22106933593,5.959122401969352e-05,0.007709879762982318,1.004935556924375,0.96049408645,1.03245042522,0.00033281189702756184,0.01822031468677182,lift up
-0.9881445312463751,-1.25122070312,-0.76208496093,0.008660758880120491,0.09294679651779393,0.268258056636925,0.06665039062,0.60864257812,0.014326342889562707,0.11954299240164101,-0.163534851070825,-0.3857421875,0.00708007812,0.008488262931971972,0.09201653261584053,1.0484072916559999,0.85690533626,1.29436461942,0.00739295658131197,0.08587475874701885,Null
-0.896982421871225,-1.2685546875,-0.44860839843,0.028409140803208145,0.1683392941389506,0.41499359130485,0.04956054687,0.93798828125,0.058183589282589994,0.2409110423151739,-0.17741180419567498,-0.35900878906,0.10681152343,0.010209176395201087,0.10091408947323999,1.0479194006376,0.88503860742,1.30225035613,0.006713709997097811,0.08183474642292886,Null
-0.9565057373006499,-1.05017089843,-0.755859375,0.001995854015817335,0.044619103316604104,0.283764038083125,0.13977050781,0.76977539062,0.012227989617041914,0.1104419288268695,-0.16282806396137503,-0.32446289062,0.0380859375,0.0066510473252544226,0.08145194722620992,1.02073991615545,0.91376358426,1.12430574267,0.0008182642251518552,0.028569539103544806,Null
-0.954689941402075,-1.00146484375,-0.90905761718,0.00032349483711898726,0.017963465701979386,0.2547341918908,0.2099609375,0.29541015625,0.00037825219903053374,0.019424380776049396,-0.2349575805627,-0.26123046875,-0.21618652343,6.969703683982246e-05,0.00833803299632011,1.0158251641133749,0.96270658889,1.07279047254,0.0004389752638125823,0.02092553047483028,lift down
-0.9718994140589001,-0.99731445312,-0.90588378906,0.000264898876192411,0.01625535693246783,0.23076568603125,0.14672851562,0.38208007812,0.003604505152368989,0.059962437321110174,-0.1838488769496,-0.27307128906,-0.07751464843,0.0019217263770824923,0.04378266850181457,1.018386520572725,0.97369037178,1.06426261806,0.0003079997469196181,0.01752797043448896,lift down
-0.9639343261683001,-1.15270996093,-0.61926269531,0.007570655535587416,0.0869006840982765,0.2893261718714,-0.0458984375,0.6982421875,0.023976963779314422,0.15465128958358587,-0.1141833496069,-0.35766601562,0.4541015625,0.02601509909656561,0.1610902273535679,1.0385466752112,0.87653844837,1.27341981302,0.0047683922277402995,0.06896717514275143,Null
-0.9784509277305,-1.24877929687,-0.81787109375,0.006040753713140724,0.0776250721665228,0.32017486571935,0.04541015625,0.63720703125,0.009809809239673162,0.0989205980399127,-0.04310577392445,-0.27221679687,0.27429199218,0.014826152220862905,0.12161038952454165,1.0423067896949,0.88068273088,1.31722304362,0.0059477192009809495,0.07702499531307028,Null
-0.9889221191368001,-1.146484375,-0.89196777343,0.0010416523780054023,0.03223427131269434,0.2046215820278,0.0478515625,0.47668457031,0.006313253650105154,0.07935660348061711,-0.1052819824182,-0.21081542968,0.00927734375,0.0030350934457648877,0.05502277448612052,1.0197708644508001,0.9214368765,1.17150111909,0.001356043973951843,0.03677844292540079,Null
-0.9916638183556,-1.05236816406,-0.93627929687,0.0005835576448864905,0.024126722752464212,0.1730615234336,0.0791015625,0.31140136718,0.002845481547436367,0.05327633474224532,-0.1771789550746,-0.25134277343,-0.07763671875,0.0011727879743415504,0.03420315781336127,1.0241215446125,0.97272692657,1.08412603191,0.0005064522398157492,0.022476345548514104,lift up
-0.9703198242141999,-1.01110839843,-0.92810058593,0.0003770156671393879,0.019392604981578403,0.1795800781214,0.1298828125,0.23059082031,0.0003101366444679465,0.017588669729595146,-0.1744494628867,-0.20776367187,-0.13842773437,0.00021111250969314772,0.014511537768924245,1.0023611343758,0.96285350642,1.0483146206,0.00037128448761050654,0.019244642797191125,lift up
-0.7101770019497999,-1.064453125,0.228515625,0.0814678794024561,0.2850687806546868,0.6432348632771999,0.28833007812,1.34851074218,0.07854559689809731,0.2799093297942247,0.048604736328700014,-0.34741210937,1.01782226562,0.07548121941416114,0.2743948184015612,1.0651332025858,0.77646796574,1.81569044714,0.02091438952731259,0.1444371958793659,Null
-0.5850781249961,-0.86401367187,-0.34814453125,0.017481048878004453,0.13205054432227625,0.8169287109340999,0.57873535156,1.21228027343,0.027224985901862675,0.16479357826416666,0.1471716308562,-0.06457519531,0.50317382812,0.01739521542112062,0.13172595561455538,1.0248056966843,0.70307025696,1.43722047368,0.043175640247465334,0.20752759129052376,stairs down
-0.5766088867154,-0.88671875,-0.29650878906,0.015801043791302892,0.125544976728759,0.8254980468713,0.59399414062,1.22692871093,0.016230057200065887,0.1272378955227794,0.1924548339815,-0.10437011718,0.54309082031,0.017684799416048006,0.132817873110165,1.0383680344653998,0.75205174579,1.43928327554,0.022403140258373252,0.14948957290636466,stairs down
-0.4602416992148,-0.7763671875,-0.22802734375,0.01218523492191498,0.11024868178173466,0.8204174804650001,0.61047363281,1.26171875,0.011722737691255937,0.10813616808000825,0.3564855956992,0.09289550781,0.60498046875,0.013815619609394866,0.11739284714313465,1.0178945380715998,0.71067229763,1.38633787807,0.013543094233262979,0.11622924114731122,stairs down
-0.17356201171690003,-0.9677734375,0.98779296875,0.24241328190782058,0.4917390046590275,0.6578015136695998,-0.50207519531,1.40795898437,0.19810266521276848,0.4445305485000289,-0.05143310546910005,-0.92553710937,0.56384277343,0.17367708450278435,0.4162245689426891,1.0167542302661001,0.45331492225,1.436873849,0.04445148061894109,0.2105714888521087,stairs down
-0.9784413477984288,-1.22583007812,-0.82751464843,0.006622132194464372,0.08127495400854831,0.31350517748219453,0.01538085937,0.59216308593,0.00960489287836792,0.09788227892243977,-0.1797940451566334,-0.40759277343,0.11242675781,0.012692255024167811,0.11251934729360707,1.0525628139797008,0.87286085668,1.28179232238,0.009007694701274745,0.09479046166265462,Null
-0.8891986083954752,-1.38415527343,0.34619140625,0.10887595825483795,0.32955085853203425,0.339237060543325,0.11193847656,1.22985839843,0.03051581805656107,0.17446927669770304,-0.15529113769332498,-0.82275390625,0.22375488281,0.0490757428456062,0.2212533694398623,1.0442594768757,0.43814701533,1.73215023177,0.027577511352255724,0.16585706971327777,Null
-0.6681918334926751,-1.05859375,-0.42419433593,0.03028267282514957,0.17380151363865246,0.66205322265245,0.06640625,0.87902832031,0.038683601913791846,0.19643546754343363,0.229871826169475,-0.21435546875,0.47741699218,0.0399925034718458,0.19973112479823016,1.02175565525935,0.79233748579,1.11575685945,0.002343473332126761,0.04834888466962236,Null
-0.59320709228145,-0.71887207031,-0.41027832031,0.0050674752670293805,0.07109716294523859,0.7382574462853251,0.61999511718,0.87707519531,0.0029913735565265383,0.05462504116827027,0.37223815917622494,0.17895507812,0.51623535156,0.0047730800409045504,0.0690010676787127,1.023706623149425,0.97905268749,1.09133725395,0.00028893057182642054,0.01697669712861882,Null
-0.598137512202975,-0.69116210937,-0.33215332031,0.000938293915840239,0.03059327019216217,0.7434011840784501,0.66857910156,0.99719238281,0.0007149470956843417,0.026705050607425007,0.3729574584921,0.24780273437,0.41223144531,0.0005587209577217023,0.02360771389455993,1.02539252427205,0.9974103641,1.16097676838,0.0002883940578643339,0.016960927826026297,Null
-0.607262573238475,-1.22485351562,-0.00439453125,0.10477639524792882,0.32328695343271896,0.654586486812525,-0.05847167968,1.04528808593,0.10595092153097477,0.32509390063049065,0.08034698486197499,-0.52758789062,0.57482910156,0.056877507174776715,0.23819175763833594,1.0315045722858749,0.84346354884,1.29702818207,0.006657713080700036,0.0814927530397537,Null
-0.9746276855433501,-1.08093261718,-0.92077636718,0.00028176456315712396,0.016764848694492625,0.151004028317125,-0.15563964843,0.20727539062,0.002859644414334633,0.05340875680353173,-0.239680175777775,-0.42443847656,-0.03576660156,0.0009106603541306326,0.030139404493873232,1.016765371888075,0.94449534446,1.17165995214,0.00037899382779481874,0.019443413877849015,Null
-0.976461181636675,-1.01452636718,-0.95568847656,0.0002876515839631564,0.016939080701243753,0.185425720210675,0.16345214843,0.19873046875,5.0802240459917656e-05,0.007118654006114348,-0.250185852047425,-0.27136230468,-0.2294921875,9.675565957348347e-05,0.009824142223347022,1.024960306785025,1.00691942077,1.06722958539,0.0003434471174611846,0.018509146378683478,lift up
-0.9535433959926749,-0.97509765625,-0.91235351562,0.00031655399039965705,0.017769710335952524,0.17023406981995,0.1103515625,0.21374511718,0.0005176509038195986,0.022723485132348197,-0.25677459716385,-0.30798339843,-0.22106933593,0.0004851075639898004,0.021997608849141443,1.00253458066665,0.95669323148,1.02476206087,0.00039926723028447055,0.01995667963887679,lift up
-0.729817810055725,-1.17468261718,0.29309082031,0.08447911695849691,0.2902893714315091,0.5427212524373249,0.24304199218,1.09692382812,0.05978333243081499,0.24420047931922237,0.13619049072210002,-0.29382324218,0.76171875,0.09815005058207707,0.3128972282645244,1.0387955593437,0.77556065345,1.28396951094,0.008459647213672995,0.09186129813821929,Null
-0.639250793453325,-1.28442382812,0.04016113281,0.08611108480172608,0.2930798646951403,0.46571807861012493,-0.041015625,1.21447753906,0.12046891975337184,0.3466521995516377,0.44778442382484995,-0.28466796875,0.88073730468,0.07640710909974655,0.2760726196619237,1.0465022743899999,0.75019099863,1.34022084037,0.013191409988231555,0.11471020644764343,Null
-0.951818847653175,-1.44140625,-0.54479980468,0.016270757617770578,0.12739733405266435,0.30280090331637505,0.11987304687,0.81787109375,0.03916990298355069,0.19766633053226798,-0.1311663818331,-0.41076660156,0.27783203125,0.010332320787458526,0.10152088447945024,1.0355788548525497,0.89862888619,1.47899127701,0.00805725296903989,0.0896499293731863,Null
-0.98558319091395,-1.02661132812,-0.96960449218,0.0003126997397050884,0.017661200139170205,0.2174893188435,0.17883300781,0.25366210937,0.0003161076352609342,0.017757177877488917,-0.168921203609,-0.19079589843,-0.15173339843,5.775008127258157e-05,0.0075898422954235436,1.0234657849807498,1.00161275603,1.07173641882,0.00041386575425903617,0.02031824524592093,lift up
-0.9613156127896001,-1.02233886718,-0.91735839843,0.0004043881306520672,0.020084251550043807,0.231677551265525,0.17712402343,0.31323242187,0.00044390264897975734,0.021042644614147434,-0.17480194091350001,-0.24853515625,-0.11791992187,0.00037517795578095284,0.019345283944452726,1.0045418754584,0.95879663622,1.07388839497,0.0004751320443995428,0.021770259858084926,lift up
-0.9683462524377251,-0.97827148437,-0.94592285156,3.636993178603472e-05,0.006023205704321382,0.23694335937094999,0.21569824218,0.27722167968,0.00024928930707010126,0.015769149748874414,-0.17409973144139998,-0.18908691406,-0.15991210937,4.9322311366207306e-05,0.007014200281414253,1.0121537228063249,0.99028401748,1.02288181565,2.6388124034838527e-05,0.005130512033389205,lift up
-0.9621932983363499,-1.12487792968,-0.79370117187,0.0042088437326110685,0.06479445673265223,0.30895172118835,0.18664550781,0.6015625,0.00836320924203937,0.09133619884215825,-0.12773406982095,-0.29016113281,0.10375976562,0.005925480800663359,0.07688086301975089,1.0255482584475748,0.87720487587,1.22358656641,0.003842561338550733,0.061910862820706646,Null
-1.015908203120875,-1.25378417968,-0.82678222656,0.006458933903141559,0.08026697059428432,0.22813171386342504,-0.17883300781,0.46142578125,0.011752869684904335,0.10827505488658075,-0.08513244628665,-0.29345703125,0.55993652343,0.02627546873783465,0.16189434846834544,1.06212199928475,0.90549393882,1.33048873814,0.007653135068195426,0.08737277739962795,Null
-0.522271118160025,-0.91430664062,0.33239746093,0.028836962826571166,0.16960209438419308,0.84286376952725,0.26391601562,1.17663574218,0.03068822095572042,0.17496142547239124,0.15084564208714998,-0.59020996093,0.57055664062,0.028036028568371184,0.16723019612782333,1.0212175130903,0.46296771731,1.45222251308,0.050524273544910535,0.22449490609153755,stairs down
-0.5460678100546751,-0.80895996093,-0.31774902343,0.013343090436561098,0.11536781488122974,0.8104589843713249,0.6328125,1.11633300781,0.00999504016453042,0.0998501505463016,0.20301391601295002,-0.07946777343,0.46398925781,0.018187352019612097,0.1346918098458962,1.0121077943967,0.75109007216,1.32322345452,0.014670457242331104,0.12097016615358216,stairs down
-0.55298889159785,-0.88073730468,-0.32922363281,0.014332198674939735,0.11956742105712737,0.8382788085896999,0.65112304687,1.12353515625,0.009865722674135598,0.0992021086844945,0.1571423339818,-0.07995605468,0.37561035156,0.012639622698289955,0.11228545605528897,1.0264649860464,0.75725876348,1.39853667861,0.016357765313945102,0.12773750780667456,stairs down
-0.5395123290976,-0.81115722656,-0.32751464843,0.01988086777768294,0.1408231714180544,0.8603369140587,0.57482910156,1.24060058593,0.02523775306246288,0.15866524093136064,0.09869079589594999,-0.10278320312,0.38647460937,0.01041582292991907,0.10193028682680272,1.02700114225735,0.69778172175,1.45260476469,0.04176169784382466,0.2041011847080146,stairs down
-0.5612432861290501,-0.86840820312,-0.32641601562,0.014135067145814861,0.1187422817615963,0.8368511962851,0.61413574218,1.22631835937,0.01684796481174633,0.12963735919755912,0.14577453612975,-0.07189941406,0.37341308593,0.012425355605709234,0.11132965560305556,1.02669542680255,0.71750237153,1.45419694986,0.025825096251386577,0.16050088320865438,stairs down
-0.5916137695269499,-0.80944824218,-0.41088867187,0.012570589706102078,0.11197840520313201,0.8136511230433,0.60791015625,1.15942382812,0.011319509202384063,0.1062601074222029,0.16121398925535002,-0.0927734375,0.39099121093,0.0149313603240968,0.12204110751417556,1.0296843935585,0.78847259717,1.39826651545,0.016540759803163028,0.12845002103407815,stairs down
-0.5280261230432499,-0.78381347656,-0.27197265625,0.018291697793432093,0.13507763896718256,0.8671923828087,0.55859375,1.20324707031,0.02324374663799415,0.15226830685142317,0.08479614257634999,-0.14245605468,0.31335449218,0.012249366792798212,0.11053842488391183,1.0273989439719,0.6482222441,1.40807117579,0.036216902591859154,0.1900693566448298,stairs down
-0.53559326171525,-0.80847167968,-0.27893066406,0.01718053981477361,0.13091061250042593,0.8599743652305,0.59777832031,1.24450683593,0.019742991868905102,0.1403340100946055,0.0778442382799,-0.10864257812,0.30578613281,0.010202071869353591,0.10087897050267815,1.0237485017192498,0.74053975954,1.46533505148,0.031501324366523774,0.17726412794360696,stairs down
-0.5655615234341501,-0.83679199218,-0.34301757812,0.013720863648195504,0.11698957854901014,0.86088623046485,0.62573242187,1.11340332031,0.008614336721262583,0.09269736177184024,0.13638916015375,-0.10363769531,0.37390136718,0.012581257592707753,0.1120259097205909,1.04951943271495,0.77172500141,1.33323964209,0.012957462428502322,0.11368847246942437,stairs down
-0.5444488525348,-0.78527832031,-0.31127929687,0.010004802445986371,0.09989890109441348,0.8564868164024501,0.65563964843,1.20678710937,0.011077842831943461,0.10511968523955731,0.1297985839812,-0.07800292968,0.38464355468,0.011920013282499498,0.10904225442136296,1.0315034022379002,0.77935632082,1.38464371073,0.01580228089100378,0.12554989123362978,stairs down
-0.53861206054305,-0.82080078125,-0.32177734375,0.017338081767157003,0.13150945427131508,0.8572790527309501,0.6005859375,1.20288085937,0.023840576351947772,0.1542108132105784,0.12553405761375,-0.03149414062,0.3818359375,0.010014264571136737,0.0999461300386808,1.02583856569205,0.68918910388,1.44291260945,0.03960832396772539,0.19876947239907358,stairs down
-0.54093994140255,-0.7939453125,-0.30603027343,0.012171200725984708,0.11018517470226993,0.86049804687145,0.63452148437,1.13952636718,0.013080173865278934,0.11422553755888276,0.13960021972370001,-0.0595703125,0.38012695312,0.012485019828265283,0.1115966275417614,1.03489973727085,0.77475446264,1.37272817784,0.019233801957080316,0.13851251731229064,stairs down
-0.45818786620825,-0.822265625,0.6357421875,0.1335557639338801,0.36499571850097834,0.70094604491905,-0.60522460937,1.5751953125,0.15449482945559923,0.39256667253087113,0.11566162109164999,-0.7158203125,0.53125,0.08610197102392829,0.2930643548717047,1.02983292808115,0.44254582919,1.60399359434,0.02736883455183222,0.1652283645911096,stairs down
-0.47345214843395,-0.87719726562,0.44421386718,0.05093442586364947,0.22540428079118272,0.7601055908170999,-0.26049804687,1.34680175781,0.04960307574151509,0.22243890858427015,-0.39591369628565,-0.85693359375,0.29174804687,0.04009657664018669,0.19999083778660018,1.03018121917825,0.68304809591,1.48676615913,0.03776867133738602,0.1940985565609455,stairs down
-0.5464694213832,-0.90100097656,-0.24487304687,0.021741871300423807,0.147266821185808,0.7536752319294,0.41284179687,1.09851074218,0.025880382487388342,0.16067259110118898,-0.4433914184531,-0.80200195312,-0.24975585937,0.01159664642831846,0.10755303255718857,1.0395068837885,0.68661619946,1.45905990098,0.04185205535207767,0.20432186670471048,stairs down
-0.554609680172125,-0.91223144531,-0.30102539062,0.022786784083887773,0.15076411086090102,0.7381149291952499,0.47216796875,1.01525878906,0.01763270852992781,0.1326221201708184,-0.425679016109275,-0.73083496093,-0.20190429687,0.015502668354710139,0.12435397735425821,1.030449274383875,0.74041417738,1.40147843932,0.027633904047840236,0.16602656199452134,stairs down
-0.533871459956125,-0.86584472656,-0.26501464843,0.01762546459806759,0.13259487522740998,0.758095092769875,0.45446777343,1.03735351562,0.01812503168712279,0.1344608460032324,-0.3933044433555499,-0.72534179687,-0.20568847656,0.014128906797009799,0.11871640379499909,1.0206862110035753,0.65764101516,1.36673127327,0.022698286597170773,0.15047106326692133,stairs down
-0.5461309814419499,-0.85656738281,-0.27600097656,0.021626510655574162,0.14687560852277423,0.7542480468714001,0.38171386718,1.26953125,0.035835008274679336,0.18906459413119273,-0.20847686767492501,-0.88610839843,0.46826171875,0.12898841952229687,0.35870036029183344,1.029848832186225,0.69731370776,1.44992045356,0.03609720892984648,0.1897550155003073,stairs down
-0.5532510375941999,-0.89636230468,-0.302734375,0.009553491747170715,0.0976197112155265,0.8268017578090749,0.69189453125,1.20471191406,0.010435386176038787,0.10202596586457141,0.24073791503585,-0.08288574218,0.42810058593,0.014928843807115587,0.12203082273588832,1.0357498644538499,0.81244628068,1.51764192287,0.00971954562594987,0.09846444415059172,Null
-0.9273086547815251,-1.28491210937,-0.03967285156,0.05239249156915929,0.2286077652667039,0.45856445312142496,0.041015625,1.06970214843,0.04072343192288131,0.20154806707848652,0.04876770019525,-0.47290039062,0.84130859375,0.05437931328631802,0.23290205023378868,1.093135026055225,0.82339990989,1.58806002981,0.0248053142653777,0.15730003490055003,stairs up
-0.9513656616173001,-1.27954101562,-0.69665527343,0.02415215009063994,0.15521523673729115,0.326058654781225,0.10131835937,0.65930175781,0.012369159427890854,0.11107761488851445,-0.08163208007545,-0.29626464843,0.12341308593,0.007212561131166363,0.08482057373266493,1.019126692781125,0.73520400553,1.3380436051,0.02313782956824113,0.15192098273221025,stairs up
-0.9587649536091001,-1.20935058593,-0.61120605468,0.017043763854657567,0.13038847512345914,0.33118041991917496,-0.06530761718,0.72387695312,0.019411026969653623,0.1391491983528094,-0.10106445312262499,-0.31750488281,0.08435058593,0.013463971363338259,0.11588922052947769,1.036786486241675,0.79995828534,1.27284996544,0.014027546587944069,0.11828980396244727,stairs up
-1.04842559814035,-1.20678710937,-0.94299316406,0.003294225384324777,0.057323553805255,0.252675476070875,-0.02819824218,0.46179199218,0.01733569058679128,0.13150038539990788,-0.1628567504849,-0.30712890625,0.02722167968,0.009317965921080622,0.0964088741054366,1.10230522745665,0.99889368461,1.27956097621,0.004370576374205471,0.06602764521978621,stairs up
-0.97283874511305,-1.29016113281,-0.67517089843,0.02056689571574589,0.1432322536178794,0.31646636962489993,0.09106445312,0.54907226562,0.007897561727942275,0.08875707196399855,-0.10499938964584998,-0.30786132812,0.08569335937,0.009486525518107004,0.09727697160331286,1.0378244263577001,0.70862444103,1.34003056816,0.018413658630132702,0.1355272093845268,stairs up
-0.971694335934125,-1.28051757812,-0.68408203125,0.02135614846274349,0.14595464395347835,0.249183044429775,0.02355957031,0.494140625,0.009220539372398041,0.09590353499202751,-0.08426086425519999,-0.25561523437,0.08093261718,0.006562918794491098,0.08091051537040701,1.0141050730338999,0.73598603819,1.34056694598,0.022074810848786614,0.14839010688608809,stairs up
-0.9667880248988001,-1.29663085937,-0.70654296875,0.016288134197914618,0.12746534377006102,0.301552124019725,0.07202148437,0.53210449218,0.01081372966707112,0.10385901666636095,-0.088291015623325,-0.29602050781,0.24267578125,0.012690224019655855,0.11250999271001094,1.027287573395775,0.75942296045,1.3734760075,0.017825484952377738,0.13334512079561364,stairs up
-1.0390365600552252,-1.17150878906,-0.85180664062,0.003872683656863533,0.06215305260179402,0.243612670895,0.00244140625,0.42565917968,0.010815128114444454,0.10386573204940282,-0.17130004882480002,-0.34680175781,0.02697753906,0.010940009279106723,0.10446367433662745,1.0904942158732,0.88093865961,1.2157866998,0.004685644033044361,0.06836614602975474,stairs up
-0.97174957275015,-1.28112792968,-0.68811035156,0.016670701867268795,0.1289535773548009,0.33590637206650004,0.15283203125,0.61279296875,0.009266935568668566,0.09614451741907541,-0.09137176513492498,-0.26342773437,0.14721679687,0.01051308016227675,0.10240506560649751,1.042978136152975,0.75849215517,1.34355504817,0.014070496951524413,0.11847075887806915,stairs up
-0.9772103881795249,-1.32250976562,-0.67822265625,0.0245700062955657,0.15655216791800355,0.250841369625725,-0.04675292968,0.39624023437,0.01021570207689301,0.10094633634610409,-0.07916381835727501,-0.28259277343,0.10632324218,0.007675923050429777,0.08750276134387819,1.0214875335625748,0.7011310066,1.34912240259,0.023104904000370977,0.1518128510382769,stairs up
-0.980079345699325,-1.29626464843,-0.69018554687,0.018167639643627827,0.13461879714407923,0.29877838134379997,0.01306152343,0.65747070312,0.0137454063139259,0.11709416210102486,-0.12604156493872498,-0.46032714843,0.24206542968,0.017950527335092347,0.13381199877721958,1.0469240053689,0.74878073966,1.35380510919,0.01944818291647862,0.13928231208300437,stairs up
-1.0604843139611,-1.28637695312,-0.91711425781,0.004375405924693452,0.06606411590176409,0.2452478027312,-0.05200195312,0.48193359375,0.01639370818328434,0.12787776942387652,-0.154120788570825,-0.33642578125,0.08923339843,0.010793333912414434,0.10376102629423727,1.1110313120093749,0.93415919143,1.32132936854,0.0056337323394194784,0.07496431156604408,stairs up
-0.996681518551225,-1.36108398437,-0.56323242187,0.02461304036852027,0.15668920756580196,0.31654937743827494,-0.09350585937,0.65051269531,0.018626717737318,0.13630902737153802,-0.07629180908080001,-0.39868164062,0.20495605468,0.01329262464503222,0.11514943805082002,1.066723340255425,0.72829932103,1.3933319042,0.017935203067408517,0.13375486929357,stairs up
-0.98313110351215,-1.37646484375,-0.71801757812,0.025898898064644797,0.16073005574404303,0.29684631347305,0.08874511718,0.61315917968,0.011724816300532714,0.108145754700688,-0.0903131103483,-0.27087402343,0.39855957031,0.014080868567277116,0.11851441429572575,1.0453595042557,0.76182085966,1.39005917921,0.02121598374645031,0.14547489057251145,stairs up
-0.9986907958947501,-1.29321289062,-0.24780273437,0.029998172858806182,0.1729831709348027,0.3131350707975,-0.04089355468,1.17150878906,0.035536817239031175,0.18827632670076605,-0.16096954345474998,-0.62719726562,0.14733886718,0.02659909899294855,0.1628883091123061,1.091646713315825,0.56701244931,1.48815475386,0.021613312744521537,0.14683078513261527,Null
-1.00203887939045,-1.234375,-0.86791992187,0.0032559158806891872,0.05698926294476411,0.190772399898625,0.06823730468,0.3955078125,0.0033584469459126158,0.05787962360406151,-0.14014099120755,-0.34619140625,0.23486328125,0.008504653989345782,0.09210533293122834,1.035804395448575,0.90254271984,1.24951873693,0.0032767514754442357,0.057171317955384104,Null
-0.8837817382781,-1.48779296875,0.12744140625,0.11686117123827025,0.3414220530519002,0.3645352172816,0.07702636718,1.10327148437,0.059694656501484804,0.24401930222880133,-0.127339477536425,-0.39770507812,0.18640136718,0.018616354745319703,0.1362711042681331,1.03537904332565,0.61007264134,1.56008081554,0.05297836266855406,0.22988239767733998,stairs down
-0.7255163574185,-1.41870117187,0.49072265625,0.1240283657888508,0.3517361153967256,0.39366210937139995,-0.029296875,0.88818359375,0.0300584497544588,0.1731568757805264,0.311324462889,-0.6103515625,0.96423339843,0.20114262320529006,0.44792830525350463,1.0417626228046002,0.3845028246,1.57081441307,0.047457408833216475,0.2175747350018688,stairs down
-1.1445556640591,-1.71057128906,-0.66540527343,0.04750889016888837,0.21769271449331085,0.34434570312220003,-0.18737792968,1.05004882812,0.06486954583801822,0.2543764375358362,-0.1449792480441,-0.42810058593,0.11694335937,0.013705549399475847,0.11692427261256388,1.2340382086003,0.71515522617,1.75885217649,0.05265071569751054,0.2291704363749102,stairs down
-0.7697521972618999,-1.69799804687,-0.26818847656,0.10684546632372571,0.3264634017128358,0.5818505859338999,-0.10375976562,1.08911132812,0.08660360221553778,0.293916813418353,-0.2406298828094,-0.68225097656,0.13916015625,0.030015835223871176,0.17303408807460888,1.0773486593571,0.65187533344,1.74085718948,0.05132571200882671,0.22626841964535097,stairs down
-1.114071044918,-2.24377441406,-0.09362792968,0.11429010461006699,0.3376453455158857,0.32036132812150003,-0.23034667968,0.96984863281,0.06120859769898866,0.2470942658273178,-0.15135131835659998,-0.42297363281,0.17419433593,0.015599782799622203,0.1247428689048923,1.1983932625036002,0.33818945046,2.34024056586,0.12147089978139874,0.3480908251188837,Null
-0.9923707576722944,-1.18493652343,-0.89892578125,0.0028352096770096384,0.053180253183751566,0.26854981685990026,0.00231933593,0.67309570312,0.010302287912469475,0.10137354892384864,-0.060108517766882794,-0.302734375,0.09680175781,0.0060947566076208085,0.07797151860350973,1.0369740477234912,0.95465057257,1.36753775333,0.004411878729899777,0.06633910263602752,Null
-1.0983776580085465,-1.53894042968,-0.41381835937,0.039383982022889064,0.19820513439622897,0.4147881911778947,-0.21203613281,0.90747070312,0.058493188531849434,0.24155038617614502,-0.06479333098195489,-0.49047851562,0.32983398437,0.025865639157265478,0.16062631476182246,1.2171183610425063,0.81456455776,1.61938615968,0.02479862340140899,0.15727832483549536,stairs up
-0.951697387691525,-1.25122070312,-0.59924316406,0.020067350263413778,0.14148209034275414,0.329035339351625,0.06506347656,0.96899414062,0.016662124900153213,0.12892040020067744,-0.060888671873925014,-0.73388671875,0.69128417968,0.09429719483752826,0.30669439487938877,1.0643806107301501,0.83506966936,1.46228174084,0.015531450097946615,0.12446935957375915,Null
-0.7254014552946616,-0.8916015625,-0.51037597656,0.007527647594307143,0.08665322446169924,0.16035021635756894,-0.03454589843,0.4375,0.007001454978053175,0.08356977606672472,0.6793745227289224,0.51611328125,0.85729980468,0.007116283009056777,0.08425228610129656,1.0164263580774686,0.9038454581,1.13553151663,0.001942669308817431,0.04402045505707459,Null
-0.7127645972917954,-0.86315917968,-0.55627441406,0.005187178424674382,0.07193220987589848,0.18180226922573564,-0.01428222656,0.2685546875,0.0033678843771650533,0.057961070236905866,0.6835599599595511,0.48803710937,0.82470703125,0.006454068358161299,0.08023698289816111,1.0113296643489027,0.90547400992,1.09450114206,0.0005249761913943325,0.022883772063074428,Null
-0.7235348510711,-0.84777832031,-0.55432128906,0.004490515918250702,0.06692749530988795,0.19284606933227497,0.03784179687,0.34643554687,0.004133984378966005,0.0642156477660904,0.6725192260705001,0.51696777343,0.80529785156,0.004095310786815754,0.06391457196796921,1.012565448377575,0.94077730339,1.06594582983,0.00037455730801115307,0.019329276104943123,Null
-0.7462295876376942,-1.11291503906,-0.67944335937,0.004400526456029815,0.06625328344820985,0.14599334028032582,0.1181640625,0.39794921875,0.0019869469966447345,0.04451928997199458,0.6445499123752881,-0.12780761718,0.71142578125,0.02133338638852812,0.14587638347149373,1.0099830817494235,0.83368312031,1.13240152994,0.0012001177261284097,0.03459927618142414,Null
-0.28463143897817955,-1.07690429687,0.18200683593,0.07271090939862611,0.26931317352672984,0.9249188430253367,0.28894042968,1.25769042968,0.02278133713880792,0.15074656156691368,0.07976427339750623,-0.3203125,0.46057128906,0.03780563355207628,0.19419411722337487,1.033643545684813,0.83074911486,1.32471041708,0.007417245308873066,0.0860159778051649,Null
-0.348724670406025,-0.39599609375,-0.30712890625,0.00034621412061795195,0.01858355685320781,0.92226287841425,0.85681152343,0.95520019531,0.00032832069793103436,0.018096958202587714,0.294780273433825,0.24438476562,0.38195800781,0.0007343470661538396,0.027064944088034896,1.029765433046425,1.006209718,1.03896981736,3.053403494861316e-05,0.005518849505217698,Null
-0.33361206054345,-0.36694335937,-0.29138183593,0.00029045130524921946,0.017021315371794753,0.9312066650354001,0.86975097656,0.97863769531,0.0007460497819873431,0.027279748120764877,0.28980102538684993,0.24694824218,0.31323242187,0.0001336361157960234,0.011545649635535168,1.03083455249825,0.96671253953,1.08623246776,0.0009772746856756896,0.03122229169938524,lift up
-0.38169616698824993,-0.4921875,-0.26293945312,0.005785885370776992,0.07596986677196459,0.88659423827735,0.80029296875,0.98718261718,0.004223548672829477,0.06490754810611322,0.31553405761375,0.16796875,0.42114257812,0.005223468042806194,0.07218316543834288,1.0228519284814,0.96062642776,1.07298470793,0.0002724821949148707,0.01648638800427745,lift up
-0.6123913574179,-1.03454589843,-0.35668945312,0.034722329021157156,0.18610621483068282,0.7213983154259,0.35925292968,0.98010253906,0.01876048324652494,0.13679759514848433,0.23389892577909996,-0.21545410156,0.50378417968,0.05010727144918742,0.2235665522178227,1.0241841402520502,0.8311482611,1.23135413755,0.004536708757764374,0.0672708479645527,Null
-1.0273293707867919,-1.51953125,-0.75817871093,0.01936520424413513,0.13898442321950544,0.3263982710649122,-0.00158691406,0.67065429687,0.01609800619574531,0.12671882384064126,-0.15139349839190475,-0.56286621093,0.22033691406,0.016558576074009037,0.12851877638441536,1.1010093290147367,0.77480576603,1.61485589146,0.024592958797065714,0.15662478191158805,Null
-0.7496526627729926,-1.19323730468,-0.27648925781,0.06175928124845589,0.24820408553901815,0.6002815227518703,0.11633300781,1.0166015625,0.06636059687412742,0.2572841019211525,0.025611021274588516,-0.33972167968,0.54943847656,0.03951528738435922,0.1985365092887397,1.0402772510253866,0.79306933512,1.25815175498,0.008033342744766737,0.08951709038551808,Null
-0.9575164794884501,-0.98828125,-0.90026855468,0.00022396653480588746,0.014946792915835581,0.22143371581665,0.12719726562,0.35876464843,0.0022668158017873125,0.04755153795917482,-0.24333312987914998,-0.27807617187,-0.14050292968,0.0003266725440877049,0.01805147813137433,1.0137585864272,0.96709635556,1.06377541902,0.000186116068965252,0.013625372611155956,Null
-0.9462139892540997,-0.96936035156,-0.89758300781,0.0004591001719458345,0.02139982293188357,0.21694702148045,0.16455078125,0.26794433593,0.0003108608856976761,0.017609194572252074,-0.25702026366840003,-0.27612304687,-0.23193359375,8.571267277970477e-05,0.00924653400457466,1.0044014031942,0.95707880797,1.03587996177,0.0004788925656290985,0.021856242454159996,lift down
-0.97069580077735,-1.01354980468,-0.95520019531,0.0002884805261991336,0.016963470307800693,0.23496856689097498,0.20556640625,0.2568359375,0.00011849453564340018,0.010871904125050574,-0.23001800536762498,-0.25231933593,-0.21130371093,6.836096958655681e-05,0.008257727723931713,1.0249686537168001,1.00730278373,1.07010601307,0.00028296186198368216,0.01680043027213062,lift down
-0.9623406982385501,-1.01025390625,-0.89221191406,0.0004760871700863922,0.021792130509915183,0.23322753905864999,0.13696289062,0.34741210937,0.00181389452516827,0.04253657001751962,-0.20337036132465003,-0.31896972656,-0.13330078125,0.0023263311909269956,0.048171727838532824,1.013020445924625,0.97034091447,1.06449250314,0.00024917951793426615,0.015765676932483125,Null
0.048489990231249995,-0.14770507812,0.09936523437,0.000601942334508186,0.024503825796636645,0.9818499755825001,0.94311523437,1.0986328125,0.001152537009064895,0.03390657261567782,0.22361633300574993,-0.11340332031,0.37878417968,0.03421412952455483,0.1847392600416691,1.02567945188745,0.98230914915,1.10935529503,0.00024588211697232186,0.01566101566565499,lift up
-0.7242352294887,-0.87805175781,-0.14770507812,0.010381866379401318,0.10176400008575141,0.48856506347285,0.35717773437,1.0126953125,0.013785590942955644,0.11726519929458294,0.46238891601255006,-0.2919921875,0.64611816406,0.0363319892313062,0.19037110930555595,1.01760947404045,0.90188135131,1.14568482939,0.0018397541966123543,0.04283870692633968,lift up
-0.9980560302694501,-1.39038085937,-0.74475097656,0.010965097658227013,0.10458338737142456,0.3762274169888501,0.0224609375,0.67419433593,0.018387805279909866,0.1354320337538726,-0.11037353515375,-0.39318847656,0.24621582031,0.012728931724149257,0.11268145097947081,1.0856710226355,0.8162170629,1.44102554669,0.013173219849151641,0.11463109002155027,Null
-1.023324890132975,-1.25280761718,-0.77941894531,0.00884676586855954,0.09393960269177286,0.32372100829745,0.0078125,0.59326171875,0.019659697284899795,0.14003766651043406,-0.11074340820042501,-0.39807128906,0.16625976562,0.012577184995520912,0.11200777666319474,1.0924200911667499,0.80816870496,1.32094123361,0.012567415414630221,0.11196426606776666,Null
-1.0165789794885,-1.18481445312,-0.73718261718,0.006917640690462031,0.0830683248220155,0.3247552490196,0.10290527343,0.5400390625,0.012439920399889675,0.111394885874038,-0.169869079586425,-0.61804199218,0.03125,0.01260744883653087,0.11214245500451442,1.0908580961580001,0.78486124826,1.30298080858,0.009692239551845642,0.09832603395320096,Null
-1.013504943843875,-1.28137207031,-0.72253417968,0.010177973255600563,0.10075975547043355,0.318705139156325,0.08520507812,0.65612792968,0.016815280099348316,0.12951155121880034,-0.16257904052397498,-0.61364746093,0.23461914062,0.01714475619796345,0.13077421117127236,1.08864015626845,0.81321506945,1.3815280369,0.014058613249341137,0.11842071911712826,Null
-1.0100469970661252,-1.23425292968,-0.70104980468,0.012725620445751939,0.11266679366449353,0.330900573726775,-0.056640625,0.65637207031,0.019663650941663755,0.14005174691630803,-0.20338928222325003,-0.61437988281,0.22082519531,0.017586160165599583,0.132446950758353,1.09732492797385,0.81677227849,1.31068307137,0.016827891249681513,0.12956010775527052,Null
-0.628504638668025,-0.87341308593,-0.19116210937,0.020243712772843904,0.14210244013004067,0.764863281246225,0.49719238281,1.02624511718,0.012251809611311788,0.11054944634544087,-0.01528228759864999,-0.65209960937,0.35034179687,0.04598741170405303,0.21417853107814727,1.0268452975487,0.75922102642,1.21777348644,0.004153313079159458,0.06436559481944962,Null
-0.44797393798425,-0.51867675781,-0.36450195312,0.0007416800671823234,0.02719974020122927,0.874653320308625,0.83483886718,0.95788574218,0.0005905192657262376,0.02427020740665234,0.24775146484080005,-0.15893554687,0.37365722656,0.01882294505401086,0.13702513525399576,1.02326373518725,0.99596677232,1.05529760445,0.00011624355872427327,0.010768145143313337,Null
-0.5877346801723751,-0.83935546875,-0.36315917968,0.014580791090513585,0.12059991340290134,0.6967663574176501,0.01599121093,0.91088867187,0.04161281068690883,0.20373703310932836,-0.229857482909175,-0.66784667968,0.31909179687,0.10011945380739848,0.3160208144614528,1.019548689721725,0.96465180684,1.0609695969,0.00019309853733865206,0.013878609116021153,Null
-0.33227752685379996,-0.82849121093,0.37670898437,0.15528707922600757,0.39357192675283964,0.76506652831705,0.42041015625,1.31982421875,0.0411242316744987,0.20253745603051415,0.07234985351530003,-0.48889160156,0.74279785156,0.20656944917686512,0.4539306395848632,1.0391897915843749,0.61017626877,1.60102416969,0.02308524727085297,0.151748259142159,Null
-0.729892578121775,-1.0,-0.37670898437,0.030916885797886248,0.17561205420867762,0.522032775874775,0.18225097656,0.89013671875,0.06354574713391425,0.25176751729736596,-0.17672332763387502,-0.50964355468,0.48364257812,0.10176381487520608,0.3186054069503813,1.015498281633775,0.92303798346,1.10362907434,0.0009941362446711283,0.03149048910479878,Null
-0.6735894775357,-0.71142578125,-0.60705566406,0.0007517811047100839,0.027384332234843864,0.7523757934532,0.68823242187,0.83703613281,0.0008408420306241256,0.028961006984349925,-0.10136566161862501,-0.30126953125,0.14196777343,0.013029576278698702,0.11400439613454366,1.02200443901625,0.97229948739,1.0480930729,0.000160086940980601,0.012636721237257294,Null
-0.688462524410225,-0.71655273437,-0.66174316406,0.00011549283948563542,0.010733317631884436,0.7468511962853499,0.712890625,0.7783203125,0.00015106502892660596,0.012275478253587086,0.0399050903306,-0.20397949218,0.30920410156,0.013279922966994326,0.11509440976683812,1.023113450550075,0.98651635668,1.0543101236,0.0001115339173171959,0.010547752486852491,Null
-0.688704223628975,-0.72143554687,-0.65161132812,0.00024217384763425517,0.015542471264736811,0.716135253902675,0.62854003906,0.80920410156,0.0018310997061970296,0.04273782817284398,-0.06385559082022502,-0.37658691406,0.28833007812,0.051063393573668854,0.22568946605841994,1.0218238166040248,0.99892984438,1.0773638789,0.00012096169210123872,0.01098450216764445,Null
-0.668953857418375,-0.70593261718,-0.63305664062,0.00021141476349331687,0.014521922275807139,0.7263491821249499,0.6640625,0.80627441406,0.0005959035421637947,0.024380602603471174,-0.27707885741780003,-0.34130859375,-0.20178222656,0.0005959610159522351,0.024381778307013508,1.0262168196281,0.97309598213,1.07614818346,0.00013423678674997756,0.011571568380435843,Null
-0.630226440425825,-0.68640136718,-0.54699707031,0.0007477567873447077,0.02731093911560615,0.69684783935165,0.58325195312,0.80627441406,0.0019665279632128745,0.04429008515802202,-0.386685485836175,-0.57983398437,-0.033203125,0.013301562967780244,0.1151881463535237,1.02379529744425,0.9938251317,1.07614818346,0.00012725755412721778,0.011266739113066377,Null
-0.641099853511525,-0.72021484375,-0.578125,0.0017099994151784635,0.04130041666424828,0.6155899047811499,0.39709472656,0.77099609375,0.010230314236254581,0.10101850548619269,-0.48230041503500004,-0.60961914062,-0.36560058593,0.00393603081059967,0.06265932279855226,1.0188536488006,0.92708683102,1.09275335134,0.0003484103415061359,0.01864240638041051,Null
-0.6594552612268749,-0.74853515625,-0.43408203125,0.002589334016272794,0.05082185239866914,0.57280456542585,0.25036621093,0.71704101562,0.015118819621221607,0.12280481493886368,-0.48802001952747504,-0.83923339843,-0.2294921875,0.016071456870896846,0.12661468409595944,1.0161999266769999,0.75659043791,1.12691147328,0.002196919552670199,0.046812682616877696,Null
-0.6507214355434999,-0.71533203125,-0.60546875,0.00037394020938624474,0.019313346651028122,0.6480828857385501,0.43688964843,0.74450683593,0.0063834277157894335,0.07979642314352167,-0.44197662353105005,-0.59765625,-0.32092285156,0.00819504619907563,0.09041326552878146,1.026462629605125,0.99288421859,1.05378665598,8.285947353203373e-05,0.009091332402250159,Null
-0.6600180053670749,-0.67578125,-0.642578125,5.5479673867310485e-05,0.007439151475984489,0.68493957519195,0.65319824218,0.71459960937,0.00023349857232843132,0.015261547296968622,-0.3789364623983749,-0.40515136718,-0.33190917968,0.0001802065952665282,0.013407314376054658,1.02410989958305,1.00188316413,1.04469024372,4.412065640185473e-05,0.006634030054261896,Null
-0.6571841430623249,-0.68151855468,-0.59423828125,0.00043495102847400125,0.02082939391587802,0.6924899291948,0.65844726562,0.74548339843,0.0004831431129058818,0.02195302382642576,-0.372124023433775,-0.41271972656,-0.21667480468,0.0010063719391006146,0.03168368680019519,1.02557214734165,1.0120642525,1.04205331381,3.109199262348133e-05,0.005569045038597069,Null
-0.08002716064602497,-0.63610839843,0.11730957031,0.06538990936322675,0.2553946643722587,0.08909332275555001,-0.17541503906,0.81677246093,0.09626702363945615,0.30988119671957753,-0.8964590454065251,-1.04064941406,-0.3662109375,0.043132806622433496,0.20742462391403152,1.010207792796775,0.87397996165,1.21137309699,0.0017552952187831834,0.0418438404157198,Null
0.0774853515583,0.03283691406,0.10632324218,0.00013487623448388232,0.011599096684555768,-0.041955566403100004,-0.08544921875,0.01770019531,0.0002567142173457735,0.016002263333741544,-1.0029785156216,-1.06640625,-0.93884277343,0.00026702343074657103,0.016320412745078006,1.0070428518122,0.94732521892,1.06928145735,0.0002524451289187465,0.015868648842811087,Null
0.0888171386686,0.07299804687,0.10266113281,3.5162884792285675e-05,0.005922413155150944,-0.0247399902306,-0.0595703125,0.00012207031,0.0003693937523360895,0.01919557938576612,-1.0025793456991001,-1.02014160156,-0.99182128906,2.763942220189637e-05,0.0052507450563126406,1.0070101126213,0.99633204283,1.024134646,2.7713590480124534e-05,0.005257785323111264,Null
