avg_accX,min_accX,max_accX,var_accX,std_accX,avg_accY,min_accY,max_accY,var_accY,std_accY,avg_accZ,min_accZ,max_accZ,var_accZ,std_accZ,avg_magnitude,min_magnitude,max_magnitude,var_magnitude,std_magnitude,Label
-0.640488133281515,-0.65405273437,-0.61987304687,3.276905612617378e-05,0.00571719389075104,0.7926580255644443,0.77893066406,0.806640625,3.451434048855096e-05,0.005867468198727184,0.10144166271727274,0.08361816406,0.11853027343,4.579432250414287e-05,0.006758600467226706,1.0241636184722223,1.01040172647,1.03567588287,2.394052693749819e-05,0.004886723960015891,Null
-0.6895666503868,-1.86376953125,0.07043457031,0.09353561725692634,0.3054533977774417,0.6117980956991,0.07800292968,0.90466308593,0.05491102798684541,0.23403792516786312,-0.08209960937670001,-1.18225097656,0.27465820312,0.11060023675669503,0.3321501711045823,1.0402227103082,0.43282776265,1.96420356529,0.03295779332692185,0.18131574350729876,Null
-0.8981823730432,-1.15844726562,-0.52551269531,0.02418127905295472,0.15530880804166367,0.4212158203086,-0.03771972656,1.00476074218,0.044366087232177845,0.2103691327502621,-0.1776269531218,-0.62683105468,0.2421875,0.030974781685989283,0.17577640550362358,1.0510290110393001,0.75389674284,1.45254407571,0.010342894792058467,0.10157281897770841,Null
-0.8714978027303001,-1.47143554687,-0.44323730468,0.08174516434503509,0.2855535001259352,0.45003173827750004,-0.14379882812,0.8447265625,0.06416469564988082,0.25299067949384246,-0.21914916991940003,-0.49084472656,0.28747558593,0.03844373442827894,0.19582549653252063,1.0792174443490001,0.55377996105,1.50897842749,0.029319060198950506,0.1710139250132957,Null
-0.8881262206991002,-1.25170898437,-0.41064453125,0.03727447223377849,0.19282449546982885,0.3943530273396,0.0126953125,0.90075683593,0.03710350727966209,0.19238177801305126,-0.16871826171590001,-0.61755371093,0.51257324218,0.06777355605696746,0.26000792712304954,1.0513892919163998,0.85604763911,1.3011486577,0.009147929300705428,0.09552517719142774,Null
-0.17211393963318292,-0.89392089843,0.58508300781,0.2504875600860956,0.49985975204546373,0.5087355228858896,-0.17810058593,0.97045898437,0.061568327144161765,0.24781852343971497,-0.07769362370706767,-1.14050292968,0.88110351562,0.41928553271137103,0.6467106708391762,1.00842369948213,0.78163965998,1.33240797359,0.00705052342041307,0.08386210667309836,Null
-0.7532373046836,-0.81005859375,-0.71130371093,0.00026560859871869075,0.01627711820998711,0.6730688476522999,0.6123046875,0.69738769531,0.0003645170840476297,0.019068450155623834,-0.0674902343718,-0.08569335937,-0.03540039062,6.452965557517843e-05,0.008022987687653551,1.0125088350277003,0.95894855036,1.03593230037,0.0004629777191810189,0.0214900040689402,lift down
-0.10766235351709998,-0.98815917968,0.26794433593,0.19508828747719703,0.44113554238862235,0.8438391113247,-0.06323242187,1.11975097656,0.08520568667623804,0.29153502784322066,-0.2486486816379,-0.67565917968,0.01159667968,0.014632054216189974,0.12081172989676747,1.0318065413461,0.58751336853,1.49198036353,0.015083478275131715,0.12266119834505076,lift down
-0.8094982910121,-2.08679199218,0.07299804687,0.16179440317055063,0.40173363957057945,0.5075854492152,-0.2861328125,2.01049804687,0.12866899125263218,0.3582559403199068,-0.13147827148170002,-1.11840820312,0.47937011718,0.04859658777005302,0.22017060725861634,1.0796613717824,0.32064915619,3.10606505468,0.1030182073168541,0.32056303872805103,Null
-0.1784924316405,-1.18090820312,0.28186035156,0.15653023812039724,0.39514416676081177,0.8270935058555,0.1591796875,1.05639648437,0.05194839062103015,0.2276368152221375,-0.2846313476531,-0.78771972656,0.60607910156,0.07090099697327343,0.2659393624133897,1.0313996773179,0.76915918834,1.48036952931,0.011883811456216463,0.10887654443256325,Null
0.1191857910125,0.00256347656,0.73107910156,0.04119303431284397,0.2027068122364462,0.9585913085901001,0.54553222656,1.21337890625,0.011512000034846271,0.1071597873960151,-0.17657348632570002,-0.88671875,0.65979003906,0.06751367008803798,0.25950893224091126,1.039142948723,0.77003726684,1.50669313793,0.004391815088911064,0.06618788069721515,lift up
0.0912609863247,-0.08642578125,0.31066894531,0.006050078162148808,0.07768495972029228,0.9552172851525,0.49255371093,1.04528808593,0.009208225970977372,0.09583947728389344,-0.29826782226209997,-0.86401367187,0.00708007812,0.015151238708823858,0.12293640881387335,1.0192413125459,0.86786382952,1.08869384617,0.0012160291326257517,0.03482799247436159,lift up
-0.6555145263649752,-1.5869140625,0.77355957031,0.47777857949462377,0.6903507319079826,0.42144592284745,0.20471191406,1.07958984375,0.04868760928742351,0.22037670081976668,-0.128271179197025,-0.44006347656,0.14294433593,0.015375809583692822,0.12384413615401252,1.0594197660114,0.52901208965,1.70880022201,0.04199158729628174,0.20466218099111774,Null
-0.8399386596650001,-1.62329101562,0.45532226562,0.16132908653061453,0.401155535689448,0.44978149413670004,0.21337890625,1.40112304687,0.07348590055350739,0.2707437641057013,-0.05812194823997499,-0.49548339843,0.67907714843,0.030618175105662695,0.1747616367166963,1.0711155526569498,0.69257450005,1.81072061439,0.02873138594023361,0.16929133904421403,Null
-0.9503033447229001,-1.49768066406,-0.26806640625,0.06511726828699406,0.25486167839884555,0.28061737060207503,-0.1103515625,0.7099609375,0.021091231265873697,0.14504655524247728,-0.1997305297827,-1.02001953125,0.20043945312,0.06405083600445696,0.25276611504401814,1.070024702083725,0.68336248573,1.55487942589,0.02671244546535238,0.16323499732498847,Null
-1.063900451655825,-1.45874023437,-0.74890136718,0.021412480732691527,0.14614701341751668,0.2681439208948,0.05786132812,0.75390625,0.011657990709814586,0.10783712594946163,-0.1676818847631,-0.53662109375,0.22985839843,0.027766183316838982,0.16642345945973747,1.1261539822423,0.84589877079,1.525474463,0.024425382684348126,0.15609074036481874,Null
-1.0569003295866,-1.36645507812,-0.69140625,0.02083618608383171,0.14416690195264004,0.272981567378875,0.09594726562,0.78686523437,0.005169802587073107,0.07181140634053497,-0.1731567382787,-0.416015625,0.06201171875,0.016615406014487504,0.12873953355302825,1.113345873795775,0.71235266467,1.42478690812,0.024577749695610426,0.1565768352003942,Null
-0.81660369872725,-1.28991699218,0.23571777343,0.1848081132389959,0.4293554389499432,0.360542602535225,0.08581542968,0.97619628906,0.03406643061971932,0.1843400785048385,-0.31551055907924996,-1.10266113281,0.08654785156,0.075363595512062,0.2741809375636495,1.076804600134725,0.68569168778,1.39980286802,0.03045000407063349,0.17428103471249218,Null
-1.106724243160725,-1.51708984375,-0.77819824218,0.02351606562577709,0.15315768169345162,0.274032592770325,0.0986328125,0.53503417968,0.006727378087108657,0.08191800560249796,-0.171881103513075,-0.45764160156,0.1396484375,0.020991024105478533,0.14470157754915747,1.16224428133955,0.80047457335,1.54863278863,0.028650209417601113,0.16905201535047462,Null
-0.8694714355433001,-1.44616699218,0.05346679687,0.137034826199449,0.36971913547171237,0.34311157226199995,-0.08374023437,0.90832519531,0.03210095380930353,0.1789432910862552,-0.315116271969025,-0.91809082031,0.01782226562,0.04743891589094777,0.217532339207807,1.0728929052413252,0.51791355132,1.52304997039,0.0380335500246769,0.19477799195395565,Null
-0.074913635251625,-0.39770507812,0.13659667968,0.010140572617800441,0.10057445593318386,0.634025573726625,0.37268066406,0.99365234375,0.01766695322832636,0.1327508412224026,-0.7892764282190999,-1.14013671875,-0.51953125,0.018962668464933295,0.13753276625506725,1.02824130036765,0.72664376286,1.32098918706,0.020756808083122347,0.14389202918478333,Null
-0.26176818847530003,-1.4814453125,0.80053710937,0.34122739632585264,0.5834160846557438,0.44359497069914994,-0.04235839843,0.89245605468,0.03378463994142383,0.18357608325043398,-0.632351989742375,-1.12866210937,0.009765625,0.08998649663704349,0.299602287033078,1.0432805158931,0.49068082564,1.5366540741,0.040499720813238146,0.20099371012846412,Null
-1.03051452636355,-1.85998535156,-0.11279296875,0.057656003932497826,0.2398163128785583,0.21268005370829995,-0.12353515625,0.45031738281,0.013540975571775797,0.11622014942705226,-0.2150860595674,-0.70910644531,0.14672851562,0.032496233702510695,0.1800416427337143,1.1011522474413,0.57743819139,1.90993499254,0.04446387512775998,0.2106008438728121,Null
-0.8759161376915,-1.27551269531,-0.71606445312,0.0231708436080069,0.15202932775943884,0.3104437255827,-0.03356933593,0.5107421875,0.011466220073061584,0.10694650308859532,-0.37257080077839994,-0.64306640625,0.22912597656,0.06811166900085086,0.26065569210809253,1.04840264359645,0.82357793005,1.33822067533,0.0057715753033392,0.07587586154424114,Null
-0.7621716308559999,-1.09716796875,-0.38781738281,0.016976305056725843,0.13013018210270832,0.43446044921524996,0.17785644531,0.88830566406,0.02519848098739893,0.15854174461298964,-0.4501770019496,-0.72509765625,0.13745117187,0.04952295736999292,0.2222591954825895,1.0294576904311001,0.8410507046,1.22276242316,0.004016213100058984,0.06329433282142119,Null
-0.5727746581994999,-1.06945800781,-0.13610839843,0.04613335824404714,0.2145181224242768,0.6701300048790501,0.21606445312,1.06286621093,0.052260342815059806,0.2283192763610251,-0.17057250976524999,-0.66442871093,0.4091796875,0.17279486609725778,0.4151660859608051,1.03404296479045,0.89645991572,1.4352357021,0.007524567729157872,0.08663576807436393,Null
-0.8559976196251751,-1.51916503906,-0.62072753906,0.05124642954961658,0.22609359450400743,0.413502197262025,0.06140136718,0.69116210937,0.022894983630696464,0.15112162708103605,-0.350991210934275,-0.60437011718,0.25219726562,0.06273694194616243,0.25016014788790203,1.068992215653675,0.80411229361,1.61041211996,0.02075451048606601,0.143884065170021,Null
-0.7456341552704001,-1.27392578125,0.3916015625,0.17369816476075686,0.4162498280466371,0.5198101806604001,0.16101074218,1.29345703125,0.07794626798564827,0.27883938444144535,-0.18610107421549998,-0.69409179687,0.22900390625,0.03432567254584581,0.18504015338428897,1.0470960968328,0.48148740387,1.81053139392,0.049775911052356105,0.22282610097276578,Null
-0.8958795165978001,-1.18249511718,-0.60009765625,0.020333919055604183,0.14241869349901076,0.42345153808215,0.13916015625,0.84240722656,0.043726867120230634,0.20884815046447036,-0.045095214843000005,-0.24670410156,0.18908691406,0.012555254634393153,0.1119100821990904,1.0277321609322,0.87403180848,1.2328388337,0.004146363768142321,0.06431172411560714,Null
-0.16704467773460002,-1.19702148437,0.42138671875,0.3981845613379768,0.6302294026262436,0.73835632323895,0.13879394531,1.18676757812,0.08138068975318115,0.2849161947464521,-0.106438293455225,-0.76086425781,0.54516601562,0.05180867608826012,0.22733049597016117,1.0458832031840002,0.63580272755,1.60697135776,0.020628483608004712,0.1434465489267159,Null
-0.45378784179585,-1.56677246093,0.41442871093,0.33703706698965447,0.5798227956213694,0.531718139645,-0.04760742187,1.12170410156,0.11865238315464817,0.34402870839039223,-0.34024963378569995,-1.04479980468,0.09619140625,0.07890902798494906,0.28055615376424503,1.05739218414425,0.65798473413,1.61326343258,0.019650275214221084,0.14000410539046892,Null
-0.9416351318324252,-1.154296875,-0.69897460937,0.01322739598409429,0.11486656386492135,0.281828308101675,-0.04760742187,0.69921875,0.010517848218995809,0.10242828514843114,-0.1900024414037,-0.65905761718,0.16540527343,0.046758838389332924,0.2159674542456793,1.03286401853135,0.76186253095,1.22202919306,0.0057389334309353645,0.07566099455702407,Null
-0.7280444335899,-0.8046875,-0.70422363281,0.00047433361973191993,0.021751960502046478,0.24419189452734996,0.05004882812,0.39489746093,0.0017887394021647188,0.04224059130338148,-0.6851681518518,-0.76135253906,-0.6298828125,0.0003634284461936698,0.019039954702629563,1.030205595150525,1.00654617861,1.11556386005,0.00043036522608796854,0.020719298082289096,lift up
-0.7153967285121251,-0.83972167968,-0.56579589843,0.002997078828401773,0.05467710792763978,0.346939392086,0.1416015625,0.53173828125,0.00895563173181235,0.09451583281378216,-0.6339804077117001,-0.81201171875,-0.49365234375,0.003281810535265375,0.05721543505844565,1.0228895328121501,0.90715758325,1.21628993512,0.00343327486299903,0.05852086530325344,Null
-0.841854248043,-1.74072265625,-0.26904296875,0.0748425819089452,0.2732315418361739,0.32218749999585,0.02014160156,1.00085449218,0.020474608536068375,0.1429105385012883,-0.437287597652975,-0.81176757812,0.17395019531,0.0813507720395279,0.28486381853339865,1.0638733010913501,0.28220884802,2.04197520646,0.04801404839269053,0.21884700882513522,Null
-0.8964877319307252,-1.3564453125,0.28991699218,0.1492237339887155,0.3858117088085115,0.35644042968379996,0.08728027343,1.01550292968,0.042742447422839495,0.2064838766206272,-0.136815185544825,-0.59216308593,0.83361816406,0.08095323241475665,0.2841669391989852,1.0921766641195,0.65495943144,1.4828594753,0.028917972989243004,0.16984015442989298,Null
-1.0361849975551,-1.38146972656,-0.0048828125,0.035301994780603946,0.18765324349355764,0.279802551265625,0.1337890625,0.64965820312,0.005718700377731112,0.07552750245299247,-0.15760162353285,-0.44958496093,0.39001464843,0.022871902296553646,0.1510454320421914,1.1024511572272249,0.60158833534,1.42324016346,0.025204411512204376,0.1585604001112001,Null
-1.0768020629847501,-1.42785644531,-0.67858886718,0.028748141212033167,0.16934069463363816,0.255674438472875,-0.32946777343,0.58911132812,0.013467520173101747,0.11590449246111642,-0.16177429199007498,-0.53479003906,0.1328125,0.02929481863872526,0.17094321160001777,1.13604579555425,0.73568856672,1.45575314935,0.03185431289532688,0.1782545290114351,Null
-1.0565573120081,-1.32604980468,-0.83654785156,0.016131951720514775,0.12685275653770195,0.253198242184175,-0.00305175781,0.41613769531,0.006389760582744398,0.07983599552387091,-0.1620687866179,-0.42980957031,0.03771972656,0.013868954201581485,0.11761922383725176,1.1054162243112249,0.85288112808,1.41371680612,0.02109639685849012,0.14506431630950423,Null
-0.7403805541956501,-1.27209472656,-0.19909667968,0.09211954240668781,0.3031323861791595,0.52512664794605,0.18017578125,1.09985351562,0.06613765602537972,0.25685075800027585,0.1841198730453,-0.37463378906,0.89294433593,0.12834345508234962,0.3578024544977909,1.0596505826224,0.74312454098,1.34837499608,0.02089853001864483,0.14438242169183274,Null
-0.5934793090785501,-0.96813964843,-0.35021972656,0.014396621696817902,0.11983584665105787,0.7951687622030249,0.55700683593,1.25561523437,0.025199883518843353,0.15854615671799252,0.29459625243814996,0.07458496093,0.46923828125,0.008189183532520688,0.09038091930097518,1.0429806539832749,0.77421472011,1.58843217743,0.03123366675000621,0.17650944049294132,Null
-0.5177120971643501,-0.79809570312,-0.32067871093,0.012277705074796174,0.11066621350759763,0.736842956539225,0.431640625,1.08923339843,0.019056504907743646,0.13787263559341384,0.44711639403995,0.16577148437,0.91198730468,0.02712278546836365,0.16448397643750207,1.0243020732597998,0.77650414944,1.2683002901,0.020042650276685673,0.14139499160505636,Null
-0.47528350829752497,-0.72473144531,-0.11267089843,0.010255942137010277,0.10114495677821882,0.7599786376912498,0.48767089843,1.00427246093,0.011980401318894619,0.10931811522157425,0.475742187496575,0.33251953125,0.64306640625,0.0066411051773521265,0.0813910462791132,1.021877291082125,0.8099892502,1.27571639826,0.01440063053152654,0.11985253003252674,Null
-0.472489013667725,-0.71655273437,-0.27026367187,0.008442562371850641,0.091768491138958,0.758153381344125,0.59899902343,0.87084960937,0.0033682049880866443,0.057963647880515834,0.48057830810185004,0.27160644531,0.66455078125,0.008914776867125369,0.09429999960210793,1.0238995411496001,0.84767925213,1.14920506161,0.0013046495247062875,0.036074754342816,Null
-0.4554367065397,-0.49658203125,-0.3828125,0.0006477007978632237,0.025418134193299195,0.736971130367,0.70251464843,0.76330566406,0.00017123990106343557,0.013069498892871793,0.5287487792934,0.47412109375,0.56555175781,0.000275980259537707,0.016591874785233364,1.0154401373215751,0.97258652586,1.03557483918,9.806860971250207e-05,0.009890573198163027,Null
-0.5495300292931,-0.80920410156,-0.43041992187,0.014880640278233187,0.12183365166298514,0.715851440425875,0.55847167968,0.80090332031,0.002738928062534647,0.052269309756092154,0.429842834469375,0.07287597656,0.58459472656,0.01995342959796478,0.14107992778552825,1.0179405232562002,0.95404472689,1.08112607201,0.0004687285787891822,0.02162306077645367,Null
-0.5232806396440001,-0.83312988281,-0.35461425781,0.007366724312674653,0.08572226957968954,0.791347961422125,0.60119628906,0.99084472656,0.004186598213272442,0.06462299681800017,0.36818725585587503,0.20703125,0.58227539062,0.00871842612440078,0.09325572400174574,1.0258906193541,0.88132923561,1.20610527519,0.003394070826764135,0.05818578563272326,Null
-0.6859991455039249,-0.83459472656,-0.46850585937,0.006832314657642819,0.0825544297478864,0.73026062011325,0.55456542968,0.97912597656,0.003989697294031108,0.06308504617416104,0.1211560058578,-0.0263671875,0.56579589843,0.023569698618522244,0.15333223526700424,1.0247449856497253,0.8572741492,1.14411418724,0.0027645356965101957,0.052513087485587064,Null
-0.7154879760709,-0.73413085937,-0.67712402343,0.0002986086713756937,0.017258683312966098,0.7184906005824502,0.67358398437,0.74572753906,0.00028999787486341225,0.017008023993875767,-0.00869628905965,-0.021484375,0.00512695312,3.962562195528714e-05,0.006287015023077241,1.01405264254535,0.95625799431,1.03893923924,0.0005526939402140743,0.023480038444677623,lift down
-0.7166137695274999,-0.73278808593,-0.66235351562,0.00018315401890058096,0.013516513376360395,0.73571594237895,0.68981933593,0.79296875,0.00020909966345446004,0.01444219215686538,-0.0122482299778,-0.056640625,0.02307128906,0.0001543058726415464,0.012406454286376207,1.0273226670708002,0.99798689062,1.05132574559,7.83102267473901e-05,0.008838238013344154,lift down
-0.74201202392185,-0.79357910156,-0.6806640625,0.0003348970038933931,0.018277301808080414,0.696410827633225,0.54138183593,0.77014160156,0.0009326170335833876,0.030500581814113466,0.0004379272465000006,-0.07482910156,0.07507324218,0.001572667317376217,0.03960726762960021,1.018742279814075,0.91785938341,1.07244519257,0.00056874635696598,0.023818574497092918,lift down
-0.652290954586175,-0.74584960937,-0.46435546875,0.0014117522263742918,0.037526295391476575,0.803377685543125,0.64685058593,0.92333984375,0.0012863292894518456,0.03582057322584629,0.039057922361525,-0.07592773437,0.21020507812,0.0023238934681515983,0.0481464820571682,1.037128982934075,0.89935753196,1.12890151131,0.0012580053500128362,0.035424007913247256,lift down
-0.49947265624590004,-0.86596679687,-0.24133300781,0.02391124873542048,0.1544392133286813,0.7913366699176998,0.53198242187,0.95690917968,0.008904989098812975,0.09424821815857286,0.3504748535122,0.12890625,0.73693847656,0.01560032968068211,0.1247450554390049,1.0209005094189,0.79085626763,1.1839516857,0.0045884294792416175,0.06765322169374872,Null
-0.36493164062079997,-0.79443359375,-0.18017578125,0.01862415917237487,0.13629966534971366,0.8344616699183001,0.57641601562,1.00915527343,0.00823663413225778,0.09064238824593676,0.44086059569940006,0.15368652343,0.68090820312,0.009670767704976949,0.09821705954524655,1.0257946975249999,0.79727198492,1.26691833393,0.008065079066261145,0.08969345778035036,Null
-0.6736169433553999,-1.04724121093,-0.40185546875,0.0220034157885766,0.14814994852886437,0.7539526367146999,0.26025390625,1.0703125,0.021752434499826705,0.14730259133354423,0.16718627929360003,-0.03601074218,0.40002441406,0.01087926446781012,0.10417325139708655,1.036817115993,0.61275549542,1.34943432921,0.029738758620075134,0.17223359638445962,stairs up
-0.0108520507801,-0.2255859375,0.42687988281,0.019988740744607145,0.14120470563244564,1.0283874511678,0.65734863281,1.41271972656,0.008915555320203532,0.09430411672829042,0.0215551757799,-0.65283203125,0.33618164062,0.02493776957713512,0.15771945077634617,1.0497975012205,0.66293727685,1.43745265758,0.009820360136852191,0.09897378055076031,Null
-0.7008422851532,-1.18676757812,0.21069335937,0.04397797599434004,0.20944696477713443,0.7003796386680999,0.2607421875,1.15710449218,0.037359394971816416,0.19304402732119655,0.0044079589849,-0.24792480468,0.28442382812,0.016676298625532958,0.12897522195743308,1.0297776301728998,0.77470944557,1.30058811231,0.01910540835657153,0.13804942895818187,Null
-0.8241247558553,-1.25988769531,-0.16943359375,0.04846105595122734,0.21986337419258642,0.6053369140587,0.18469238281,1.33850097656,0.04911457138247273,0.2213408795365568,0.018280029296100002,-0.14758300781,0.27233886718,0.009853085889907057,0.09913855544228134,1.051945991944,0.55638794099,1.60518346233,0.0466349109587784,0.21568106936256934,stairs up
-0.2897827148404,-0.56677246093,0.00952148437,0.0097599216270666,0.09866874795495752,0.9081835937459001,0.73754882812,1.19775390625,0.005482764387558183,0.07395307618070587,0.3494213867152,-0.29956054687,0.58312988281,0.013191184429875163,0.11470922573533689,1.0270123542096998,0.74551042251,1.22616217087,0.0044863933177977065,0.0668967662484758,Null
-0.49107055663750004,-1.85278320312,0.10864257812,0.16908807066550743,0.41068887310084706,0.7530944824181001,0.10131835937,1.11779785156,0.08812957221529341,0.2964949380423807,0.09530883788880001,-0.43359375,0.61608886718,0.06977366500322098,0.2638166614160541,1.0482986677452002,0.2332312971,1.87381942855,0.044740950820725614,0.21125600214827933,Null
-0.7733215331996,-1.53991699218,0.04907226562,0.17808399056237603,0.42147215873171273,0.45260131835570006,0.01525878906,1.17272949218,0.06143465415426112,0.24755013132469847,0.13019653320329996,-0.61682128906,1.01000976562,0.11567468847786776,0.3396844149452151,1.0672588919442,0.4813168182,1.5813739777,0.035177034359834554,0.18732082578809803,Null
-0.5918359374969501,-1.42321777343,0.06921386718,0.203822252707917,0.45090209256128677,0.5740347290003001,-0.02099609375,1.05139160156,0.11217696945994805,0.3345093825833562,-0.001122436522125021,-0.58996582031,0.79284667968,0.11345501937716973,0.3364095447943278,1.0452896994958498,0.76593974514,1.44361234107,0.01571633012266718,0.12520798415979914,Null
0.166569519040025,-0.43872070312,0.38842773437,0.026935902806156327,0.16391632941577522,0.9743048095663499,0.82287597656,1.09838867187,0.001950070747073829,0.04410437132763763,-0.06534240722460001,-0.40112304687,0.57263183593,0.06542585590225349,0.25546485328220364,1.036315499520475,0.9443407739,1.17297212106,0.0014146688079849589,0.03756503874568741,Null
-0.494895935054775,-0.6484375,-0.01232910156,0.020086355337002322,0.141549070815247,0.7918682861292752,0.4716796875,0.94689941406,0.004265726505545048,0.0652308377171502,-0.398994445796925,-0.70300292968,-0.26000976562,0.004627748331819061,0.06794246802250793,1.028535784134075,0.81631955685,1.19365768325,0.0022009606457166044,0.046855717304319575,lift up
-0.05225402832152501,-0.953125,0.3046875,0.1109871838271227,0.33273069570984115,0.9142196655230501,0.56176757812,1.13500976562,0.014422167062301537,0.11994211789294777,-0.2611392211874,-0.4677734375,-0.10876464843,0.005589040803844316,0.07466637932720928,1.0150686759045748,0.74411968892,1.22839149248,0.007333663795750031,0.08552970031667746,lift up
-0.603522949217825,-1.86157226562,0.28674316406,0.3787438599998994,0.6146519343090849,0.609250793453025,-0.14672851562,1.25109863281,0.1251113509203345,0.3532684143014114,-0.003114013672275,-0.35900878906,0.4384765625,0.028915557195738302,0.16983306009946636,1.10127709908355,0.5189549541,2.01212905477,0.05419926703432113,0.23251616904365022,Null
-0.957041320797175,-1.81396484375,-0.20043945312,0.08816839886331482,0.2965602432325623,0.2999917602505,-0.43676757812,0.75793457031,0.03663185879572138,0.19115511802913382,-0.20286834716482502,-1.10925292968,0.2978515625,0.0612309331126116,0.24713934486404643,1.0743578309913,0.25193869379,1.93862670009,0.0785965674137614,0.2800001357057296,Null
-0.5980551147439251,-1.72766113281,0.27624511718,0.2726826062889823,0.5215370550337337,0.6518859863240251,0.14123535156,1.64099121093,0.10277912069210818,0.3201908382361649,-0.04387786865175001,-1.546875,0.98376464843,0.10231127770557702,0.31946126449275986,1.095710199553825,0.56072769172,2.84086032916,0.06070000758308827,0.2460655554199542,Null
0.17522247314094996,0.12719726562,0.33935546875,0.0017434350977543376,0.041702236271091646,0.99169647216445,0.43627929687,1.25903320312,0.009707507886934417,0.09840345073836121,-0.1364074707001,-0.50048828125,0.41931152343,0.01918953937194525,0.13835304667232806,1.0268567254034,0.53334598234,1.34522083094,0.008923260856750244,0.09434486050977217,Null
0.192697448727675,-0.48706054687,0.53662109375,0.031496340453913085,0.17725010466224922,0.85842254638295,0.26220703125,1.36743164062,0.03347669483561382,0.18273752515158126,-0.191744384763325,-1.20483398437,0.76953125,0.15942313709928665,0.39877886009233043,1.003862816975275,0.50926147026,1.45958882568,0.026949484337085362,0.16395764887995512,lift down
-0.16791809082160003,-1.08276367187,0.25305175781,0.3131465001738759,0.5588950115392347,0.7744323730428251,0.12524414062,1.0302734375,0.09832085728774707,0.31316937133846234,-0.19454925536809997,-0.41271972656,0.25158691406,0.014119944158994363,0.11867874408922972,1.0421195786611,0.83184111128,1.31465572479,0.004312296285840517,0.06558594014822015,lift down
-0.872789916988,-1.09741210937,-0.5478515625,0.024175348421956528,0.15528976157783755,0.38532897948877504,0.11804199218,0.8544921875,0.04932341064398353,0.2218109603184062,-0.22845336913655,-0.46166992187,-0.03979492187,0.008676082118405546,0.09302898426355913,1.02099975847705,0.92459240967,1.13204920473,0.001965414308112352,0.044277542528262236,Null
-0.5890713500943751,-0.64038085937,-0.52893066406,0.0004400912718157212,0.020952113106705535,0.7921374511684749,0.72546386718,0.83618164062,0.0003390006538207073,0.018388941029492577,-0.286184692378725,-0.34509277343,-0.21838378906,0.0011267785944448774,0.03352553725085946,1.0286457919320502,0.98598538477,1.06821052867,0.000177860435179652,0.013319751652778773,Null
-0.5733425903277499,-0.71936035156,-0.51062011718,0.0010961677495389005,0.033067012719098975,0.77454467773055,0.61352539062,0.83813476562,0.001238807178346572,0.03515266932112988,-0.312553405758125,-0.46594238281,-0.23950195312,0.0023321005350107997,0.04823142423434407,1.01497958350465,0.93892975502,1.096935796,0.0008046796806406604,0.02833139568462978,lift down
-0.570671691890425,-0.72082519531,-0.50012207031,0.00150269716896394,0.03871615200457724,0.8138339233362502,0.71484375,0.92297363281,0.0014880587469130596,0.03852711512747583,-0.283537597652675,-0.34985351562,-0.0849609375,0.004703294400202991,0.06849478932154243,1.037082158296375,0.97331455274,1.08953227442,0.0005221214200489286,0.022821396024319072,lift down
-0.8323507690396249,-1.4375,-0.61975097656,0.04507288159260593,0.21203820266316262,0.54160308837525,0.08239746093,0.85168457031,0.05896205624743809,0.24251732125112113,-0.16990478515299998,-0.3486328125,0.32568359375,0.011826225994022915,0.10861243220293824,1.0563687954384249,0.83579909881,1.55575085222,0.014702579474203566,0.12110253104505313,Null
-0.64749633788695,-2.4521484375,0.00280761718,0.22052659457902216,0.4690152216000826,0.153845214842175,-1.70593261718,0.97119140625,0.2890978894701684,0.5370057213349715,-0.4617813110311,-1.97583007812,-0.01171875,0.13865808063045854,0.3719024541850758,1.0843711672422,0.50257028126,3.58150004209,0.12728106952183932,0.35631849074674016,Null
-0.13290771484090003,-0.42004394531,0.0654296875,0.013958218874159661,0.11799713270658005,0.7034616088829,0.37707519531,1.05444335937,0.03420447987554403,0.18471320655506787,0.47973205566195004,-0.62158203125,0.93115234375,0.25725268142804797,0.5065664316992173,1.0202803632000002,0.71049680779,1.2507387005,0.0066647011273318285,0.08153550989914456,Null
-0.02270203397698254,-0.27307128906,0.40283203125,0.02272018975497079,0.1505441162173124,0.6877983264454862,0.36108398437,1.17346191406,0.02309877078936494,0.15179317464790937,0.7268900502612468,0.42468261718,1.03442382812,0.022539231433650088,0.14994340223552743,1.0276184687804737,0.67158056061,1.37161563385,0.014174418347255356,0.11890782426139547,Null
-0.5485218784240602,-1.37744140625,0.19177246093,0.23618310007320517,0.48537734030240504,0.5915888353665163,0.11584472656,1.19287109375,0.0958591613902061,0.309223079451419,-0.016328969395313305,-0.49194335937,0.85998535156,0.12346675143115386,0.3509377593696303,1.038609730165589,0.37681721426,1.46150456097,0.025772694687206228,0.16033746121053183,Null
-0.27366337573755617,-0.97192382812,0.09985351562,0.09085365597193769,0.30104333284646817,0.4304281410718454,-0.12573242187,1.06640625,0.20504693556973422,0.4522561183425698,-0.5066109750024189,-1.02392578125,0.26086425781,0.2327321996917467,0.4818213570830928,1.017695107373217,0.74058343311,1.36539333329,0.008446945942389506,0.09179259904421096,Null
0.07784973144510002,-0.78430175781,0.51306152343,0.10388469621154459,0.32190834793620327,0.28661621093649997,-0.24829101562,1.23352050781,0.19874313568145646,0.4452485573724555,-0.5472210693341999,-1.09448242187,0.705078125,0.34001725983147907,0.5823806458682331,1.0111701965611999,0.67338437935,1.26986367201,0.00624926753139917,0.07895343160731312,lift up
-0.40290265546910226,-1.10961914062,0.32092285156,0.20661252236770877,0.45397938187739795,0.25196865014870323,-0.04284667968,0.78430175781,0.041104097757843426,0.20248850281783878,-0.679833923488379,-1.12475585937,-0.25830078125,0.09511221513298414,0.30801790136950474,1.0112898353708977,0.69777425812,1.23269305744,0.007277832560099903,0.08520377545461587,lift up
-0.6590285528236342,-1.40014648437,-0.15551757812,0.07263980627595118,0.2691797756586302,0.5469236445573182,-0.10375976562,0.89270019531,0.09921733779078074,0.3145928682977195,-0.2837981795286717,-1.03088378906,0.08801269531,0.10163586417146955,0.3184040478619098,1.0380371259414787,0.76623901735,1.42517016131,0.009295296869583088,0.0962912269430641,Null
-0.996391467616434,-1.33117675781,-0.16284179687,0.024723788081006236,0.1570418184724483,0.2526420155630174,0.09814453125,0.83801269531,0.011566398293075186,0.10741300855602892,-0.1620564068307232,-0.47106933593,0.03442382812,0.007859661448642856,0.08854412061455208,1.053679694588778,0.47500036954,1.45999103119,0.016726786107009395,0.12917071426391807,Null
-0.7028264019386967,-1.72827148437,0.02709960937,0.1878891625670787,0.43291830916498436,0.48569421600466167,0.06115722656,1.083984375,0.08614467736386608,0.2931361047650713,-0.41851454808573935,-1.41430664062,0.11108398437,0.10731906924582098,0.3271851144955414,1.0993533673312534,0.32112198401,1.75977302575,0.07703062009417318,0.27719588903146125,stairs up
-1.1215059275598753,-1.72961425781,-0.60534667968,0.05324760802612371,0.23046652896611577,0.22894576303097258,-0.07604980468,0.74829101562,0.01881350576954812,0.13699120152881117,-0.17123024956977556,-0.50524902343,0.22229003906,0.03459058691305193,0.18575340130885198,1.1786982361921696,0.6320240737,1.76716555422,0.056709129970560726,0.237839674347713,stairs up
-0.9959927895876441,-1.77600097656,0.0390625,0.1291616680732989,0.358940043209839,0.25345131627604006,-0.09545898437,1.25231933593,0.04650454924071006,0.21537872802512512,-0.17744006010877192,-0.51782226562,0.12536621093,0.02569796274409952,0.16010483072797993,1.0967980718518298,0.25164255325,1.87324637025,0.08583279887032866,0.2926049881216333,stairs up
-1.0390259702268578,-1.541015625,-0.65563964843,0.036690323132550766,0.19130819655044137,0.24296406200917708,-0.0068359375,0.58459472656,0.009460294267787005,0.09714269149816797,-0.1339324418425187,-0.41455078125,0.16662597656,0.018501105076173138,0.13584906203956862,1.0886964840200748,0.71764671608,1.57799147994,0.03586430028831182,0.18914244137814656,stairs up
-1.004273986812725,-1.33081054687,-0.37316894531,0.02817110074708252,0.16763255350681386,0.28118072509402503,-0.10046386718,0.806640625,0.0218344356248455,0.14757997674408066,-0.1627197265602,-0.5537109375,0.06481933593,0.018201603625994718,0.1347445717531127,1.079561695483025,0.72602416162,1.3585920381,0.01673154682640704,0.1291886912981977,Null
0.3226550874225063,-0.53588867187,0.67529296875,0.04968337548088464,0.22261818376502246,0.7735378485240351,0.42211914062,1.48254394531,0.027138775930324946,0.16453193899071217,-0.326537474053609,-1.01171875,1.26440429687,0.21104124517613435,0.4588162156568006,1.0330898171462155,0.48682436463,1.85441923876,0.029033961471213534,0.17017988908940937,Null
-0.80290863036685,-1.54089355468,-0.19189453125,0.07836977505919342,0.27959587017970317,-0.06560882568245001,-0.73352050781,0.70812988281,0.0593822809666192,0.24338000177541838,-0.51345062255445,-0.96166992187,-0.03466796875,0.03313952344313513,0.18181494612524926,1.02075043583245,0.59022565187,1.68677459684,0.04122200123248502,0.2027780713721378,stairs down
-1.06232879638295,-1.88806152343,-0.21606445312,0.11391862107237598,0.3370961650919438,0.27449127196995,-0.29724121093,0.96154785156,0.05602560481634577,0.23640122843230932,-0.20408691405935003,-0.70349121093,0.142578125,0.023740409991789314,0.1538865132713385,1.17014825531085,0.72915291205,1.91575321729,0.07049503635051824,0.26517691973405594,stairs down
-0.8822183227497749,-1.67504882812,-0.2119140625,0.12108914072283838,0.347543404297983,0.149920349118375,-0.79565429687,0.73059082031,0.054657317876343876,0.23349662648880606,-0.4528805541961,-1.12817382812,0.00537109375,0.07352831657192913,0.2708218894042712,1.086779779035375,0.47133465896,1.882966063,0.07254159285567852,0.26899858526308146,stairs down
-0.9089600221211027,-2.10546875,-0.10192871093,0.15287888244676914,0.3905070131929997,0.25404698268822057,-0.32873535156,0.91772460937,0.05132547191857501,0.2262671797910794,-0.39939019912726825,-0.94909667968,0.10607910156,0.06639186703725874,0.25734310051082343,1.113118672790777,0.46295928445,2.12726422601,0.08134946141906692,0.2848606291805071,stairs down
-1.0826814798903241,-1.68872070312,-0.56567382812,0.04088734761643982,0.20195391592155298,0.2444596516485287,-0.04516601562,0.55749511718,0.010372440110319885,0.10171810888986071,-0.1931249756433666,-0.4150390625,0.02612304687,0.013133165741113314,0.11445704305263364,1.1362088008702245,0.57192275937,1.7577948209,0.04247122909217748,0.20582836491278553,stairs down
-0.8974267578090002,-1.87084960937,-0.2392578125,0.16512936878925927,0.4058528617211983,0.29729980468389994,-0.14965820312,0.93701171875,0.044556622959001084,0.21082037710241291,-0.3427282714809,-0.94677734375,-0.01977539062,0.04071822401135205,0.20153517919044225,1.0740357715002,0.40880436401,1.93897600634,0.10771929255839144,0.3277956594084117,stairs down
-1.1320349121061002,-2.23376464843,-0.43566894531,0.08182774529877794,0.285697700262937,0.235363769528,-0.11877441406,0.72644042968,0.020406091571385756,0.14267121763851773,-0.19109497069980003,-0.49548339843,0.04479980468,0.015819735806266264,0.12561921217214586,1.1860173776468999,0.46309785992,2.23905024541,0.08474952653912311,0.2907535945139377,stairs down
-0.8591711425751001,-1.93298339843,0.71997070312,0.38168008854714935,0.6170298925706772,0.2036669921851,-0.33129882812,0.49182128906,0.031316933571305196,0.17674456494437651,-0.2640942382779,-1.13391113281,0.08532714843,0.051334250965145295,0.22628724077537477,1.0942673218777,0.43676547992,1.96239001974,0.11543913363663914,0.33933837950126944,stairs down
-0.4163977050743,-1.52062988281,-0.09924316406,0.13769196228710232,0.3706045498660055,0.6731713867147999,0.11120605468,0.90747070312,0.03760076608277174,0.19366663152842004,0.4611035156224,-0.44470214843,0.75476074218,0.09543752625948325,0.3085432424212764,1.0476308664373999,0.84648967049,1.59628808588,0.01171550223952164,0.10810279128645493,Null
-0.135101318357,-0.57751464843,0.11865234375,0.018752616859997743,0.13676891210303513,0.8443383789022999,0.24841308593,1.28210449218,0.042539995827948394,0.205994285936233,-0.2425634765614,-0.89123535156,0.71813964843,0.24173502356429644,0.4910505941401412,1.03763408102,0.66319035872,1.44589437679,0.015621338887306449,0.12482902523086602,Null
-0.019051513670699995,-0.224609375,0.25952148437,0.011204107140110997,0.10571706045979863,0.9097167968707001,0.48718261718,1.06335449218,0.02479193114992145,0.15725759543515425,-0.310006103512,-0.86877441406,0.57763671875,0.09557039344907167,0.3087579431617088,1.0266130893194,0.8926042098,1.13426032445,0.0013578700709297078,0.03680319817288144,Null
0.1495336914058,-0.4052734375,0.65808105468,0.11320655118018991,0.3360409719100328,0.8166809081988,0.27661132812,1.29406738281,0.03355595144556934,0.18295371427482804,-0.1696533203109,-0.88598632812,1.00024414062,0.18359463644871474,0.4279435124611576,1.0185389157488,0.66206900999,1.31297482121,0.010245617151066429,0.1010940310215631,Null
-0.7991915893517,-1.79748535156,-0.48681640625,0.03763316824906845,0.19375005891210917,0.42309173583647497,-0.08081054687,0.98803710937,0.02213873019849583,0.14860478919940498,-0.438514709469775,-0.70629882812,0.37524414062,0.06060172381834999,0.24586626346207832,1.054044410084575,0.8621309479,1.84646895329,0.019119833208779982,0.1381015337559943,Null
0.0649398803697,-0.12255859375,0.25756835937,0.008156496365622766,0.09020036100098884,0.8832055664022751,0.51159667968,1.07653808593,0.021487282057478168,0.14640206232268202,-0.0012237548823499811,-0.90393066406,0.806640625,0.24359670690946622,0.4929378410532027,1.02704737985665,0.89396698825,1.15071482858,0.0020068389087315617,0.04474172338499863,lift up
-0.9783947753866999,-1.23132324218,-0.79602050781,0.007901881121966442,0.08878134048977593,0.2771240234341,-0.16638183593,0.48486328125,0.005859062187549355,0.07644877063812394,-0.1154394531226,-0.3681640625,0.13586425781,0.011785853739158764,0.10842688368117415,1.0321874217806002,0.86096290059,1.30649083965,0.007471062235182977,0.08632719490169376,Null
-0.7075036621071501,-2.04052734375,0.24365234375,0.300932852142405,0.5478873241936237,0.2607324218724,-0.26721191406,1.01611328125,0.038302304953372654,0.1954649564269494,-0.36427856444955,-1.08776855468,0.29248046875,0.14014662658166638,0.37389338054479143,1.051959829572375,0.23440389455,2.09505298623,0.07295820662504153,0.2697699225423007,Null
-0.7864057115413032,-1.33618164062,-0.212890625,0.0690998564507793,0.2625388996951848,0.41319699394601495,-0.01428222656,0.83251953125,0.04075577678213752,0.20162745839337526,-0.26987604509085206,-0.75207519531,0.6611328125,0.13729847794215622,0.37007346768060567,1.046150719772807,0.73625479214,1.40499212379,0.014108593618285885,0.11863066102205948,Null
-0.26650939941282503,-0.89453125,0.93469238281,0.42252046646155794,0.6492027151016885,0.450557250973025,-0.21105957031,1.21228027343,0.04961688355337934,0.22246986614931896,-0.50314331054355,-0.92993164062,0.34020996093,0.05830073868226267,0.24115345080582407,1.0231794422094247,0.65395446471,1.32581771818,0.009846003883611176,0.0991029206123722,lift down
-0.4747013082513466,-1.27429199218,0.4921875,0.28430545182822065,0.5325377551653303,0.4881311735274064,0.09655761718,1.27770996093,0.053845524299561055,0.2317568686880732,-0.19577155743279306,-1.06481933593,0.89978027343,0.23988578263448157,0.48917028090959147,1.031929373152743,0.72159198026,1.40806922328,0.013691059027803154,0.11686281160387699,Null
-0.7745388793914,-1.66748046875,0.08251953125,0.17255646658076332,0.41487959146517606,0.381590576168575,-0.31713867187,1.27770996093,0.08444902143788807,0.2902376593143856,-0.1585256957995,-1.05676269531,0.85437011718,0.17671757995566473,0.41985210015644264,1.07659067307185,0.48036791355,1.71158676805,0.04435440871948038,0.21034144312921713,Null
-0.277181091307275,-0.89196777343,0.2314453125,0.13396860456426674,0.3655594111124156,0.7930801391565001,0.21276855468,1.1279296875,0.026854123311134157,0.16366730890088077,-0.26067016601275,-0.81298828125,0.55346679687,0.08457364775844008,0.29045174063696705,1.005150290357125,0.56221325506,1.33860037695,0.008230755330039701,0.09061003499455567,Null
-0.675341491695225,-1.10400390625,-0.134765625,0.08619098906091792,0.29321581060417873,0.604817199703225,0.12121582031,1.02026367187,0.07142041259224105,0.2669117111719912,-0.233712768551175,-0.482421875,0.03039550781,0.021374457153729823,0.1460171942301505,1.02504327908685,0.84211788562,1.26073790888,0.0043471717363021975,0.06585061736203726,lift up
-0.88894409179335,-1.16857910156,-0.67529296875,0.008308766884575752,0.09103842577375947,0.46273681640232495,0.21105957031,0.68786621093,0.014290372715840419,0.11939282551330635,-0.007539978027849999,-0.34338378906,0.20971679687,0.017320939672729116,0.1314444267496621,1.0188054531647,0.83575197638,1.24450531529,0.006275226600258237,0.0791172454889425,Null
-0.8886923217734,-2.10266113281,-0.08386230468,0.08854157650445575,0.2971871843858591,0.4323245239225,-0.38525390625,0.99633789062,0.05026626421780028,0.22392096497928857,-0.15882141112989998,-0.96557617187,0.08215332031,0.03698158496822242,0.19206543417752675,1.058421718745925,0.38482702317,2.20270572893,0.05713904241686024,0.23873875850145929,Null
-0.7982333373987252,-1.40234375,-0.29833984375,0.05858765936509686,0.24174612761466133,0.5197271728480249,0.03186035156,1.0458984375,0.04349844652878883,0.2083019452920852,0.011751098633374996,-1.02685546875,0.94763183593,0.11139638747543047,0.3333435112713939,1.0503643514976249,0.79124695962,1.53444584335,0.017157292921869204,0.13082201530921517,Null
-0.8500308227502751,-0.96752929687,-0.70556640625,0.0014882731966744135,0.038529891171436334,0.5517642211874749,0.43444824218,0.71752929687,0.00304880356947698,0.055146908893910704,-0.09725158691057499,-0.23559570312,0.00622558593,0.0022099134732795882,0.04695091787810318,1.020936919201325,0.90674789497,1.11594041164,0.0008741416967008543,0.029528906895770833,Null
-0.855226135250125,-0.87292480468,-0.81469726562,0.0002986761463569922,0.017260633128338594,0.5257907104461,0.494140625,0.54516601562,0.00016068180541977629,0.012660177759661467,-0.08383819579705001,-0.09545898437,-0.06787109375,3.220299272430104e-05,0.005667670177638276,1.0074474936760498,0.95696948105,1.02960704929,0.0004374297837889802,0.020888662219718804,lift down
-0.8772558593711,-0.97180175781,-0.78918457031,0.0011877387627860965,0.03442047959978378,0.523650817867325,0.34436035156,0.60485839843,0.004160112736256028,0.06441826180839862,-0.0979742431604,-0.30249023437,0.05688476562,0.004359904446525228,0.0659469838992574,1.03047429282345,0.92131030034,1.09733999182,0.001196183021754026,0.03454261953297175,lift down
-0.8848284912073001,-1.03564453125,-0.69409179687,0.003964561638903844,0.06288600984962064,0.500800170894225,0.32055664062,0.70971679687,0.006530792073482695,0.08071223632943761,-0.0270727539054,-0.27490234375,0.16357421875,0.0076036667102062526,0.08708993939273776,1.023550432470775,0.79716315388,1.25586476777,0.004865653217785709,0.06966698705083524,Null
-0.8239135742151998,-1.3779296875,0.08288574218,0.07690093645742568,0.27696332630202525,0.4595776367150499,0.20056152343,0.97485351562,0.010226537939329563,0.1009998593785221,-0.0917843627932,-0.97192382812,0.44055175781,0.07833436328542508,0.2795326946480707,1.024156626870525,0.51261180379,1.47293441331,0.014623618248166966,0.12077689846384758,Null
-0.39646545410039996,-1.80029296875,0.95288085937,0.6553370215495339,0.80851634429717,0.4060992431606751,-0.14599609375,1.09008789062,0.05906104854412544,0.24272081889027386,-0.206410522458625,-0.66967773437,1.04382324218,0.15003270101490637,0.38685607047372167,1.06297930917855,0.28433341361,1.87934760067,0.09673606010280841,0.31063518788532535,Null
0.40039184569935005,-0.04150390625,0.95349121093,0.044714726599523295,0.21119408084277477,0.47599182128624995,-0.14245605468,0.75415039062,0.060509634635312864,0.24567938568126668,-0.73118896483965,-1.04968261718,-0.39978027343,0.01610941830141242,0.12676413039838552,1.0188049032850501,0.72235333047,1.2509431023,0.004597654606123911,0.06772119660496706,Null
0.35464599608987507,0.05627441406,0.93994140625,0.011384852285031648,0.10656636502348697,0.615052795406575,0.27331542968,0.6826171875,0.0039516328098871635,0.06278338735575237,-0.7391967773400249,-1.28698730468,-0.11267089843,0.022726881324857617,0.15056581325634805,1.04107791616645,0.79376099383,1.44117029321,0.004614395392565024,0.06784437636299424,lift up
0.84654235839465,0.61901855468,0.9638671875,0.00649772370629495,0.08050763564426179,0.4550988769492,0.162109375,0.79809570312,0.02003119390850239,0.1413545751779232,-0.13762084960764998,-0.62341308593,0.48950195312,0.060306684980142876,0.2452670346126697,1.0134801023256,0.85008032012,1.13872752372,0.002170472566828805,0.04653005894485556,lift up
0.7684490966753,0.19580078125,0.904296875,0.01526270215627174,0.12338778465018756,0.25688964843415,-0.25012207031,1.45471191406,0.08438372636447919,0.2901254333018186,-0.4980230712850501,-1.15856933593,0.09826660156,0.04092161632972038,0.2020378981500651,1.0174319739733,0.84080473456,1.53563677811,0.009606103522767138,0.09788814159008342,lift up
0.8272271728476,0.68273925781,0.97607421875,0.006050522748323759,0.07768781398297257,0.1724371337872,-0.38049316406,0.7294921875,0.05456484766705998,0.2332990260328841,-0.4933941650355,-0.7412109375,-0.16796875,0.023965504261599935,0.1546143282524163,1.0197664897001502,0.92456222304,1.14995268693,0.0019277109527082133,0.043850788765157266,Null
0.30147949218545,-1.99047851562,0.89953613281,0.6531214307911868,0.807148454259939,-0.08220031738104999,-0.42272949218,0.89050292968,0.07864996390042021,0.2800952320027407,-0.50410644530925,-0.78564453125,0.21911621093,0.05188513967896406,0.22749819082745837,1.04561033877465,0.44256975211,2.14409264003,0.040267164983552754,0.2004158104319464,Null
-0.87323913573835,-1.51843261718,-0.47253417968,0.0497161881125859,0.22269238344026146,0.5363671874963,0.17810058593,1.00427246093,0.02740032636434292,0.16532339685728714,-0.12298889159929999,-0.42993164062,0.119140625,0.013473010143036174,0.11592811400897791,1.0466771870402498,0.56975326815,1.82049557579,0.06034339088169005,0.24534166463217336,stairs down
-0.8828643798790999,-1.26147460937,-0.41931152343,0.024334415821443668,0.1557998067453553,0.49160522460535006,0.185546875,0.8515625,0.01959065233395958,0.13979154374684,-0.04553955078025,-0.42517089843,0.14367675781,0.014293702717538305,0.11940673540778367,1.0254093330947,0.56057146397,1.39343434424,0.029882691080023963,0.17264988952305732,stairs down
-0.8243280029261499,-1.30981445312,-0.47424316406,0.04864829022744271,0.22028769711873175,0.5390808105434001,0.27990722656,0.86145019531,0.016771678749747814,0.12934353309258814,-0.17990966796595,-0.48034667968,0.09313964843,0.016702714533681082,0.12907733243039568,1.0164059994241,0.64654821904,1.55747749874,0.051457129291287915,0.22655790974507972,stairs down
-0.8868670654256999,-1.1123046875,-0.71020507812,0.0044131882324079585,0.06634873971543799,0.48338195800375006,0.17395019531,0.7412109375,0.012816947008106743,0.11307035261546891,-0.025678100586250006,-0.25939941406,0.2060546875,0.007724358009896706,0.0877783977688814,1.0206689386305499,0.78164165216,1.27665501146,0.003987667812492572,0.06306899906421015,Null
-0.9577612304648,-1.47143554687,-0.5419921875,0.033297218096218176,0.18224701657634243,0.44486297607044994,0.02648925781,0.79052734375,0.025500417378562883,0.15948876554515204,-0.0387094116214,-0.39001464843,0.19091796875,0.016654906354898143,0.12889247103307042,1.077729697535975,0.66711178959,1.52323883913,0.030547037727714825,0.17455850060479877,Null
-1.0758038330041,-2.01684570312,-0.36975097656,0.10857009655805044,0.32908763470640356,0.24690429687145,-0.26025390625,0.66967773437,0.02474946829873871,0.15712286475237097,-0.1798901367162,-0.55029296875,0.4619140625,0.03224822818127805,0.1793533038748516,1.14409305912565,0.4226482863,2.04633230192,0.1071488980686856,0.32692663676047246,stairs down
-1.0145526123014,-1.84545898437,0.19128417968,0.21083055879070225,0.4585885763881668,0.29527465820029997,-0.15173339843,1.28271484375,0.05955238775319727,0.24372834628703793,-0.17571899413835,-0.7060546875,0.30310058593,0.03624127039414678,0.190133288032794,1.14924070689555,0.22009605705,1.86626528067,0.13281678778291933,0.3639845406242716,stairs down
-0.93117614745755,-1.48034667968,0.06567382812,0.08636483881635906,0.2935113740884979,0.3457858276332,-0.12377929687,1.1591796875,0.051958028139321356,0.22765792994967923,-0.17607452392314996,-0.82946777343,0.40881347656,0.03890419873463116,0.19699476703149904,1.075397478650175,0.65305693696,1.4965848291,0.03764670339325343,0.19378489785009126,stairs down
-0.31749694824014996,-1.66711425781,0.197265625,0.16021959510818906,0.39977374366060936,0.63584045409775,-0.84875488281,1.61767578125,0.16674326501308315,0.40783134608628413,-0.21267333984235,-1.34167480468,1.07104492187,0.2950625787303735,0.5425172092049685,1.03678175115125,0.36289175749,1.84262277606,0.09612162448565412,0.3096470901275192,stairs down
-0.092909240721125,-0.35607910156,0.10400390625,0.014303836305679713,0.11944905489335407,0.712467346187375,0.30810546875,1.10620117187,0.038370648406470316,0.1956392644267866,-0.7021737670852249,-1.21142578125,-0.37768554687,0.03831544233808314,0.19549847501256357,1.0302243294256999,0.65717725866,1.41061568238,0.03676121196983949,0.19149232083797743,stairs down
-0.10508941650225001,-0.40319824218,0.24853515625,0.01887272363178612,0.13720620183762341,0.6434863281211249,0.01818847656,1.37927246093,0.08333437374675161,0.28831586465608294,-0.67658935546555,-1.37023925781,0.24267578125,0.09176598859860388,0.3025501175460148,1.0190197774723502,0.61414686696,1.453852948,0.03985250165722699,0.19938121878222112,stairs down
-0.12222564697060001,-0.52844238281,0.19262695312,0.0162722412088958,0.127403142056519,0.884230957027375,0.42443847656,1.29504394531,0.04682941014894993,0.21613036950779857,-0.49565582275,-0.98107910156,-0.22668457031,0.0262387572277131,0.16178121131529402,1.0448073700979998,0.62410265161,1.46354687566,0.0400729881938687,0.19993200274939485,stairs down
0.1664788818324,-0.09204101562,0.39489746093,0.011112052067227275,0.10528186898540132,0.5536984252893249,0.50061035156,0.65808105468,0.000989551188534139,0.031417786531880376,-0.8366488647426499,-1.14331054687,-0.76159667968,0.00150237783667455,0.0387120380771003,1.0233398923558499,0.98414506951,1.26524625809,0.000625486709095182,0.02497845055888063,Null
-1.011007690425825,-1.37316894531,-0.73950195312,0.029819716627045977,0.17246787334306168,0.21070983886417502,-0.15905761718,0.4638671875,0.010614322417448797,0.1028969708563142,-0.14900634765352497,-0.43591308593,0.2548828125,0.016876142042474188,0.12974571934120988,1.056643219994875,0.76586712687,1.45886509827,0.02948379870499307,0.17149370019983412,stairs up
-1.051100769039325,-1.48571777343,-0.64526367187,0.03613603378272181,0.18985703489274502,0.21828124999634999,-0.61840820312,0.50500488281,0.02239054149214716,0.1494475330623319,-0.1146679687481,-0.38513183593,0.22302246093,0.023330483376151272,0.15255214573289652,1.1006702774478498,0.65701365316,1.50745917909,0.035875318475338897,0.1891709020413831,stairs up
-1.09425415038685,-1.47302246093,-0.80920410156,0.020910472022784756,0.14442366787589836,0.24116882323865,-0.03051757812,0.47607421875,0.010875833228283378,0.10415682236518484,-0.143750610349575,-0.42102050781,0.20324707031,0.02431003654399001,0.15572174367322641,1.144148786996125,0.84108586387,1.49871844441,0.023156329898608483,0.1519817063789651,stairs up
-1.1429598998986998,-1.59924316406,-0.76049804687,0.032213441952774535,0.17925654338933517,0.20987548827777502,-0.07299804687,0.50695800781,0.01562223697338128,0.12483261345076384,-0.10976867675624997,-0.45874023437,0.24609375,0.023841407952266,0.1542135027563583,1.1829156748091,0.772800048,1.62410257849,0.03474948993034946,0.1861789896994921,stairs up
-1.0486697387659751,-1.31689453125,-0.70361328125,0.030215459643810977,0.17360852800107907,0.22958862304314998,0.04724121093,0.443359375,0.006562363472621826,0.0809070921733087,-0.13290954589615,-0.39514160156,0.16101074218,0.02003203773741423,0.14135755247976917,1.0943559159371,0.76347877422,1.36560337935,0.029210094916545973,0.17069583966592333,stairs up
-1.0791403198206,-1.56823730468,-0.62377929687,0.03145240283388903,0.17712642893369784,0.240721740719375,-0.14282226562,0.5927734375,0.021260515451772478,0.14562748422994556,-0.12383666992030001,-0.43542480468,0.23999023437,0.023982687089699254,0.15466974614311296,1.13194420783915,0.66998683291,1.58488852005,0.033115272015113904,0.18174840806751547,stairs up
-0.21185180663775,-1.35021972656,0.06884765625,0.07937905498420493,0.28139048908366543,0.9563714599569001,0.25939941406,1.3330078125,0.051749648097538646,0.22720095505365903,0.05127471923695,-0.29321289062,0.32067871093,0.016535624087088346,0.12843007835733272,1.04272757216595,0.73469309309,1.37910794412,0.02222659731686072,0.14889939833178834,stairs up
-0.49630249023172496,-1.38049316406,0.11157226562,0.2697728139683777,0.5187469343846349,0.70782958984005,-0.0634765625,1.29064941406,0.14544055767220637,0.38088969043284154,-0.08414489746075,-0.76501464843,0.29479980468,0.04643952205215737,0.21522876956166195,1.086728618331925,0.78758609618,1.52521283313,0.03402398535174111,0.18422520291306985,stairs up
-1.09119781493755,-1.50305175781,-0.54907226562,0.03884771726118267,0.19685171568475016,0.2685153198204,-0.01110839843,0.68933105468,0.017114882159801035,0.13066022713282543,-0.11789184570189999,-0.630859375,0.43701171875,0.053437713348951366,0.2308768482667307,1.16038189348285,0.69285360882,1.56157647019,0.03945093619122288,0.19837416376823072,stairs up
-0.9587481689417001,-1.66638183593,-0.15441894531,0.12959572240789402,0.35954378467979986,0.36900543212517506,-0.10363769531,1.38037109375,0.10080427149377147,0.3170997647666063,-0.15741058349342502,-0.45300292968,0.35095214843,0.02632281243789139,0.16204013517273017,1.11839654563895,0.48344111398,1.90058941404,0.08562538166367926,0.2922521483402989,stairs up
-1.1084399414032,-1.96276855468,-0.56616210937,0.07337509696041702,0.27053957052160776,0.21144409179377502,-0.05249023437,0.68786621093,0.015311295488587751,0.1235840493343145,-0.109474182127925,-0.43103027343,0.29479980468,0.032987540262280804,0.181397550732156,1.1532681077951,0.58471692429,2.03695693867,0.07686689085395515,0.2769020108753641,stairs up
-1.0980187988242,-1.86877441406,-0.50085449218,0.09146325412100396,0.30205065135785,0.130810241697075,-0.18420410156,0.49255371093,0.016042620473409167,0.12650104316655117,-0.08059509277350001,-0.4736328125,0.20666503906,0.034839363022027135,0.18641959289321514,1.131572657260875,0.5165305278,1.90665288482,0.09165681305537186,0.30237008949751204,stairs up
-1.0290283203089752,-1.80090332031,-0.5693359375,0.05763943108675473,0.23978184357669335,0.170382080073975,-0.0234375,0.49255371093,0.005819106641222875,0.07618765565772331,-0.085288696287375,-0.36376953125,0.13269042968,0.01380301030851608,0.11733926360236283,1.056694012494925,0.61090885202,1.87722167873,0.05574235164959912,0.23580287481384768,stairs up
-1.096534423824,-1.43701171875,-0.67321777343,0.0290299225854841,0.1701685863460715,0.1829223632774,-0.00439453125,0.43725585937,0.006123970176402992,0.0781579186708678,-0.1800207519511,-0.47253417968,0.14904785156,0.02650074787084929,0.1625868875437751,1.1398627572292,0.708302856,1.44492296176,0.030545567382933556,0.1745542994729039,stairs up
-1.079248046871225,-1.72265625,-0.61010742187,0.04345203521560177,0.20819079020831532,0.16641510009447502,-0.05603027343,0.43505859375,0.0074601327749806105,0.08626402751462026,-0.13528900146265002,-0.35473632812,0.10754394531,0.015767859035299217,0.12541307502693239,1.1108000535609002,0.61769851823,1.7327149325,0.043488299299457564,0.2082776477474453,stairs up
-0.5500878906216,-1.75256347656,0.19311523437,0.1775211540616529,0.4208055978435871,0.7325488281214999,-0.09143066406,1.06750488281,0.07895209314823115,0.28063270107982885,-0.10568481445140002,-0.62182617187,0.27551269531,0.062371201040293346,0.24942989603833102,1.066875698762,0.63591369096,1.76528296913,0.030293066183591833,0.17383133641013307,Null
-0.6611096191369,-0.86975097656,-0.45361328125,0.010183330375396179,0.10078626915139625,0.7393774414024,0.35144042968,1.01831054687,0.0223326539574266,0.14925422045132605,-0.19787719726310002,-0.51635742187,0.10778808593,0.021762350296764366,0.14733616128100546,1.0341423027246999,0.87332474043,1.28576743019,0.007611680278645225,0.08713581971811944,Null
-0.6982080078094001,-1.45751953125,-0.18884277343,0.06009462664898244,0.2448354346951437,0.5841784667931,-0.03662109375,1.03063964843,0.06373498107954864,0.2521421099833381,-0.11165283203180001,-1.1767578125,0.52062988281,0.18330373268427375,0.4276043420646744,1.0599996640158,0.44454397843,1.48008979335,0.02405160649979033,0.1548918251023625,Null
-0.6450268554649,-0.80236816406,0.08349609375,0.013844065743875577,0.1175136399722002,0.7462316894495001,0.65234375,0.95812988281,0.0027469255138080537,0.05234556523740606,0.2507250976528,-0.01245117187,0.56555175781,0.004519493304909381,0.0671430902747789,1.0276634194096999,0.90933283613,1.15543027766,0.0007519378074445677,0.027387186108214116,Null
0.14459594726320002,-1.41760253906,0.51428222656,0.24739017057651122,0.4967612053593456,0.6532739257774,0.16394042968,0.96264648437,0.03669365121008726,0.19131627500571413,0.1719506835933,-0.62670898437,0.908203125,0.23492715077011705,0.4840865964816541,0.9912406759238999,0.62093798765,1.53307297755,0.012428285889779508,0.11134278232132992,lift down
0.14386474609069996,-0.54296875,0.52514648437,0.099350593566452,0.3148050461516395,0.7840283203083002,0.39440917968,1.10534667968,0.03307444891547714,0.18163634766529646,0.39749145507530004,-0.22485351562,0.8779296875,0.11634852425286496,0.34067235423825165,1.0187865380667,0.83181296874,1.2309409855,0.003631630821493561,0.0601876378041191,lift down
0.0010717773432000399,-0.61181640625,0.59411621093,0.25476827016980996,0.5041144210339409,0.8240319824178001,0.69067382812,1.11291503906,0.008631849484566823,0.09279153981293448,-0.1310473632811,-0.78588867187,0.20251464843,0.09458564768232665,0.3071631220754224,1.024736953887,0.80338546818,1.2764022869,0.0032162871547011616,0.056641384488855924,lift down
-0.8980453055209,-1.38854980468,0.20178222656,0.14827594108297457,0.3847910060149521,0.3352326311346428,0.03479003906,0.99438476562,0.049618629860367074,0.2225932301383483,-0.1729007393948857,-0.87377929687,0.13903808593,0.033596111562741685,0.18316145095967123,1.068814523086857,0.53464195153,1.45643183571,0.03761017902485601,0.19379486628308204,stairs up
-0.3524447521520633,-1.62097167968,0.25769042968,0.2794398170644907,0.5282224663591109,0.4794870399532832,-0.24487304687,0.98779296875,0.06781021324228241,0.2602077812578988,-0.5816444488860845,-1.86999511718,0.0654296875,0.12626029115214613,0.35506357192938615,1.0497315572512351,0.50571722441,1.96963468232,0.06331462414961964,0.25143442644156094,stairs up
-1.0809326171836762,-1.4404296875,-0.689453125,0.03288520021801832,0.18118980260602285,0.2577933557481956,-0.04663085937,0.6279296875,0.014734831925903007,0.1212847227806984,-0.09499272930121416,-0.33618164062,0.18505859375,0.017970352802802646,0.13394046687443492,1.129085511781231,0.71219071819,1.47350722296,0.034600388120853975,0.1858548898473699,stairs up
-1.089609148874602,-1.80053710937,-0.68969726562,0.04767770282966859,0.2181941903601124,0.24878742311457308,-0.1943359375,0.57995605468,0.015604372623467918,0.124827041616223,-0.09694131721254703,-0.36840820312,0.22900390625,0.017766289581097154,0.1331937633585835,1.136988621111071,0.73354192922,1.87037873593,0.04679657024894258,0.21616856219595718,stairs up
-1.044205790351248,-1.53210449218,-0.78625488281,0.017235087950887452,0.13118372812737636,0.24193803600433084,-0.04907226562,0.47985839843,0.006912772145046832,0.08308054524955921,-0.15914260749290227,-0.41247558593,0.14636230468,0.019282874496577403,0.13875834278638222,1.0949240472203008,0.83052746447,1.56411403262,0.018166670806272055,0.13468241349303084,stairs up
-0.8885736696419376,-1.6201171875,0.12744140625,0.149276435449642,0.38602871877684225,0.37765513488998265,-0.06555175781,1.07580566406,0.0526848320253087,0.229333124072584,-0.16968238064717991,-0.99987792968,0.16662597656,0.04143518909678649,0.20338019057523363,1.0696520525943078,0.48195699926,1.64948895444,0.0599021563576775,0.24453735790050934,stairs up
-0.712969654221837,-1.32897949218,0.5703125,0.22546640498367787,0.47448116999518364,0.41442382812168893,-0.01599121093,1.48913574218,0.1321468709641085,0.36325073684982306,-0.11888328269428147,-0.74853515625,0.23986816406,0.03478425805464371,0.18636718010553438,1.0202829038685481,0.39643464927,1.49018632303,0.04505064811255145,0.21209409801228316,stairs up
-0.7734854695240826,-1.28564453125,0.71252441406,0.2626912600207931,0.5121421593927697,0.4260050455688838,0.07958984375,1.72326660156,0.12244320821334104,0.34965123506493406,-0.11750350158718653,-0.4853515625,0.3134765625,0.026441194980195017,0.16248312225721045,1.077266302832997,0.30739728545,1.85528641457,0.044456363047102945,0.21068551672295097,stairs up
-1.0154420021731392,-1.33776855468,-0.69641113281,0.016107513072377167,0.1268034098913756,0.24549933000901233,-0.10192871093,0.40649414062,0.005575975036911952,0.07460657387771545,-0.12478578489871253,-0.32421875,0.25402832031,0.015123974384628779,0.12287107352206789,1.0618313959231747,0.79995605936,1.40575469619,0.016249164029665867,0.12735974989001592,stairs up
-0.9892427530237881,-1.32751464843,-0.564453125,0.033358924361746166,0.18251166517734557,0.2261479215776923,-0.29553222656,0.73327636718,0.033734566701021894,0.1835363862174253,-0.09136546540258345,-0.61352539062,0.11511230468,0.016665597368772503,0.12900158632318307,1.0456812174767633,0.65141944732,1.35610235834,0.028321173544676996,0.16816678861631276,stairs up
-0.8336206017147313,-1.40808105468,-0.09399414062,0.10889207085131344,0.329734441521165,0.26500377273801845,-0.20532226562,0.85913085937,0.034923278066140484,0.18673412242467427,-0.3057737570175268,-1.02270507812,0.21057128906,0.10651862124508454,0.3261211403312814,1.0435767662482027,0.68627544281,1.4329106317,0.019574932191110575,0.13980294407074456,Null
-0.8880220042679856,-1.36120605468,-0.67834472656,0.014337916141378783,0.11963330858259946,0.23700434183656477,-0.13122558593,0.95703125,0.061189453723045684,0.2471424705483128,-0.35970322862561144,-0.65380859375,0.22875976562,0.06206704112695294,0.24890843649426506,1.0505005705800181,0.81040152659,1.38269263356,0.007950340210427075,0.08908446013411508,Null
-0.6908606775438232,-1.12854003906,-0.40014648437,0.021801512338961725,0.14754799812517408,0.6692178375162624,0.13806152343,0.99633789062,0.0421558718404613,0.20517245203990453,-0.24701876782805993,-0.51513671875,-0.09155273437,0.0068422419900004295,0.08265882470992154,1.0252538939468332,0.72566025611,1.23974376195,0.005658420833986266,0.07516880275071766,Null
-1.0156156975930948,-1.91455078125,-0.3740234375,0.13174391208944167,0.3626830884478455,0.28303682080730946,-0.16430664062,0.99633789062,0.048624081184459114,0.22033715194998063,-0.18113468816524106,-0.67114257812,0.09851074218,0.022526343002821,0.14997102990234673,1.1080133310436238,0.43316467637,1.92151571807,0.11769146903048174,0.3427950321787378,stairs down
-0.5372077213975088,-1.95874023437,0.26867675781,0.34282290082476696,0.5849933389823327,0.6105085716619434,-0.12231445312,1.30029296875,0.16450201957658903,0.40523003339588454,-0.15659334971035335,-0.8193359375,0.56616210937,0.04726615363811323,0.21721566364501788,1.0655094759514137,0.30028155545,2.01121790678,0.10444491324568603,0.32289376209032294,stairs down
-0.7552164946695845,-1.60522460937,0.23852539062,0.2539480174278775,0.5035714398705897,0.536744213374126,0.00903320312,1.16430664062,0.12417353225610162,0.35213013675735677,-0.062042673541575936,-0.53100585937,0.51684570312,0.061396582953754573,0.24760577988647692,1.1242873443622494,0.61899106358,1.62569404415,0.0372153326543534,0.19277451999385203,stairs down
-1.018629232789419,-1.45715332031,-0.38110351562,0.04150601681322198,0.20357027835884495,0.28285186144416014,0.025390625,0.67016601562,0.013681977716671847,0.11687813715467125,-0.18906698421262166,-0.63464355468,0.21850585937,0.02096614187705102,0.14468319873625027,1.0896485003255258,0.57126155689,1.52316711178,0.0416697084752314,0.20397130415900475,stairs down
-0.8109152200311188,-1.36804199218,0.28771972656,0.21719170691283912,0.4656307562130352,0.3220665138051923,-0.05004882812,0.96826171875,0.04108507441037963,0.2025172766882239,-0.18321153333625873,-1.07946777343,0.58227539062,0.07422208167871762,0.2721990499518026,1.0359429359661014,0.35299769022,1.48943166749,0.05371050352696961,0.231552594555274,stairs down
-1.066684875484475,-1.55700683593,-0.671875,0.035415924173374094,0.1879558042810614,0.26901519775037497,0.05187988281,0.64575195312,0.012730268693251825,0.11268736850915764,-0.206138916012125,-0.57141113281,0.05090332031,0.014934247954789322,0.12205290793300398,1.1300353038313249,0.68093590801,1.66816797339,0.03871880172162569,0.19652481959620677,stairs down
-0.799411621091325,-1.4599609375,0.43017578125,0.28434823093291767,0.532576154512747,0.41919250487872506,0.10180664062,1.15124511718,0.07149903755406714,0.2670585890028291,-0.10088928222404998,-0.49377441406,0.6376953125,0.07292237235043024,0.2697036640825522,1.1007531630014,0.60391583799,1.5367367449,0.04110289145744686,0.2024848987672988,stairs down
-0.8980194091762,-1.60461425781,0.23266601562,0.11330959969213009,0.3361938811056795,0.33115173339445003,-0.06665039062,1.2685546875,0.06151251264037089,0.24770694652909908,-0.19880462646215002,-0.97277832031,0.52478027343,0.05394921212246803,0.2319791781435607,1.052953925989125,0.26477689546,1.67380075421,0.0752992833868154,0.27406392535017876,stairs down
-0.8459182739227251,-1.54028320312,0.65869140625,0.23780696017101288,0.48704460039157127,0.43287292480075,0.0673828125,1.12084960937,0.08359727899799603,0.2887702993739159,-0.13767974853269999,-0.57165527343,0.69506835937,0.053228701433283954,0.2304248894535934,1.116655839065375,0.46272195889,1.6195155033,0.0488105299949615,0.22065471594773156,stairs down
-0.9076580810510501,-1.42028808593,0.45849609375,0.10262735160007241,0.3199543455261582,0.332059020992275,-0.17846679687,1.08544921875,0.057776499522760746,0.24006677878030905,-0.10609466552499999,-0.5390625,0.75659179687,0.044815674927347976,0.21143234317395626,1.0567958828670752,0.58739109298,1.51070460227,0.0333347396126281,0.18234967168491567,stairs down
-1.06304779052415,-1.98107910156,0.51013183593,0.22312205476883779,0.4717671561606591,0.2732687377889,-0.318359375,1.05236816406,0.032961979488754484,0.18132725812748782,-0.15933288573960003,-0.53955078125,0.37609863281,0.024867578929338947,0.1574973332536637,1.1677178040733502,0.02100815537,2.05409376464,0.14718570493470717,0.38316803190293736,stairs down
