avg_accX,min_accX,max_accX,var_accX,std_accX,avg_accY,min_accY,max_accY,var_accY,std_accY,avg_accZ,min_accZ,max_accZ,var_accZ,std_accZ,avg_magnitude,min_magnitude,max_magnitude,var_magnitude,std_magnitude,Label
0.4957842145607398,0.357421875,0.65808105468,0.006653655348984136,0.08146583172349002,0.504314500454694,0.33874511718,0.60363769531,0.00449889869753123,0.06698822221211405,-0.7378309600170407,-0.82275390625,-0.6123046875,0.001476183344258109,0.038372093641352384,1.027953881501046,0.96802294273,1.10306128542,0.0004967272575279647,0.022258932951889677,Null
0.17631103515459998,-0.55249023437,0.86022949218,0.1264721006416296,0.35518434705097224,0.6844274902304,0.27111816406,1.13354492187,0.06522623819064528,0.2550748372442266,-0.45729980468439996,-0.98400878906,0.62927246093,0.17329756597902773,0.41576955403694504,1.0302978039713,0.74810563695,1.28179289783,0.011247651176179456,0.10592229249897779,Null
0.636469726559,-0.09643554687,1.03723144531,0.08931882337156635,0.29848873733046855,0.5571594238243,0.27819824218,1.11010742187,0.027795942318187866,0.1665126195289486,-0.3673840331996,-1.00134277343,0.39514160156,0.07310197164975268,0.2700355841748052,1.0183605729964,0.74081830668,1.16010334395,0.003182258743248845,0.056340953989000964,Null
0.7301222179001511,0.70275878906,0.74133300781,2.8237688517539123e-05,0.005307217805842684,0.6786417540699496,0.634765625,0.69311523437,4.9651853707530574e-05,0.00703752698509568,-0.16457876209881614,-0.29406738281,-0.12939453125,0.0009083465697878516,0.030100806354044753,1.0107824255628466,1.00065653081,1.02860610337,2.4542593146433974e-05,0.004947804868076737,Null
0.716036868401013,0.67504882812,0.76257324218,0.00038292217612044045,0.01954296735569044,0.6786104276546234,0.55883789062,0.75964355468,0.0007551502587736605,0.027444285917656748,-0.14922001825942857,-0.5400390625,-0.08850097656,0.004347174550974418,0.06584742355251536,1.0001076094480779,0.93683378866,1.0697179173,0.0008058595215020952,0.028350773885165888,lift down
0.9045694429539727,0.68725585937,1.10046386718,0.00722651704352509,0.08489239286704972,0.4062322747176986,0.10656738281,0.63940429687,0.013377091767828527,0.11550083203744173,-0.17283149614353424,-0.55407714843,0.03076171875,0.013108403069323595,0.11433498867913074,1.0206597761072875,0.85733418461,1.2035400554,0.005125081785056285,0.07149154121360951,Null
0.652899427814676,-0.8125,1.14050292968,0.3265014113050107,0.5705976594936615,0.37950353487766203,-0.49719238281,0.853515625,0.045555475990724445,0.21313646029303276,-0.2553886306080845,-0.77600097656,0.033203125,0.028528394153215186,0.16866544542242243,1.0115557331727325,0.60164724719,1.34477291428,0.011817989225315425,0.10855735403380823,Null
0.7745431888971677,-0.85534667968,1.29663085937,0.2643254141355133,0.5133823797637436,0.24299048274580926,-0.48095703125,0.75988769531,0.04620187336035544,0.21463536971910863,-0.16187758252462428,-0.69396972656,0.07238769531,0.0280896799916169,0.16735738987388143,0.9957067859683816,0.58933435637,1.3137779996,0.030476556567565472,0.17432290163410316,stairs up
0.499280541342006,-0.97961425781,1.33178710937,0.5667221766643429,0.7516983635944173,0.3908925464335103,0.14111328125,0.90148925781,0.03344675627594407,0.1826146031347984,-0.1877401796384366,-0.93640136718,0.24633789062,0.040838984811445836,0.20178829458048642,1.0154606742236283,0.56686075325,1.4769500244,0.045415042592180925,0.21279350299038233,stairs up
0.8686595243529104,0.71716308593,1.04614257812,0.004448396721022596,0.06659297706929251,0.4054159158487306,0.15100097656,0.63793945312,0.015242704738544357,0.12327008437655144,-0.2775251547946439,-0.56433105468,0.00830078125,0.028137616058236548,0.16748284298944519,1.020077271006842,0.85467831573,1.14743053639,0.0033308830220200353,0.05762439319144725,Null
0.8392573489386076,0.63256835937,1.15600585937,0.00754735175742353,0.08673792557396517,0.3868330943396202,0.2431640625,0.59460449218,0.003580655121258959,0.059743819213089876,-0.4259087284873418,-0.58959960937,-0.15307617187,0.007594699868160228,0.08700957423075893,1.023118683098766,0.76353359677,1.33857701647,0.007305722971940352,0.08533817197155602,Null
0.8172057909182314,0.12902832031,1.12365722656,0.029660422714312854,0.17194490856138553,0.4902575330295175,0.18566894531,1.06970214843,0.021891617957920446,0.14772009647774187,-0.24193079908237944,-0.65051269531,0.11975097656,0.030662118172444255,0.17482427220668523,1.0157688628786172,0.73870001123,1.30523269934,0.016926111586486704,0.12989105739191084,Null
0.22666168212536186,0.12487792968,0.33630371093,0.0010040461580375477,0.03163452820294544,0.9743246781163157,0.8779296875,1.09924316406,0.0007694260045439836,0.027692869081228998,0.19471821031641445,0.11315917968,0.37255859375,0.0041932585971919765,0.06464878176257789,1.0218531549245398,0.96913942077,1.12438809124,0.00036370749186218873,0.019039723885575593,Null
0.24376539750144885,0.20739746093,0.271484375,0.0002113874515488416,0.014518502643731288,0.945687727491108,0.90844726562,0.97692871093,0.00018050239633528016,0.01341602047690001,0.2811851501425568,0.22741699218,0.31567382812,0.0005053865797508535,0.022448849022210823,1.0165853665848863,0.96866597303,1.05739417855,0.0002615985784965675,0.01615101856592171,lift down
0.24489180160981133,0.166015625,0.34155273437,0.0014443164033629404,0.037952909865190544,0.9619588106432075,0.88403320312,1.02893066406,0.0012210104169422594,0.034895834762088074,0.2833732337605121,0.1708984375,0.41589355468,0.00243903585960816,0.04931999228469441,1.0344874756332885,0.99163088617,1.0842765002,0.0005649272449188927,0.023736143957539094,lift down
0.6259720542177841,0.12426757812,1.14086914062,0.11036847232564027,0.3317452720526106,0.6476065895735796,0.00561523437,0.96545410156,0.0690737479119008,0.2624452622424621,0.11482238769431817,-0.30029296875,0.59362792968,0.043571125682890864,0.20844026500615756,1.0204906241232956,0.78924955851,1.2685718961,0.005413538965246361,0.07347216883409664,Null
0.8931445049941935,0.76452636718,1.14526367187,0.0030291555115747296,0.054963739141497485,0.45594114897994625,0.11145019531,0.61877441406,0.007197606362041656,0.08472460066499352,-0.15466111705801072,-0.28723144531,0.02514648437,0.002736134425596778,0.05223771841809297,1.020053396017446,0.88337917201,1.19978883718,0.0019338167745817278,0.04391603741677967,Null
0.9264178288667904,0.57775878906,1.31433105468,0.034357429168901096,0.18511157555519686,0.389420162774244,0.23303222656,0.74389648437,0.012807458426332555,0.11301984953125013,-0.1339166373050398,-0.28161621093,-0.04174804687,0.0027815566510373322,0.05267047101255549,1.0187046395392307,0.6662472297,1.42112574905,0.039992621479702326,0.19971614921086936,stairs up
0.8907319498168581,0.55737304687,1.27954101562,0.03506757977866197,0.1869803075964886,0.44684003846833836,0.15051269531,0.8603515625,0.02198207824010717,0.1480394107243044,-0.14162037091332325,-0.41394042968,0.02893066406,0.006562118328936765,0.08088444348596108,1.0159272500264653,0.64222792384,1.43412731853,0.04457183237356,0.21080126723934178,stairs up
0.9522795740388594,0.51550292968,1.34008789062,0.038150552736448705,0.19506244547926702,0.3224058277686207,-0.06604003906,0.80822753906,0.023203351304146632,0.1521243042817526,-0.13639754641575597,-0.43347167968,0.02526855468,0.007680524447675506,0.08752229261041136,1.0283935084557825,0.58851500397,1.43169011112,0.04075239718282029,0.20160431701372067,stairs up
0.9405673191800282,0.6337890625,1.26586914062,0.017349218749045846,0.13152973359882658,0.3009686780688385,-0.10595703125,0.61157226562,0.025912192133711712,0.16074447576907094,-0.10627724968716713,-0.29248046875,0.10375976562,0.006709030104810978,0.0817925690622678,1.0091511341092068,0.67155311325,1.2756161337,0.018037849805346094,0.1341146937538354,stairs up
0.7918288859883245,-0.93041992187,1.31689453125,0.22010048794955833,0.4685244009775741,0.36470031737930847,-0.15893554687,0.99353027343,0.037606932247458626,0.19366701786992613,-0.1057869119818085,-0.37060546875,0.73791503906,0.02235715880928341,0.14932413830501523,1.0025392938917552,0.4322993228,1.55266099192,0.04554600051490343,0.21313110409982536,stairs up
0.0199143467447839,-1.048828125,1.35876464843,0.6179984465686038,0.784995204582972,0.5705851354206053,0.07958984375,1.21569824218,0.05866867898577992,0.2418669158503061,0.08782800679913544,-0.55346679687,0.81494140625,0.08643421404314895,0.2935730302482401,1.0354597907233718,0.63019862574,1.37293597298,0.0219357837495571,0.1478937734809302,stairs up
0.9568570597749718,0.69543457031,1.36535644531,0.026715678358499056,0.16321958925988692,0.28759045546988765,-0.033203125,0.57116699218,0.018868440043790326,0.13716937999317583,0.04102316866974719,-0.08044433593,0.25134277343,0.0049767294665129976,0.07044678764400739,1.011027602655983,0.71684094535,1.40605888657,0.02746094367856713,0.1654805311700563,stairs up
0.9468610099155899,0.52709960937,1.54943847656,0.04115716818193751,0.2025871618808915,0.36557178282660113,-0.01843261718,0.712890625,0.02749902422071647,0.16559522870740653,0.03514767764477528,-0.30651855468,0.3955078125,0.009884642431239817,0.09928180388023711,1.031430449564045,0.57198772257,1.67541418968,0.04602458450483248,0.21423188829884446,stairs up
0.9594049533838654,0.58850097656,1.32727050781,0.03681288317127558,0.19159792757613034,0.2887150954094958,0.00610351562,0.65051269531,0.019966897105842242,0.14110622743901977,0.01211983816955182,-0.22668457031,0.27600097656,0.008640806445773133,0.09282565650804264,1.013598708957675,0.60107949918,1.39839155771,0.040717535795075505,0.20150305474845895,stairs up
0.919198393482704,0.52563476562,1.31726074218,0.03723836459076691,0.19270046131004145,0.3314917336005916,0.07275390625,0.61840820312,0.013112056493759692,0.11434649589451674,-0.0017884160428169008,-0.21691894531,0.21398925781,0.008780566172560877,0.09357260380764444,0.9871276280169576,0.56509301105,1.38209436379,0.039470305518246554,0.19839133438494794,stairs up
-0.4675658837718767,-0.98083496093,1.02490234375,0.11813762503175357,0.3432298170534981,0.6541932691011764,0.01770019531,1.37927246093,0.0883055673321009,0.2967460409201088,0.07917439436753501,-1.03369140625,1.05224609375,0.2728388335364604,0.5216076869648146,1.042495785214762,0.54021976476,1.74027053076,0.04412089870620534,0.2097553592989875,stairs up
0.7948989010899157,-0.45581054687,1.23095703125,0.13938635689923928,0.37282009359589,0.36258448911146063,0.02673339843,0.99072265625,0.04914970799323128,0.22138574257553761,0.1478329776355337,-0.51770019531,1.13098144531,0.09220329758843014,0.3032231844062989,1.015863459525618,0.40688236244,1.3539713468,0.03310935107620489,0.1817040100852125,stairs up
0.9425571495343099,0.56652832031,1.31701660156,0.03567406892598081,0.1886095930513028,0.3110117737637465,-0.05151367187,0.63977050781,0.0205016997814982,0.14298233637239274,0.053007399866507036,-0.1552734375,0.27453613281,0.006400614560760237,0.07989107998136638,1.0057992634170705,0.64666811127,1.41085761531,0.038829420121222896,0.19677408740226468,stairs up
0.951854716492381,0.48901367187,1.29223632812,0.030498648129504244,0.1743938580988071,0.33597989976851544,0.06616210937,0.96166992187,0.02582101234782954,0.16046396661602674,0.015419155943137256,-0.330078125,0.2392578125,0.007325185519442391,0.08546734342716623,1.0231855665434173,0.49955510671,1.50404824911,0.03580580663888505,0.1889590174131558,stairs up
0.953281073180947,0.75524902343,1.23803710937,0.011266158369026407,0.10599422773098624,0.32190859483495815,-0.14819335937,0.98474121093,0.02281985606573196,0.150851884333783,-1.428120685237143e-05,-0.24243164062,0.26647949218,0.009672655451130555,0.09821258636846458,1.0207841189079387,0.77825851865,1.34149642423,0.014045634474034646,0.1183491028441847,Null
0.9273220868143944,0.57080078125,1.21899414062,0.006358895573711366,0.07963029066764474,0.3549557108238028,-0.18469238281,0.67224121093,0.010164647511230852,0.10067777660109535,0.04612676056290141,-0.2001953125,0.50134277343,0.016509608361318873,0.12830862177684282,1.0092577486227887,0.80288127845,1.23840551625,0.0023931257399843774,0.04885063500832733,Null
0.9012829658002234,0.53002929687,1.23608398437,0.021069856442215353,0.14495172332404813,0.3347191837210614,-0.0068359375,0.61657714843,0.015251195182998825,0.12332312872748445,-0.10346822898441344,-0.90856933593,0.44641113281,0.0814264481389583,0.28495438224354297,1.0206886550605585,0.69334765142,1.32914406444,0.010696735516125266,0.10328047427582274,Null
0.8224534514164088,0.35339355468,0.94519042968,0.017561599816849474,0.13233702093584052,0.4027237865772652,-0.05090332031,0.7333984375,0.029179562176313577,0.1705841600236219,-0.11900270577709947,-0.43005371093,0.95166015625,0.11976895804789031,0.3455981836940407,1.008943963877348,0.8950592465,1.08794442665,0.0008623793586803352,0.029325707071758158,Null
0.9403160942885834,0.71325683593,1.36779785156,0.017446341507281245,0.13190102140445614,0.30153842501827777,-0.15686035156,0.78259277343,0.022590015516992475,0.15009085739607766,-0.1212951660143611,-0.40991210937,0.533203125,0.04007945642983008,0.19992029563406985,1.0259195753527224,0.7526026311,1.37861531892,0.017262542181405723,0.13120438512239696,Null
0.705878473093199,0.25854492187,1.10034179687,0.06075181487982877,0.246147320825368,0.6269298266303763,0.14221191406,1.25073242187,0.0747113543319304,0.2729661469082198,-0.13042753486069894,-1.36437988281,0.22326660156,0.043721594436376694,0.20881585971505365,1.0355206255069087,0.79797140129,1.79174168886,0.014756554629201312,0.12131317517729034,Null
0.4495483052592634,0.189453125,0.671875,0.004360991875987002,0.06594420210566262,0.8072385274618697,0.72082519531,1.30895996093,0.00828219367391508,0.09087756251622194,-0.43986982393821533,-0.62719726562,-0.15502929687,0.0071638615808254594,0.08451962704238601,1.0309858177110764,0.8345051821,1.45348190211,0.004674767866700436,0.06827536084298294,Null
0.025836331318337836,-0.46057128906,0.64208984375,0.16898329797319794,0.41051535052856736,0.4024691464754768,0.05676269531,1.28723144531,0.08401910633871221,0.28946531993324576,-0.7781323840857493,-0.97705078125,-0.37170410156,0.026533510156324793,0.16266902521232574,1.0172167287838147,0.6047680769,1.59706960227,0.012216587660352208,0.11037798673447351,lift down
0.5248686691769827,0.47583007812,0.57019042968,0.00038394974001263496,0.019566462024648807,0.5926429485413506,0.57116699218,0.61352539062,8.721724129966313e-05,0.009325589367061736,-0.6427794708566954,-0.685546875,-0.59643554687,0.00041416309881564897,0.020321736514591404,1.0201509169263505,1.00128399105,1.03574543146,5.32783185623067e-05,0.007288704956694868,lift down
0.5555052038709863,0.53466796875,0.57873535156,0.0001422768130898381,0.01191163354044779,0.6012431105483561,0.58544921875,0.61376953125,3.0654484644153946e-05,0.0055290595723611,-0.6019708502747123,-0.6357421875,-0.57006835937,0.00026882499227814303,0.016373407875270918,1.0162939541488492,1.00295949146,1.02955768183,3.5455990972510734e-05,0.005946330908317849,lift down
0.5641682942672271,0.52111816406,0.603515625,0.0004417601480381826,0.020987067940944824,0.6263985872943066,0.58776855468,0.77734375,0.0014685591706844895,0.03826522099416934,-0.5852486489406784,-0.70275878906,-0.55297851562,0.00035457682553925957,0.01880241676491045,1.0270312729550735,0.99434700942,1.15234711856,0.000643914370315913,0.025338013298127814,lift down
0.8087370655840709,0.31384277343,1.19360351562,0.04243088256715788,0.2056835377997642,0.39324645095616517,-0.15075683593,1.0029296875,0.07190190795836797,0.267749524621225,-0.0018209721840118146,-0.53601074218,0.49060058593,0.10910153722441449,0.3298176826388704,1.0112118737707965,0.83003117148,1.30329945674,0.00895391689664559,0.09448547064198387,Null
0.25710305202761236,0.11157226562,0.43286132812,0.003901901395839402,0.06237740775841906,0.912160123328455,0.75402832031,1.00415039062,0.003215319189914252,0.056624088464512744,-0.3696892556144382,-0.5087890625,-0.19104003906,0.00988753249059133,0.09929631676412339,1.0250260495973316,0.90164212614,1.09299081612,0.00108986164352247,0.032966653369904744,Null
0.2514210896281024,0.01293945312,0.595703125,0.009189314728263856,0.0957164357330745,0.9491768342864458,0.74645996093,1.03466796875,0.0018984959409988932,0.04350606371220941,-0.2995355445179819,-0.39929199218,-0.19067382812,0.0017349022245298049,0.041589381041556454,1.0324404218169276,0.95650596216,1.10398783075,0.0007238153160732353,0.02686326766159614,Null
0.9038801394877645,0.59069824218,1.31713867187,0.03202398258161521,0.17868193358458415,0.43320725547217526,0.15942382812,0.73547363281,0.0156950937916705,0.12509067347281722,-0.06892067716,-0.31872558593,0.13134765625,0.00975552777212945,0.09862076291815056,1.015223064542719,0.65066651916,1.41247695739,0.037019081397274466,0.19211257447706845,stairs up
0.8735185411204722,0.40466308593,1.25439453125,0.03643371079013869,0.19061087596971968,0.46975267197949994,0.21472167968,0.92993164062,0.02434120132261085,0.15579982950726387,-0.07227613660855556,-0.43969726562,0.1455078125,0.012349261227923665,0.11097277920514005,1.009678919287139,0.63120415067,1.4441822891,0.042857748086131034,0.20673340026684556,stairs up
0.9031699575991464,0.58959960937,1.27392578125,0.03249999809676505,0.18000253536190522,0.43069718523341466,0.10522460937,0.77624511718,0.01827763211698948,0.13498854628755702,-0.030571169968323167,-0.22583007812,0.22326660156,0.011152495428696188,0.10544426925273297,1.0132153728473474,0.65294105914,1.4004552499,0.03740058278833431,0.19309727243360197,stairs up
0.923054329149944,0.6044921875,1.28344726562,0.028619920855463957,0.16893712738747052,0.3965585745983754,0.16821289062,0.6796875,0.013210424508696379,0.1147755222966811,-0.08595151927717087,-0.36828613281,0.04931640625,0.006439595673104214,0.08013462166870369,1.0161928501756303,0.69443714032,1.35759832758,0.032252827741828305,0.17933901886240222,stairs up
0.8667063993526469,0.51831054687,1.20227050781,0.029703577131984894,0.17209361891084746,0.48026841107141166,0.1728515625,0.86853027343,0.01968368546020594,0.14009208495727343,-0.11147819967520588,-0.28723144531,0.03015136718,0.0047812874207356516,0.06904509258936992,1.0077274172064412,0.69774155175,1.43141271903,0.03285643829745179,0.18099668978802896,stairs up
0.9489286576160059,0.54321289062,1.25451660156,0.026388565886279133,0.16221201149718303,0.33113817236482757,0.06726074218,0.7490234375,0.022987346451105277,0.15139779013530869,-0.04177505668465518,-0.267578125,0.17822265625,0.009101073660778664,0.09526238056157942,1.0206178286924712,0.63261816784,1.3412706101,0.028593603767932012,0.16885330390567796,stairs up
0.910563733990831,0.50341796875,1.22863769531,0.027669820981813826,0.16610399702336529,0.4156452167986819,0.10998535156,0.796875,0.018847896774807315,0.1370908142069427,-0.05942445771177651,-0.29248046875,0.15441894531,0.006242550085025943,0.07889653428403302,1.0130172180369053,0.60246447034,1.37692460916,0.031519484848042234,0.1772827434858676,stairs up
0.8966732849614697,0.59716796875,1.24780273437,0.024551828643172874,0.15646429015519456,0.4418853847677521,0.02294921875,0.8505859375,0.03136444135082106,0.17684471694616638,-0.10139821516729106,-0.33874511718,0.09716796875,0.007957414072282764,0.08907570961410306,1.022425432801556,0.72473813786,1.42536052087,0.027983760526599413,0.16704225717938342,stairs up
0.8931734793490286,0.60424804687,1.19189453125,0.023979058909346346,0.15463035702106653,0.43330217633568574,0.0634765625,0.73693847656,0.020295678849982932,0.1422592394051291,-0.22695765903668574,-0.55749511718,-0.03967285156,0.008228162439827354,0.0905795418639606,1.0306059506249143,0.73018840775,1.36444446594,0.027301690504973868,0.16499601714877743,stairs up
0.8570750998349441,-0.72888183593,1.48156738281,0.09351826823970821,0.30538016311926375,0.28679874355857543,0.07348632812,0.7392578125,0.01133435967868254,0.10631415454264022,-0.327804821159972,-0.48767089843,0.27783203125,0.026252895012608326,0.1618009978449903,1.022731828460475,0.57594447416,1.53136586218,0.008969007726005656,0.0945724834811846,Null
0.5170756906674783,-0.16296386718,0.96960449218,0.16381755416382568,0.40415680208737764,0.4601152060651014,0.16918945312,1.00634765625,0.05060774620701781,0.22463538698873153,-0.5316590239993043,-1.06774902343,-0.01733398437,0.08719365006635556,0.2948574483522028,1.0259706437169276,0.80454373232,1.34139311711,0.009892194401389786,0.09931526254377714,Null
0.7111171177418572,-0.40905761718,1.10815429687,0.10599449333242182,0.3251025252484216,0.3973447963134,-0.06323242187,1.16381835937,0.042433577663579455,0.20569963264491978,-0.34628104073488564,-1.03039550781,0.37280273437,0.13569018689836895,0.3678348823182596,1.0276741316498859,0.68746923247,1.48535107092,0.010703954786119152,0.10331201313573757,Null
0.6483696442923209,0.54565429687,0.75891113281,0.0019237901014113067,0.04379814846380061,0.4177452459001146,-0.09985351562,0.54821777343,0.00884914779381813,0.09393504175482408,-0.6457645449009741,-0.74279785156,-0.23303222656,0.00615728356575807,0.07835586078550759,1.0134311117059027,0.78972543118,1.06206836067,0.001750241208797405,0.041775904430749966,Null
0.5871754407155043,0.47448730468,0.70922851562,0.0023371935614373627,0.0482748188324557,0.5558360866541499,0.44750976562,0.65087890625,0.001365625870812899,0.03690108873151798,-0.6250379930620461,-0.73583984375,-0.56506347656,0.0018728836417437986,0.043214422159108985,1.0241372251498848,0.9603784377,1.09422153117,0.0012055370816139693,0.03467077892620747,lift up
0.5995389366647339,0.53271484375,0.64013671875,0.0006461776010990379,0.02538439638453993,0.5593791715866105,0.52880859375,0.58715820312,0.00012969433687360697,0.011372380903512565,-0.6040791316490757,-0.66540527343,-0.55480957031,0.0009623143288393281,0.03097771409409094,1.0192040867742855,0.98986057697,1.05161683989,0.00015882636549877476,0.012584970151679588,lift up
0.772112731029351,0.56433105468,1.12145996093,0.022227980091587458,0.14887044981721662,0.5017129453548673,0.17504882812,0.79541015625,0.01531505975517255,0.12357136637487327,-0.3161657102660177,-0.57971191406,0.05883789062,0.04861658378196309,0.22016623726265086,1.014598169282419,0.80634740344,1.20223015787,0.0043435384389619676,0.06580824903617265,Null
0.7553557067319608,0.55627441406,1.35009765625,0.024756616225441293,0.15712183158779838,0.5044297504124089,0.10595703125,0.66845703125,0.017021610884315953,0.1302840408569175,-0.3894986705591596,-0.65014648437,0.09619140625,0.04261313029755556,0.20614016053869308,1.0264564545389636,0.8567547212,1.43666019475,0.006822971118791431,0.08248550875683103,Null
0.7591320048986804,0.400390625,1.14477539062,0.029487153739101823,0.1714662682497393,0.5232395384632552,0.10876464843,0.84777832031,0.036960976886249976,0.19197027614895676,-0.2947976568195308,-0.62744140625,0.19384765625,0.040921719454697615,0.20199434252549867,1.0140131237680645,0.71631825654,1.32353387974,0.01584550902080062,0.12569423714876976,Null
0.977748476222069,0.57434082031,1.52233886718,0.058083879966444686,0.24065945289016114,0.24874632385583337,-0.16320800781,0.66174316406,0.014430922313078923,0.11995605089161865,0.020609888536149423,-0.29321289062,0.28393554687,0.015687830151284214,0.12507098056537785,1.0236801551587356,0.59834224002,1.52593927126,0.05715440164850345,0.23872612940806706,stairs down
0.9292381549665805,0.50341796875,1.42541503906,0.04883278050043428,0.22066367262994713,0.37690191158925285,0.10559082031,0.73583984375,0.018255872012945942,0.13492002301589595,-0.05983444739913794,-0.3818359375,0.14501953125,0.009555268513314046,0.09761050581352572,1.0170550890393677,0.52659272296,1.50082172297,0.051288767952013745,0.22614461398607366,stairs down
0.925343129823046,0.59643554687,1.46630859375,0.03581125927925677,0.18896654032338012,0.36291924837962647,0.00134277343,0.68469238281,0.0183448594648519,0.13524845415548067,-0.06974915252183908,-0.33654785156,0.14929199218,0.009890416444512067,0.09930758131986978,1.0105075025167243,0.67602523632,1.49012222967,0.035925297737303824,0.1892671765603222,stairs down
0.9828412512267048,0.53930664062,1.50402832031,0.06300609352461838,0.25065027489582,0.19533698401406877,-0.20056152343,0.58093261718,0.020005763260058665,0.14123894702298528,-0.057828449585988546,-0.357421875,0.1923828125,0.011232465448729842,0.10583137877764341,1.0197503953323208,0.61071363772,1.54591587464,0.06173790387246842,0.2481149016775059,stairs down
0.9208738870424861,0.59191894531,1.31433105468,0.024332868014403496,0.15577194583536322,0.39190912512720666,0.18762207031,0.68542480468,0.01433363420633185,0.11955582847338152,-0.052114135059273745,-0.275390625,0.14611816406,0.007929945135761549,0.08892578057585317,1.0128911182626537,0.68942808586,1.40614649603,0.024616286446598634,0.1566765006946867,stairs down
0.9587363535234971,0.49792480468,1.52612304687,0.06287894390011065,0.2503941150434175,0.3227454389418786,0.02038574218,0.7958984375,0.02310136471691184,0.15177153147696362,-0.022959802880809246,-0.43603515625,0.16955566406,0.0116525607431189,0.10779092179722749,1.0269024142531793,0.6241535654,1.66836425684,0.0668825938048087,0.2582426988524073,stairs down
-0.2698556082578857,-0.998046875,1.05737304687,0.48915092808207883,0.6983934091912983,0.3523109653980571,-0.17626953125,1.02478027343,0.059689340155313596,0.24396474987883243,-0.5081630161797143,-0.84509277343,0.19018554687,0.040741985592709445,0.20155788230577196,1.0146941037768,0.54051801196,1.28043903295,0.01350691671979951,0.11605311512049779,Null
0.5386640760599999,0.00231933593,1.20495605468,0.09375074845871517,0.30576188400943066,0.4458062065939167,0.02868652343,1.10681152343,0.05411045702747827,0.23229324183540498,0.3116475423166388,-0.70446777343,1.15759277343,0.2898382052992026,0.5376179862814966,0.9938642448695277,0.61823445863,1.39377794836,0.03484057253629638,0.18639687005993422,stairs up
0.9476304981768493,0.66064453125,1.26965332031,0.022823069529463464,0.1508659688990479,0.3267735311390411,-0.03649902343,0.69995117187,0.02457552690351557,0.15655093961015057,-0.00901748448142466,-0.27111816406,0.25939941406,0.007069281125826091,0.08396376142319183,1.016990208137041,0.7049217579,1.34437669511,0.02498383266286036,0.1578460763093267,stairs up
0.9078657171661235,0.55908203125,1.25024414062,0.027806516440169595,0.16651849221009038,0.4433086266639607,0.17028808593,0.79235839843,0.014411449200436195,0.11987897063938516,0.05395919285289325,-0.17883300781,0.31176757812,0.007418759842412742,0.08601116572499326,1.0210224380460113,0.61207424128,1.42159357534,0.030751150494256172,0.17511359415544056,stairs up
0.8934187147313611,0.46911621093,1.28662109375,0.032277498003186605,0.1794096939591367,0.39527350531255556,-0.01220703125,0.78308105468,0.026855611230918435,0.16364905227599869,0.01727464463986111,-0.14001464843,0.26745605468,0.0060260212819519,0.07751956097622378,0.9925350340903611,0.55767723067,1.35995397077,0.034685244117269524,0.18598090282860705,stairs up
0.9532335837869405,0.63488769531,1.30444335937,0.02916701894469044,0.17054146952779498,0.29471819393645887,-0.01574707031,0.63415527343,0.014027076443926917,0.11826808395954733,-0.005695116080424929,-0.18103027343,0.22045898437,0.007187495847270169,0.0846589314203326,1.0063818297326346,0.70106006038,1.32574216035,0.032008275686278904,0.17865497665706032,stairs up
0.8100490729414763,0.09265136718,1.29858398437,0.08858258696804892,0.297213456651839,0.4344642235335655,-0.08728027343,1.04614257812,0.044159794188479484,0.20984943746701984,-0.1546916483484401,-0.90234375,0.14587402343,0.055654300088764194,0.235582839322444,1.0127284314029248,0.53919613605,1.37848782337,0.031208122509075942,0.1764119945063488,stairs up
0.9505975273178371,0.63659667968,1.35363769531,0.028348168606111727,0.16813250405265456,0.325415450532191,-0.01879882812,0.70764160156,0.023342747429555787,0.15256860068278869,-0.010402722304241576,-0.36828613281,0.23767089843,0.008801153381806523,0.09368260799554201,1.018804899895309,0.70138158823,1.43973949384,0.033313389926523426,0.18226303242437172,stairs up
0.9261044784295493,0.63439941406,1.24279785156,0.02421751841430637,0.15540045061896032,0.3616826446926479,-0.02697753906,0.70593261718,0.015651492106990555,0.12492959375916508,-0.038067369056816895,-0.20324707031,0.15368652343,0.005715375219944453,0.07549354655490473,1.005411161123014,0.72516980566,1.33240096143,0.024606655659083054,0.15664399489319633,stairs up
-0.18797311065988442,-0.9912109375,0.93615722656,0.1538669016749219,0.39169145975749803,0.806446229787659,0.14953613281,1.18176269531,0.050860549381692544,0.22519669974098422,-0.005428953666734109,-0.76916503906,0.91760253906,0.16166657858200037,0.40149636876967093,1.0163225955054913,0.71252905677,1.34501070941,0.01819494116505673,0.1346935582346001,Null
0.6309241940030188,0.06921386718,1.19299316406,0.0560324634407502,0.236392539099668,0.5117194080581401,-0.31262207031,1.23059082031,0.15179432227632098,0.38908247603775886,-0.37804748041261454,-1.14807128906,0.32556152343,0.08450822711508622,0.2903109404351468,1.0329238568565229,0.69151689969,1.54770075788,0.027531551418257198,0.16570257205241204,Null
0.5768892671942042,-0.90002441406,1.19860839843,0.3302329835169959,0.5737955148620489,0.4948550845733633,-0.50109863281,1.28466796875,0.1269792065103307,0.3558059689941433,0.0642987958642943,-1.15966796875,0.64636230468,0.07791245552413938,0.2787086008472452,1.040147790212072,0.58127670534,1.52039700828,0.03352804044065266,0.1828314951930454,Null
0.3531860351528611,-0.23803710937,0.79907226562,0.04505328670483229,0.21196258793996584,0.8505910237598054,0.60192871093,1.16186523437,0.01955169200131393,0.13963302526893387,-0.30281982421625,-0.77355957031,0.62475585937,0.07443959199835896,0.2724569972562993,1.0283624376901948,0.76396416536,1.35166391091,0.021714857366037704,0.14715481071918346,Null
0.8206231910026204,0.3525390625,1.28283691406,0.038305216520015624,0.19542220795452805,0.4501272913889156,-0.32727050781,0.90319824218,0.07744829216626467,0.2778758970796353,-0.12519744505201807,-0.47436523437,0.3291015625,0.03174143275077293,0.1778927374167366,1.0084096807168073,0.57510778152,1.46174864766,0.021938074251187066,0.14789183788933688,Null
0.9941221400633429,0.66674804687,1.26721191406,0.015293177568466255,0.12348879615338994,0.3298388671844,-0.01245117187,0.62744140625,0.016842349101587047,0.1295925464837926,0.027749720981514285,-0.20556640625,0.3369140625,0.011348557884527976,0.10637731634812624,1.0607717027760857,0.70903982781,1.32087465315,0.01601154084510965,0.12635582133622572,Null
1.037057662212565,0.591796875,1.42797851562,0.02696933544456113,0.1639866275547095,0.3244558548686168,0.0888671875,0.65002441406,0.017559756556065925,0.1323221526061059,0.0016910432045244962,-0.70263671875,0.2080078125,0.02243466423267839,0.14956607577132325,1.1029009268,0.68346832214,1.51357880336,0.0312333886774774,0.17647486764929518,Null
0.15127439995069364,-0.89660644531,1.01989746093,0.40303234894136025,0.6339302134800936,0.006440796604132905,-0.87060546875,1.07543945312,0.26098133906523635,0.5101245512014279,-0.4763949179201156,-1.15148925781,0.25085449218,0.1511677968716471,0.38824077030190846,1.02085432250526,0.55322144416,1.60418518992,0.020619059669114558,0.14338572805935512,Null
-0.2132554408474857,-1.12536621093,0.52062988281,0.19081839619720636,0.43620316456841535,0.0991371372761714,-0.5439453125,1.04064941406,0.15592606685508814,0.3943102380194189,-0.7377193777864571,-1.16760253906,0.20007324218,0.10176016658421412,0.3185426553086986,1.013383293043057,0.58730455505,1.50785117025,0.019870196610404275,0.14076016702209768,Null
-0.8949002915498842,-0.98156738281,-0.41772460937,0.014917439838037623,0.12195983306804475,0.1766576794593913,-0.14953613281,0.91772460937,0.07613422092770689,0.27552412240395063,-0.3122402909835652,-0.42749023437,-0.20593261718,0.002935665221579817,0.05410319812196423,1.0111439059435943,0.86843135053,1.09791465514,0.0008538421754083405,0.029178198548780978,Null
-0.8485893401623363,-1.00463867187,-0.49230957031,0.013271354457427685,0.11503714326585282,0.19391547308900284,-0.31396484375,0.98864746093,0.14458770941849788,0.37970485725420183,-0.34559705250270656,-0.48120117187,-0.17822265625,0.004415701541343846,0.06635601852938595,1.017529875645641,0.80151376483,1.17534346683,0.0036000545235693733,0.05991492266518549,Null
-0.11575362393917406,-0.83728027343,0.79431152343,0.32945546340718745,0.5731349041738668,0.687084456809174,-0.83361816406,1.03894042968,0.1585417821743868,0.3975853459330663,-0.21991885024528027,-0.4892578125,0.03552246093,0.016644754566246128,0.12882412427513043,1.0160425562805309,0.73679369467,1.14846117942,0.004672941933200137,0.0682580210943862,Null
0.47113591974116475,-0.19677734375,0.74938964843,0.05995116729921693,0.244501230023544,0.5609807101140909,-0.49401855468,1.06579589843,0.19539535703341615,0.4414071324608365,-0.22354715520519888,-0.91845703125,0.50268554687,0.19168450543749757,0.4371955479913008,1.0136895535719033,0.68586495348,1.20486827983,0.004850065420088912,0.0695434168354236,Null
0.3159567269770029,-0.18603515625,0.67590332031,0.06943416883687253,0.26311239561747046,0.3839107705842137,-0.66772460937,1.12133789062,0.27841593648551755,0.5268678927744592,-0.20716201374593474,-0.986328125,0.79943847656,0.36892348617543314,0.6064888768393109,0.9979811832952227,0.62851177899,1.23971760714,0.00883868526823893,0.09387469156015472,Null
0.4974722848771549,0.33093261718,0.66345214843,0.004031509730592729,0.06340467936323343,0.7987971775932112,0.2587890625,0.94958496093,0.024098894740065064,0.15501938759242234,0.12192107724495775,-0.21813964843,0.85583496093,0.09178813220148699,0.302538549746325,1.0092303554906479,0.92112716148,1.13070742256,0.0014592924461474027,0.03814684473453222,Null
0.5136707618933131,0.23364257812,0.68200683593,0.006242565309714056,0.07888973917481631,0.7918307875386625,0.33850097656,0.95227050781,0.01449872625349094,0.12022752254260506,-0.2773767720572644,-0.82531738281,0.25964355468,0.04630368034450831,0.2148556251876319,1.0159353813002128,0.80053474539,1.13394577954,0.0025833686488930066,0.05074954644674046,Null
0.4705878933572269,-0.46313476562,0.95581054687,0.0813791310208264,0.28487045875778155,0.405313101800224,-0.40930175781,1.33557128906,0.1144511131374383,0.3378320911105281,-0.08463473279896361,-1.07263183593,1.29431152343,0.4489681071343552,0.6691117196618819,0.990590606820028,0.26759714212,1.75366271267,0.05477057596838312,0.23370313859270167,Null
0.5144333074104321,-0.76257324218,1.26110839843,0.3876907138366953,0.6216865267636267,0.33764987521401235,-0.91418457031,1.07019042968,0.09951680293050312,0.3149756376359518,-0.1391281316307098,-1.02673339843,0.67236328125,0.21710576475220297,0.46522648810161576,1.0388039310626234,0.67576369775,1.3755280716,0.02109668414422343,0.14502265658012226,Null
0.9571368243198919,0.6064453125,1.29797363281,0.026095675309257074,0.1613231119742918,0.32700459247978375,-0.04040527343,0.99169921875,0.030222535304130674,0.1736112115512177,0.0636369035044054,-0.53869628906,0.55627441406,0.036037871572961386,0.1895797244434686,1.0420354488941082,0.65165191786,1.53609843376,0.033451563493041535,0.18265035959991774,Null
0.935260973474766,0.67956542968,1.01708984375,0.0015695968582036637,0.03956017433867035,0.3408149585352046,0.17932128906,0.58020019531,0.004484593096572909,0.0668691277889976,-0.09103625559464912,-0.95959472656,0.08740234375,0.023530573734127022,0.15317235679766505,1.0132209470976317,0.94862156202,1.25961427001,0.0020430690803667616,0.04513419096612743,Null
0.7763911900860113,-0.49365234375,1.3583984375,0.17586182784857873,0.41876942814647733,0.2652032402096348,-0.39428710937,0.66320800781,0.02915812060323107,0.17051749402942773,-0.24982203794047753,-0.98864746093,0.18383789062,0.0733922946770374,0.2705293635558294,0.9987485699687078,0.61302991442,1.54140196334,0.015702678200328866,0.12513420616961105,Null
0.5080776753375141,-0.89147949218,1.01245117187,0.3403003015880021,0.58252811202639,0.47889080155073444,-0.1796875,1.25268554687,0.14379822532758832,0.3786713821396089,-0.1996056508173729,-0.56225585937,0.01879882812,0.011871317199127996,0.10880157354000068,1.0016035431398023,0.44124436574,1.51479388583,0.01873380189591089,0.1366780214649457,Null
0.1908349609348,-0.08288574218,0.44567871093,0.015869532262151532,0.12580625385668417,0.9753593749964,0.86254882812,1.13000488281,0.0016319706408029762,0.04034375687878074,-0.22957031249666665,-0.34643554687,-0.04455566406,0.004542338354065658,0.06730694950588795,1.0300834638694134,0.88764169528,1.14134237514,0.0013631713549932904,0.036871889446839785,Null
0.09629245333916667,-0.15441894531,0.34948730468,0.009938725908437172,0.09955459977554675,1.008604600690639,0.8212890625,1.24975585937,0.00531456405553549,0.07279973473580413,-0.17083706325658332,-0.31567382812,0.03649902343,0.007362993812527624,0.08568862848673253,1.0358066852302499,0.84007644978,1.27742788638,0.0054137891879345885,0.07347619263839662,Null
0.12434598100487805,0.00244140625,0.18920898437,0.0016016446207940585,0.03996628729900619,0.9871118230185095,0.92907714843,1.04614257812,0.0006494028854965215,0.0254488307408775,-0.232970695181626,-0.35034179687,-0.0458984375,0.005136538225820708,0.071572467248427,1.0252994002556097,0.97905518357,1.06799947056,0.0002564188605069145,0.015991371374773338,Null
0.1222823838018079,0.04309082031,0.17370605468,0.0011296233681403942,0.0335623649595305,0.9796218440996892,0.9140625,1.025390625,0.0007688692132938865,0.027689298769807764,-0.2346798309463277,-0.2802734375,-0.1484375,0.001175027076711283,0.034230217515871124,1.0159714685,0.95781767316,1.05141213066,0.0005549421045196157,0.023523912758212674,lift down
0.13985222429876032,0.115234375,0.16442871093,0.00020745546163310525,0.014383461300534662,1.0041554348488981,0.96545410156,1.06311035156,0.0005749129121269479,0.023944292221735778,-0.2107078194907989,-0.26623535156,-0.17883300781,0.0004968439802770286,0.022259273664653082,1.0359075149822867,1.01054462215,1.08668280486,0.00039140800194608846,0.01975676448681715,lift down
0.07262376806997127,-0.57873535156,0.23779296875,0.012675795305596286,0.11242495544336352,1.0004738993985633,-0.04028320312,1.32531738281,0.022781373881060725,0.15071798221516802,-0.15584695749905172,-0.80432128906,0.12316894531,0.015166456542782985,0.12297509817482694,1.0318109756767242,0.48883545513,1.55757920269,0.016401907159993904,0.12788578983947937,Null
-0.028301765907182315,-0.94702148437,0.34936523437,0.06568120600020498,0.2559292210839245,0.8463222440395027,-0.04028320312,1.01843261718,0.05251802310610008,0.22885136157384944,-0.4240786726263259,-0.51354980468,-0.1240234375,0.0062732542981919735,0.07909440477321397,1.0078995676351934,0.61350753885,1.09360800911,0.004994475105318049,0.07057392020259269,Null
0.43162051514867056,-1.02746582031,1.60473632812,0.5162479661291485,0.7174649259610302,0.34993924708436414,-0.48327636718,1.25500488281,0.060448065370975926,0.24550633388923052,-0.213138646471763,-1.091796875,0.357421875,0.12363114912506776,0.35110373633040237,1.0086593962000001,0.35234736675,1.67866779691,0.03519287797581138,0.18732635814441617,Null
0.9284064324311538,0.85192871093,1.03857421875,0.0008497906860029086,0.029111099192682458,0.3266521076546978,-0.06469726562,0.45178222656,0.004285645649733969,0.06537485677191947,0.13366263253032967,-0.1875,0.34387207031,0.004866325762178939,0.06966316627429281,0.9977919410316207,0.89391350551,1.09227768712,0.0008937851461427867,0.02985514515865887,Null
0.13741748580161203,0.12023925781,0.1513671875,4.840987710506483e-05,0.00694820909884558,0.8847682931995356,0.85021972656,0.91882324218,0.00021891968808764509,0.014775707998717419,-0.528199909811011,-0.57788085937,-0.49401855468,0.0005269188967343913,0.022923333693370837,1.039709506155246,1.00012923687,1.09106224744,0.0004912060688061136,0.022132870932663567,lift up
0.10627375421991893,-0.08459472656,0.29150390625,0.005996911392623543,0.07733500839849201,0.8684715477157297,0.68347167968,1.09716796875,0.007169365574620006,0.08455760705521896,-0.5423267261364324,-0.76257324218,-0.34020996093,0.009265792123149947,0.09612881691634423,1.0377965056715674,0.88875133452,1.25364813717,0.005018636485800839,0.07074653774854839,Null
0.26151658197220623,-0.11279296875,1.37902832031,0.12902820430291276,0.35868997195506863,0.8008130792176505,0.23889160156,1.12744140625,0.022344410302730773,0.14926615893913175,-0.44658496932856734,-0.69360351562,0.31018066406,0.07173655101649068,0.267452803611609,1.0569194629765615,0.78409143618,1.56268867784,0.014563507700266312,0.12050634195693387,Null
0.9617269764736958,0.02954101562,1.42028808593,0.06892111806557784,0.26217137986183864,0.2592836462900272,-0.11938476562,0.8623046875,0.031769254065226946,0.1779969791049401,0.03282828952834239,-0.58862304687,0.29772949218,0.022880667892430068,0.1510579099698573,1.0334650840520925,0.6355136865,1.63877126326,0.04854155871261929,0.22002193595883598,stairs down
0.9928768797381791,0.57897949218,1.58410644531,0.05351264394651452,0.23099346987709382,0.2805465080797688,0.01196289062,0.55224609375,0.010864158927819967,0.10408054392901861,-0.0012207031246820796,-0.37426757812,0.30578613281,0.01843999840129378,0.1355975796547507,1.0466513922604046,0.59873398988,1.6301161163,0.05155074788038937,0.22671955645594183,stairs down
0.9981392615446175,0.59350585937,1.43640136718,0.03177990780128209,0.1780254966348873,0.26086959421617484,0.01879882812,0.44689941406,0.010763605869810455,0.10360597043898254,0.020411757171174865,-0.1923828125,0.22875976562,0.010190427440540177,0.10080964607920813,1.0412510318294534,0.63048989072,1.47391158008,0.03302316968013196,0.181474357529015,stairs down
0.9650172183350877,0.63110351562,1.40795898437,0.0378286053430705,0.19421121333725047,0.23892122680994152,-0.02307128906,0.5654296875,0.012272360075460117,0.1106186059470658,-0.0014330769138304047,-0.31848144531,0.33203125,0.013483854674915356,0.11595011082037701,1.0077353767180117,0.67212407352,1.43491419649,0.036318141486887875,0.19029437219930437,stairs down
0.9863841572709017,0.61730957031,1.3212890625,0.02303613534069383,0.15156910991425704,0.26328365137969945,-0.33166503906,0.45495605468,0.010951988423299669,0.10450868364716033,0.012225375148879782,-0.17944335937,0.21728515625,0.010446651778824178,0.10206913840334482,1.0314635641859835,0.67939722505,1.34544622574,0.022880245736527076,0.1510553918399261,stairs down
0.9845754139420896,0.64050292968,1.36962890625,0.03289655212411217,0.1811031569604879,0.20979805561659706,-0.07897949218,0.44689941406,0.011367928506637256,0.10646123422021779,0.013225862873074626,-0.19250488281,0.19738769531,0.009599059901386849,0.09782845184931353,1.0174906363587164,0.67396590441,1.39238289297,0.032090243867796304,0.17886993066207807,stairs down
0.9904761936320109,0.62756347656,1.44104003906,0.03616977740314789,0.18992495877201707,0.26642542299690214,-0.11987304687,0.68701171875,0.01581366716664978,0.1255814287424748,0.01799641484785326,-0.1982421875,0.2275390625,0.010154975776275303,0.10063488825156507,1.0375428060990217,0.67138775079,1.49947670908,0.03792702112924879,0.19448382599031816,stairs down
0.9369689760255787,-0.18383789062,1.54760742187,0.08968668496133458,0.2990326944750526,0.3464869830263204,-0.3876953125,1.02795410156,0.059928133647274,0.2444387558418662,-0.0781659315874184,-1.10327148437,0.29089355468,0.054576447104115834,0.23326915610483162,1.0726112724505936,0.5043837776,1.68648467601,0.05733455162677177,0.23909081836427526,stairs down
0.8289764319255709,0.15234375,1.42883300781,0.09252017648096862,0.30374736231273,0.3734827918227854,0.09692382812,0.98706054687,0.022056561522834934,0.14830752722906274,-0.2925239924237883,-1.10620117187,0.23779296875,0.11068821787234086,0.33223469738375755,1.0470994165020613,0.63080450238,1.48018695897,0.04059497339141261,0.20120113188325325,stairs down
0.9769113714003125,0.48815917968,1.32153320312,0.03082468302910109,0.17532002996480273,0.32616632634542614,0.09985351562,0.54333496093,0.009073554929251866,0.09511980753011694,0.0025100708013352287,-0.36352539062,0.28051757812,0.01720520975441072,0.13098217938944373,1.043220779282642,0.66153205751,1.41088546644,0.029461926807084995,0.17140078223678867,stairs down
0.31196234199384826,-0.89184570312,1.57238769531,0.4323242812780897,0.6565895881214959,0.2734532731286236,-0.29077148437,1.41040039062,0.09813791706637154,0.31282942438332956,-0.4971083737463764,-1.34704589843,0.78125,0.24116808420954322,0.4903984561259878,1.0692271689835113,0.68573386747,1.74597927546,0.0455579452807681,0.21314308228127285,stairs down
0.9622137519714045,0.60791015625,1.45190429687,0.04189874522616766,0.20440413919879358,0.3466111086696348,0.06665039062,0.94152832031,0.025501032011672944,0.1594659835177415,-0.10270433747255618,-0.380859375,0.28967285156,0.024481502275393217,0.15624574877600572,1.0526932467717696,0.71708013566,1.55170636484,0.0401155444183142,0.20000715063412008,stairs down
0.9738728034227198,0.61450195312,1.28845214843,0.02089956638124204,0.1443619091407319,0.3072959316309632,0.03479003906,0.51257324218,0.010557696143777395,0.10260500794853031,0.02311486090206799,-0.21765136718,0.34899902343,0.014203253160084684,0.11900847581344176,1.0335389440615015,0.66630875521,1.36489615664,0.020780609109234533,0.14395047943021427,stairs down
0.8927353160975697,0.57824707031,1.34350585937,0.03775976407780083,0.1940471331312735,0.42947711624491614,0.17810058593,0.7724609375,0.01711122210057254,0.13062704693437116,-0.10127744194905028,-0.31127929687,0.18408203125,0.009311418313346972,0.09636082588368401,1.01317073247,0.7068761687,1.36331349419,0.029253964114175274,0.1707988557649498,stairs down
0.5864575668677009,0.25549316406,0.80139160156,0.011393717987728294,0.10659341650428472,0.6507815205124653,0.27404785156,1.52844238281,0.017660886059155747,0.13271007473853758,0.5173410854144875,0.34790039062,0.93786621093,0.02314220707364363,0.15191478281218893,1.0375602095818004,0.83746059204,1.82480393852,0.010453163375103203,0.10209900706603484,Null
0.8230342025941935,0.51196289062,1.12768554687,0.022320095804042286,0.14917989468302179,0.5206288088767449,-0.01110839843,0.9453125,0.02768918034668905,0.16615649371698776,0.1204400831648094,-0.345703125,0.69604492187,0.05827134313077767,0.241040368873311,1.0306846942870969,0.77863731294,1.2842464067,0.008622897767790539,0.09272330169683571,Null
0.8700822141836089,0.77917480468,1.06579589843,0.0025252769090213646,0.05018286782679505,0.42780331277644623,0.25122070312,0.62927246093,0.005934851078615205,0.07693179854005755,-0.28748163900716256,-0.392578125,-0.05786132812,0.006608913909163562,0.08118317273153441,1.0182790418564187,0.94840821247,1.12061438463,0.0008420686772173961,0.02897842177889109,Null
0.9091145596039648,0.39367675781,1.85876464843,0.042271611432763916,0.2053006833478781,0.3453799767641691,-0.5654296875,0.57104492187,0.03694745028168568,0.19193679107389733,-0.260793435674898,-1.04064941406,0.20776367187,0.06417510373229271,0.2529585031274928,1.060372462520758,0.67131581434,1.92142465789,0.03247084148562425,0.17993380535430611,Null
0.8784109262281868,0.81848144531,0.96179199218,0.0006365072377407829,0.025194415878985035,0.41888662484609884,0.25634765625,0.53796386718,0.0019084768052777751,0.04362606717469966,-0.26843664148030216,-0.33557128906,-0.18676757812,0.0018947298370707308,0.04346866153127488,1.0116399536537637,0.97478736521,1.0514196775,0.0001407285853933596,0.011846601554898379,Null
0.9634004480658822,0.70520019531,1.32849121093,0.020245626586976893,0.14207772741153682,0.3818549661042059,0.14990234375,0.65600585937,0.01432348127279715,0.11950461659158063,-0.047635426239617654,-0.42175292968,0.23547363281,0.015077022240632,0.12260782217122738,1.052939272978588,0.77712980038,1.40937603423,0.01689104074497282,0.1297742702286164,Null
0.9398487665844657,0.71655273437,1.2080078125,0.006404830563902092,0.07992047974646486,0.35862652503887665,0.14282226562,0.51049804687,0.006285449702271548,0.07917214972531905,-0.047775310358082204,-0.19616699218,0.23669433593,0.016296065343325453,0.1274810518820745,1.018357006034356,0.80111324592,1.23988023042,0.005240682973107124,0.0722933256778547,Null
0.9056792288076363,0.86169433593,0.98620605468,0.00026777080064386974,0.016338891454907578,0.3956143465871515,0.14514160156,0.43444824218,0.0029270306843109527,0.054020004575698576,-0.10600992838236363,-0.18701171875,0.39465332031,0.023134167841807975,0.15186857575842805,1.0070356754951515,0.95465925115,1.03365603004,0.00013241574763587737,0.011489755776105797,Null
0.9694613070068109,0.89953613281,1.03845214843,0.0011212522473564377,0.0334398241005705,0.1573466532901081,0.05126953125,0.39379882812,0.004153131869378781,0.06435765058367754,0.19959980732321622,0.14404296875,0.279296875,0.0010253928996036582,0.031978454738191574,1.005120832474081,0.96479652845,1.05725298499,0.0004694095608159427,0.02163656364414763,lift up
0.9686265425207954,0.93872070312,1.02087402343,0.00019939723324993144,0.0141007362870628,0.06472154096784091,-0.02087402343,0.16674804687,0.0014204432175382916,0.0376351945323585,0.19732527299002844,0.04455566406,0.29504394531,0.0023693570534862435,0.0486068506024962,0.9925720146026987,0.96465646416,1.03666989485,0.00010507479311775413,0.01023602877989118,lift up
0.9541888029638588,0.90856933593,1.00952148437,0.0006222787865193266,0.024911599939705976,0.13193910017877716,0.07653808593,0.228515625,0.0010363064187062405,0.032147945014501446,0.20228742516173912,0.10498046875,0.38330078125,0.004606700476736545,0.06778039737947342,0.9870892360900001,0.93456264321,1.06883296895,0.000709428475939248,0.02659888496098425,lift up
0.9598927320204298,0.73693847656,1.29748535156,0.00952219980401385,0.09744185735035912,0.2812954703131805,0.03088378906,0.62145996093,0.01581952179533968,0.12559535681170553,0.06472629667277936,-0.255859375,0.45263671875,0.02654397193207349,0.1626896269155077,1.0233798567329515,0.81511067071,1.34707719276,0.009118277036629707,0.09535276696735082,Null
0.9659353595853699,0.75354003906,1.24584960937,0.005813027958937,0.07613870142667205,0.27745679045016436,-0.05078125,0.47229003906,0.011777013826902407,0.10837318873040427,-0.004191861085972603,-0.2099609375,0.27209472656,0.007010565594333258,0.08361434425568191,1.0141879627624382,0.79379096413,1.32379173888,0.006003393460397024,0.07737535658774612,Null
0.894397474311452,0.50256347656,1.33740234375,0.04412242555871198,0.20976544567925595,0.4104141026287945,0.19714355468,0.66003417968,0.01076817383132967,0.10362756382940033,-0.23662945472690408,-0.42797851562,-0.0595703125,0.006985087597961505,0.08346226914999208,1.0220367832534796,0.70018075584,1.45148819855,0.041641140087567134,0.20378188038257652,stairs down
0.7740940793704437,-0.89379882812,1.43603515625,0.2892087337818922,0.5369851828873173,0.3775385568802367,-0.08569335937,0.97937011718,0.04353767540206156,0.20834794386199953,-0.054320927907810665,-0.583984375,0.26000976562,0.03478824115018231,0.1862399456609595,1.0345121565318935,0.46949241972,1.49849287453,0.041061119156599456,0.20233545550778892,stairs down
0.9490471198023434,0.57580566406,1.3388671875,0.04201613270940721,0.20469891874208135,0.3203640555776022,0.12963867187,0.53125,0.00724301798809286,0.08498989495378903,-0.06358000627806538,-0.27380371093,0.12072753906,0.009514729322048334,0.09741049034407294,1.0120756726159674,0.67524768735,1.36756340853,0.041796433755987475,0.20416304027788168,stairs down
0.9535784514014947,0.75207519531,1.23449707031,0.007565258270466148,0.08686023545574141,0.31433835236625,-0.24877929687,0.53540039062,0.015749390860996068,0.12532594944073483,-0.06324170983165761,-0.33837890625,0.11828613281,0.009295392745393073,0.09628153263204862,1.0185848883894837,0.80779838143,1.2781717026,0.00704787514683245,0.0838374815473027,Null
0.9219846141544606,0.42199707031,1.49206542968,0.030759682494440832,0.17512853599519831,0.27014800758154517,-0.34008789062,0.52062988281,0.026632343077737444,0.16295612220055433,-0.16534156910355685,-1.0546875,0.19226074218,0.07600981674907877,0.2752965923959026,1.034551196029417,0.66668101881,1.54127878279,0.013128422958783062,0.11441218323757721,Null
0.9527522740700841,0.8681640625,1.212890625,0.0020029761416061644,0.044691719637196134,0.3165358639804494,0.15222167968,0.81689453125,0.007876819147286052,0.08862670732236931,-0.09084500087477528,-0.32165527343,0.24133300781,0.011107776426432701,0.10524530776836243,1.015958184317809,0.92551159854,1.46331545132,0.004956170522879347,0.07030112869341351,Null
-0.32510831590791545,-0.44885253906,0.92028808593,0.035320513694770274,0.18767263862906672,0.5070714816206479,-0.02514648437,0.68469238281,0.022425213828310673,0.14953944032225377,-0.7780441928880282,-0.92260742187,-0.13647460937,0.013868922089300193,0.11760040264868632,1.0164156753355493,0.48099069235,1.10814608083,0.006500073839027014,0.08050940176075602,Null
-0.3762647172064225,-0.54724121093,-0.1630859375,0.007028654463870765,0.08371890728629927,0.4800282652920845,-0.27673339843,0.7998046875,0.0722631355186919,0.2684391502565716,-0.7731730716289578,-0.99865722656,-0.53259277343,0.009636069471931671,0.09802512746364708,1.0284474471591551,0.95378307387,1.17781722629,0.0008326619652256732,0.028815211929865546,Null
-0.32366823008,-0.54956054687,-0.08081054687,0.012027848520976731,0.10951697246334634,0.7467563682844788,0.61340332031,0.96069335937,0.006958585797306638,0.08330056510716707,-0.6255563655334366,-0.85754394531,-0.36938476562,0.007100993949134426,0.08414862535584114,1.0376645992351832,0.87881046197,1.19156084152,0.003001540288815148,0.05470909655393757,Null
-0.3517915107800282,-0.37902832031,-0.23156738281,0.0006353363708783598,0.025170353413498044,0.7565103020428732,0.7197265625,0.85217285156,0.0010259964193651747,0.03198603271126946,-0.6070346885961128,-0.66369628906,-0.50512695312,0.0012905735130307248,0.03587391942183289,1.0331690529099438,1.00735655532,1.05418958566,6.169027440766548e-05,0.007843245437113315,Null
-0.35612883390814815,-0.36987304687,-0.33984375,4.738793801613628e-05,0.006874076639500024,0.8362578041495158,0.81811523437,0.85595703125,6.728224920501185e-05,0.008190882851398832,-0.5081908831866382,-0.58276367187,-0.4775390625,0.0008250297610151876,0.028682385690098084,1.0416915796846153,1.01890987885,1.0760551777,0.0002291635412625873,0.015116568846158264,lift up
-0.3531205116171309,-0.37329101562,-0.26623535156,0.0005927459185816495,0.02431244158336169,0.8285299742086629,0.72961425781,0.85229492187,0.000773335127508389,0.0277701456723396,-0.5045774667010027,-0.6748046875,-0.46765136718,0.0025044347383214108,0.0499745795078762,1.0341978006836212,1.01857086051,1.04396937086,3.4595096111129265e-05,0.005873562031757499,lift up
-0.32529162808962425,-0.34643554687,-0.27172851562,0.00026073177649062104,0.01612384000301914,0.6831015878976878,0.63012695312,0.76428222656,0.0014416279417277837,0.03791386800344836,-0.6780102680145953,-0.71057128906,-0.62976074218,0.0004598507237481463,0.021413119235964062,1.0167488030224279,0.96749053115,1.04836524396,0.0005196810292984793,0.022763546758045178,lift up
-0.3435376449929086,-0.53698730468,-0.24670410156,0.0038779468802384804,0.06218685267090759,0.7853611658116898,0.64453125,0.96203613281,0.004135601583738423,0.0642195112381951,-0.5706733006149031,-0.71569824218,-0.39611816406,0.004398738894666938,0.06623106538764525,1.034200561704072,0.88487317945,1.20876281261,0.003294518882716279,0.057318346030118685,Null
-0.3749462605881632,-0.63293457031,-0.25219726562,0.007831620478351366,0.08836734558413811,0.7852996737157726,0.68225097656,0.94836425781,0.003353254989553829,0.05782282192992633,-0.5383610405617201,-0.68933105468,-0.36743164062,0.006731158849352099,0.08192395546803703,1.0309744107104664,0.88522550912,1.18791383509,0.0020352680956459692,0.04504813391717348,Null
-0.3519865514122865,-0.57238769531,-0.14880371093,0.009864863955063741,0.09918511995911097,0.5821637450461433,0.05285644531,0.91223144531,0.06851400090673583,0.2613910042495438,-0.7166549640539945,-0.97082519531,-0.41796875,0.020150660373829656,0.1417573592895435,1.0345411195063914,0.8479088877,1.22566760273,0.00421526094173441,0.06483555083932521,Null
-0.29297942669956273,-0.470703125,-0.25170898437,0.0019934860314997273,0.04458333902784142,0.6756677210460933,0.11950683593,0.80017089843,0.03758526904203346,0.19358639156247304,-0.6870839644417492,-0.96789550781,-0.60363769531,0.01156258124951339,0.10737258076482048,1.032097673123061,0.98189809802,1.08766517837,0.00022867148755517097,0.015099828039863096,Null
-0.23406512920285713,-0.31030273437,-0.20129394531,0.0003557334286638549,0.018834971171325654,0.685202126971044,0.42028808593,0.76916503906,0.003469126478455437,0.058818329721328645,-0.7117219023614286,-0.87243652343,-0.64990234375,0.0018526968794005533,0.04298379988796702,1.0179199907109615,0.97498445039,1.07381349722,0.0003382867914090387,0.01836729245403309,lift down
-0.30197247591517046,-0.3662109375,-0.2041015625,0.0015551568637930543,0.0393794210790473,0.260955116962017,0.02575683593,0.78527832031,0.04855837989195029,0.22004642680369849,-0.9268757213211931,-1.04956054687,-0.65612792968,0.011438549566396531,0.10679912774431513,1.038759487459034,0.9602878592,1.10881460838,0.0007416085503774606,0.02719378068428142,lift down
-0.20771370352876375,-0.45520019531,-0.07641601562,0.005557633054152642,0.07444706059661724,0.6913857931585713,0.16821289062,1.02783203125,0.042473131663487006,0.20580682018786467,-0.6844754061823077,-0.97302246093,-0.35961914062,0.022851810597019177,0.15096036200796822,1.028985367490577,0.90912557537,1.16744734694,0.00154708597563843,0.039278947789389944,Null
0.25323592169277453,-0.39074707031,0.74255371093,0.15840795707076846,0.3974294032972976,0.7180196949471964,0.39904785156,1.04504394531,0.01868941437926285,0.1365115333250926,-0.5333329570052601,-0.94580078125,-0.02502441406,0.02911450805017902,0.1703829864545031,1.0314863831228325,0.74211002748,1.2132141247,0.005793233688978103,0.07600322518821132,Null
1.1207233657144444,0.58972167968,1.45556640625,0.021539126106444633,0.14655292926039498,0.37292306579068374,-0.04895019531,0.74291992187,0.0306996454052672,0.1749633733901019,-0.010917120169344725,-0.23327636718,0.90185546875,0.03050537425096054,0.17440889986697827,1.2077268269870085,0.79165236665,1.53508396803,0.019170594882163647,0.1382605431883127,stairs up
1.072834162418895,0.65844726562,1.34338378906,0.013086710012636355,0.11423904271309683,0.4140456394560221,0.14501953125,0.72229003906,0.024618625933558836,0.15668637043341943,-0.022066738064696133,-0.19421386718,0.1552734375,0.005228419794230441,0.07220787107807289,1.1615545751969336,0.79165236665,1.47032127641,0.01775245513929329,0.13305418147495132,stairs up
1.0561916307438506,0.68542480468,1.4169921875,0.02175497991352821,0.14728362299805048,0.34465254860002875,0.12658691406,0.56042480468,0.011333961955127826,0.10630801051160223,-0.08514544607382184,-0.32763671875,0.21228027343,0.012240201017668406,0.1104763686325647,1.124855940274885,0.70733895113,1.47855934975,0.021535771854356275,0.1465397128851969,stairs up
1.0193905817139612,0.61193847656,1.50769042968,0.032349770045075686,0.1796111313190368,0.33563587473664824,0.11608886718,0.75146484375,0.012907259909087632,0.11345265852554527,-0.14727056191252078,-0.49597167968,0.09948730468,0.008818727854454698,0.09377792515000312,1.0921855918731025,0.70067029136,1.62544334764,0.034649796089513796,0.18588656023193662,stairs up
1.0725257179915626,0.62524414062,1.4365234375,0.026670183211159337,0.16307794346636378,0.35982617464616484,0.10302734375,0.65808105468,0.018182652138921764,0.13465139017909716,-0.12547302245877842,-0.33215332031,0.17846679687,0.011123951025237364,0.105320220715886,1.1504459187024147,0.65398048608,1.47557976732,0.027900984795458307,0.16679844314053885,stairs up
0.9876356336767776,0.34130859375,1.40124511718,0.050028385805246836,0.22335939216182274,0.4116970486077777,0.21728515625,1.81884765625,0.057880545833994525,0.2402493840575064,-0.06493360731177777,-0.40588378906,0.82360839843,0.03963360453990546,0.1988052091720971,1.1196854690566944,0.56461189439,1.96435022317,0.04269070958750994,0.2063301342099602,stairs up
0.9320610894062222,0.80773925781,1.09448242187,0.002327966112627358,0.048181942053971645,0.3741190592404722,0.16137695312,0.57312011718,0.003583152608767163,0.05977624450462025,-0.1263563368020278,-0.45910644531,0.13635253906,0.006689848655517515,0.0816778167104479,1.0173390618736389,0.92095854028,1.23962951688,0.0022623509073549644,0.047498069426861744,Null
0.3164905771222006,-1.271484375,1.44714355468,0.6647196844369562,0.814167118945631,0.46418035395259055,0.01806640625,1.40295410156,0.07112045578634998,0.2663125018979919,-0.21773331410688027,-0.46728515625,0.0888671875,0.01553841239953389,0.12447943570622948,1.0298197393701114,0.51489511039,1.55891505015,0.051939040024421686,0.22758374949172053,stairs down
1.0048963758645584,0.60498046875,1.43359375,0.027952934106328948,0.1669529757668968,0.43047382756512814,0.1044921875,0.76904296875,0.01212952343707393,0.10997711757563325,-0.08185214398407407,-0.41455078125,0.20947265625,0.020447911337174923,0.14279234986342634,1.1099883095949288,0.74649967515,1.4996763814,0.030194109271902105,0.17351681811445066,stairs down
0.9499987758933705,0.64599609375,1.41467285156,0.03821472887738209,0.19521342465269062,0.2881634640451532,-0.0302734375,0.53125,0.01351271807793907,0.11608220447042523,-0.12843293001128134,-0.36547851562,0.08679199218,0.01229177884059354,0.11071377467288751,1.0134942404321727,0.72071809417,1.46258832611,0.03755653103165163,0.19352497704194246,stairs down
0.9802035021127955,0.60900878906,1.39111328125,0.03516327514916969,0.18724833794264897,0.38705435540870314,0.08349609375,0.603515625,0.010661904487460159,0.10310760659586941,-0.09291274540504323,-0.38317871093,0.19299316406,0.01613925044529665,0.12685716234055117,1.0707207188040346,0.70959032714,1.46695460501,0.034685717254864114,0.18597246682106716,stairs down
0.9491527844233982,0.60168457031,1.46105957031,0.04087124520019825,0.20188461486832512,0.3115424791050139,-0.00219726562,0.59533691406,0.012350191003738254,0.11097652615525631,-0.06766095599590528,-0.27038574218,0.21691894531,0.012947448144472325,0.11362826597861407,1.0130972103136213,0.67125755593,1.51744121194,0.042242499908759674,0.20524335014342024,stairs down
0.9748409955888888,0.62292480468,1.37170410156,0.042710449623540724,0.2063704616239472,0.33210045795122506,0.0458984375,0.69091796875,0.015812244252578996,0.12556749230455416,-0.10671066762119658,-0.40673828125,0.21557617187,0.014065941077847565,0.11843085396822431,1.0481601772024787,0.68368027275,1.48949912195,0.044138032745146535,0.20979104691122125,stairs down
0.956784742356482,0.80493164062,1.28747558593,0.00915264027248538,0.09553683424901292,0.3680501076618006,-0.09265136718,0.59753417968,0.010645460022827794,0.10303383528676535,-0.10870986895903047,-0.36169433593,0.17626953125,0.009158076896215542,0.09556520424377277,1.0395563101822438,0.87692886862,1.38120222354,0.010944722492597472,0.10447202832222247,Null
0.8936070033441427,0.40246582031,1.35119628906,0.03006147209908882,0.17313457822978548,0.22390729631419998,-0.39880371093,0.47680664062,0.04060100848805112,0.2012088606564251,-0.3050299944158285,-0.87438964843,-0.09313964843,0.04131374885114649,0.2029672623077787,1.0199993443616286,0.67050832542,1.53438061734,0.01300604625085611,0.11388101737651805,Null
0.6168897840679166,0.01452636718,1.31860351562,0.17357249639588498,0.41604128469727986,0.5499504937033611,-0.02478027343,1.03430175781,0.07719149689101734,0.277447429374143,0.13734605577366668,-0.35815429687,0.78625488281,0.13699785294107894,0.36961778007771207,1.0370994683134167,0.66425196244,1.35610112216,0.013397797185304375,0.11558797983359628,Null
0.11797534459933909,-0.00561523437,0.16442871093,0.0017978572305917637,0.042340181555846186,0.8780717520842529,0.72595214843,0.98095703125,0.005253957725753282,0.0723799706139867,0.4958162855791954,0.29187011718,0.72985839843,0.014023893550540291,0.11825225158894367,1.0254433714618103,0.98552089933,1.07001461283,0.00024371115824433143,0.01558880491968801,Null
0.4686866782204035,0.39880371093,0.58117675781,0.0011814987137559073,0.0343233713135411,0.8862881619197696,0.81176757812,0.97326660156,0.0009000497096045209,0.029957568432815326,0.09941694715645533,-0.14611816406,0.25988769531,0.00958401786096341,0.09775683205254304,1.0130000418621037,0.94582128625,1.10177385047,0.0005220051460976823,0.02281448681213012,lift down
0.5207570535518942,0.44409179687,0.58178710937,0.0009172016171074704,0.030243127119251114,0.819344778242869,0.75732421875,0.89428710937,0.0008326822201612638,0.02881601587798068,0.30527268943272984,0.060546875,0.53454589843,0.016973435826365,0.13010056133941908,1.0265351985186908,0.97714550163,1.08601517022,0.0006035222679912827,0.024532450906251297,lift down
0.6019722564837134,0.40844726562,0.87377929687,0.008658044083039735,0.09291247582896645,0.762260927788187,0.13403320312,1.07775878906,0.018939153379443553,0.13741825110946213,0.2347990337138012,-0.23071289062,0.52355957031,0.017390971888862645,0.13168189356880455,1.0147195186272224,0.62263935836,1.28876737626,0.013784133842174329,0.11723407933385108,Null
0.6651701874751648,0.44689941406,0.873046875,0.0040745708484800905,0.0637446230871493,0.7497518350753296,0.37231445312,0.986328125,0.007555014240137411,0.08680010775633093,0.09295117723766484,-0.07006835937,0.44323730468,0.009042103029916272,0.09495926541168266,1.0159883955932143,0.88709107535,1.30225255883,0.002548774142318083,0.05041598968138454,Null
0.7011602145485074,0.52600097656,0.99890136718,0.007836578087887302,0.08839222430437928,0.7303124271183582,0.23950195312,1.0087890625,0.017540867440354366,0.13224411760840232,0.043861867419462686,-0.20227050781,0.28967285156,0.01253989653173142,0.11181441769633747,1.0279060761013734,0.76131056583,1.32289771632,0.008143314162579861,0.0901055257023372,Null
0.31360668140252745,-0.75512695312,0.84509277343,0.2058412225933921,0.45307364161814195,0.7467648013575274,-0.34484863281,1.33203125,0.11168157278411575,0.3337285652689429,-0.25446395035219777,-0.81567382812,-0.02575683593,0.018850638160575722,0.13710890085294103,1.0188599011542032,0.45267092216,1.562206565,0.018182505652493856,0.13465717104516975,Null
0.04049507993068121,0.02978515625,0.06103515625,3.5938236331218274e-05,0.005986677875211087,1.0039062499963487,0.97912597656,1.0390625,0.0002614415245727756,0.016147109643723213,-0.2512107246218256,-0.27941894531,-0.23620605468,8.107141831276627e-05,0.008991691457428492,1.0357230943037874,1.01181132213,1.06677235617,0.00023015747964353841,0.015150258992717486,lift up
-0.008651229355915916,-0.29992675781,0.05944824218,0.011420091745671122,0.10670425097372785,0.8216387774452854,0.1064453125,1.02685546875,0.10464642030454949,0.32300490211469146,-0.415576465133033,-1.01611328125,-0.24182128906,0.08287293984957086,0.2874440330957227,1.022666387524084,0.91895210677,1.07175372191,0.0003655163478304547,0.019089753826078353,lift up
0.20508052525758427,-0.74072265625,1.27380371093,0.24104858144911565,0.49027694081226797,0.43599366605634826,-0.01196289062,0.9033203125,0.05334489848707806,0.2306405282395285,-0.6356461771382865,-1.03942871093,0.13427734375,0.09095558162149445,0.3011645537155601,0.9989743664358147,0.23070617343,1.59705439379,0.022522985980484196,0.14986567040497392,lift up
0.8796638445624295,0.7080078125,1.07958984375,0.005489053872540888,0.0739834310548048,0.3091744460591525,0.11462402343,0.65112304687,0.01193428466345869,0.10908974284926079,-0.3197869769559605,-0.57470703125,0.13037109375,0.039009883832934036,0.19723003427717747,1.0119253238904238,0.74648615119,1.20107791191,0.0039531405793583356,0.06278513769655075,Null
0.2845890023616666,-0.50561523437,1.37963867187,0.35489256949166664,0.5948865842401574,0.630494543384548,-0.11120605468,1.01721191406,0.09973521112498943,0.31536244741639036,-0.3136038052805084,-1.06530761718,0.1044921875,0.0578758156143998,0.2402338956305695,1.03469212408435,0.69229440703,1.67264805506,0.017378763057339677,0.1316422064017853,Null
-0.19207935118758424,-0.896484375,0.29821777343,0.07230702474540804,0.26852172188733014,0.8764593574410954,-0.33679199218,1.39196777343,0.15009940632831667,0.38688212517826487,-0.04804426900401685,-0.52709960937,0.30151367187,0.03242837932639498,0.17982571666263686,1.0229860051433988,0.6669995711,1.42524787123,0.01504460988401461,0.12248407955277688,Null
0.043626747237037036,-0.13195800781,0.14440917968,0.00320894716136256,0.056566817673946786,0.9610425291541309,0.66674804687,1.18322753906,0.005462724062334425,0.07380488294088351,-0.32785164596321936,-0.58825683593,-0.05969238281,0.019870117302489304,0.14076046064745773,1.029375298688718,0.89181784171,1.24921900073,0.0018449613168470057,0.042891782625568364,Null
0.002793978045642458,-0.04187011718,0.03271484375,0.00011955771500107158,0.010918963087367922,0.912060274088771,0.876953125,0.95227050781,0.0005344146639603584,0.023085100943452848,-0.44200466731013965,-0.48022460937,-0.40588378906,0.0003407433745297445,0.018433436396781435,1.0138405468731004,0.980061245,1.04187676059,0.000350136577603395,0.01868578450240783,lift down
-0.00478614409982659,-0.01684570312,0.02026367187,5.0191128452720304e-05,0.0070743245181309035,0.9226374102427168,0.88696289062,0.9345703125,6.864606982033688e-05,0.008273310750516589,-0.4377706009490174,-0.45874023437,-0.42114257812,6.260978754979192e-05,0.007901191961127412,1.0212848826580925,0.99117269959,1.03117267723,5.443539744069143e-05,0.007367365180471478,lift down
0.004747481066267412,-0.07263183593,0.10339355468,0.0011457361638619766,0.03380154875482007,0.96008538801,0.88513183593,1.08178710937,0.001369238185480555,0.03695164612757749,-0.39005613193885796,-0.43579101562,-0.27868652343,0.0009094966415396632,0.03011583013484539,1.0375109140584402,0.93861992224,1.11951630629,0.000918871724700883,0.03027064904217131,lift down
0.046552359880236,-0.10656738281,0.22412109375,0.00451448832233171,0.06709076872144606,0.6280089071680531,0.03479003906,1.18188476562,0.19607937235603773,0.4421549130427579,-0.5139703891235398,-1.0390625,0.15197753906,0.1846141787730699,0.42903332524982163,1.0212776664803245,0.83831862431,1.19075091739,0.0017968314737407298,0.04232648208760783,Null
-0.020749592651602203,-0.95153808593,0.30493164062,0.06587825095697318,0.25631283003062394,0.8523815850492266,-0.16174316406,1.36145019531,0.0786567481661299,0.2800704631542156,-0.3916137020855249,-0.63427734375,0.04187011718,0.02532239643872984,0.1589101792439746,1.0182301301908563,0.5805828583,1.38174771408,0.012977631806198497,0.11376195319428707,Null
0.09289514983190617,-0.1201171875,0.37048339843,0.00881209211274297,0.09373499986871972,0.9698081813561876,0.73168945312,1.18310546875,0.009585802149902789,0.09776344558759274,-0.3080578577446041,-0.58020019531,0.02453613281,0.017805584876189957,0.1332417692946329,1.0360321867231963,0.84186995293,1.24730254828,0.006811655386497297,0.08241164879739173,Null
0.1272981501769146,0.02294921875,0.25085449218,0.001770316733872211,0.04201713731644812,0.9898678277771901,0.89868164062,1.11022949218,0.0008772178989212134,0.02957704043151158,-0.2301677777385675,-0.35217285156,0.07556152343,0.01182582885157807,0.10859673480664431,1.030975287420386,0.97578344169,1.12087726828,0.0005452922865320885,0.023319307535271325,Null
