avg_accX,min_accX,max_accX,var_accX,std_accX,avg_accY,min_accY,max_accY,var_accY,std_accY,avg_accZ,min_accZ,max_accZ,var_accZ,std_accZ,avg_magnitude,min_magnitude,max_magnitude,var_magnitude,std_magnitude,Label
-0.9209326171841999,-1.30322265625,-0.51306152343,0.035150822565505425,0.1872510227184131,0.1947656249962,-0.04736328125,0.53137207031,0.006605675489372475,0.0811736490534277,-0.4472741699183,-0.85070800781,-0.185546875,0.020217050363239356,0.14200882978650045,1.0513139817418,0.5832514677,1.60534014964,0.042769166408738325,0.206548404720822,stairs up
-0.9060998535120001,-1.11828613281,-0.63757324218,0.01648857535422158,0.12824723745888653,0.1770788574182,0.02722167968,0.33581542968,0.0037342524035058194,0.06103209624858919,-0.4869799804646,-0.697265625,-0.27355957031,0.013420105046237725,0.11570027996345614,1.0523715613806,0.82574060244,1.31845569965,0.015635378368461506,0.12488510688845308,stairs up
-0.9204260253864501,-1.35864257812,-0.53820800781,0.036193010996757424,0.19000665374998196,0.162678527828225,-0.05773925781,0.25524902343,0.0031920005741868113,0.056427126213828616,-0.438330383296925,-0.70495605468,-0.22265625,0.01380740899331192,0.11735795870254663,1.0394173725855,0.64044952315,1.49886092507,0.04162740660999379,0.20377276092124974,stairs up
-0.894224548335675,-1.12927246093,-0.62292480468,0.016336954474224744,0.12765622620162004,0.180440063472825,0.01867675781,0.28552246093,0.0030168138466718157,0.054856830131307585,-0.48307281493717497,-0.65966796875,-0.24548339843,0.012367118673926225,0.11106845131377951,1.040077373171925,0.76279395096,1.3089383369,0.016692962483838433,0.12903964537160212,stairs up
-0.913140563960775,-1.36267089843,-0.57849121093,0.033590342275976175,0.1830474430859012,0.134973144527525,0.02990722656,0.24291992187,0.001692503616033243,0.041088591567406636,-0.4723931884725999,-0.73706054687,-0.20593261718,0.014094445728877546,0.11857153796149965,1.042039711372175,0.71470871155,1.47182881511,0.038702608648630885,0.19648371975054144,stairs up
-0.9030584716760001,-1.37097167968,-0.61560058593,0.023036567175518816,0.15158817815905046,0.159634094234575,-0.02954101562,0.27905273437,0.0032470159137701305,0.05691132026219129,-0.4451834106401751,-0.68054199218,-0.17822265625,0.015483349026650016,0.12427646862573538,1.0269734952942,0.69704372818,1.53466013785,0.02623946984329533,0.16178340819962686,stairs up
-0.9081405639605251,-1.28686523437,-0.64404296875,0.019981071163785828,0.14117761326030542,0.144466247554975,-0.06726074218,0.27087402343,0.0037024615542171667,0.06077174837316781,-0.49598999023092494,-0.72229003906,-0.25842285156,0.013388455026114033,0.11556376546542929,1.05186341441595,0.72751298896,1.47617198684,0.022214051320607688,0.14885736861944782,stairs up
-0.8723519897424,-1.126953125,-0.61511230468,0.010904884397389101,0.10429583973675857,0.148519592281425,0.02526855468,0.2998046875,0.004197801567313602,0.06470940475228712,-0.554450073238275,-0.814453125,-0.20715332031,0.015177767183875326,0.1230439871180857,1.053982723674525,0.83127683366,1.28878481214,0.009820668897182635,0.09897533644772155,Null
-0.842074279781725,-1.189453125,-0.69262695312,0.00621326604943494,0.07872568122481603,0.167292785641425,-0.11108398437,0.37683105468,0.006769886942790324,0.08217640917826326,-0.56691131591405,-0.73071289062,-0.20910644531,0.007194996830092825,0.08471723164750837,1.037126279427125,0.95368145505,1.23572688978,0.0029686154176432156,0.05441685289594675,Null
-0.81655792236015,-0.8369140625,-0.78369140625,0.00018437537173913147,0.013561505569433788,0.156294555660525,0.10363769531,0.19580078125,0.00029329005900827193,0.01710429284889473,-0.591663208004225,-0.64794921875,-0.55895996093,0.00032238331317870154,0.017932578032613014,1.0207440408539,0.98605361744,1.06004500061,0.00014018254431451982,0.011825061858347021,Null
-0.8354974365193252,-1.07067871093,-0.58483886718,0.009805034933403902,0.09889652342762303,0.12772613525044998,-0.01708984375,0.30078125,0.004720097226659236,0.06861703129393305,-0.589375610347325,-0.7685546875,-0.43676757812,0.003574260983784754,0.05971034526215112,1.0342025046373,0.80542963489,1.31296224628,0.010238462350750283,0.10105872646572095,Null
-0.8815829467739751,-1.59106445312,-0.4736328125,0.05171845106021165,0.22713246120394398,0.1501626586882,-0.07861328125,0.35546875,0.00926334726367273,0.09612590127282838,-0.5266873168909499,-0.85217285156,-0.20495605468,0.014697053677328204,0.1210797714035457,1.0474408685317749,0.59306128612,1.73625980238,0.055633210708802325,0.2355719161573177,stairs down
-0.8316008075477307,-1.47302246093,0.13745117187,0.07853479660907708,0.2798909595467262,0.13549804687164588,-0.14147949218,0.41906738281,0.013988080471501931,0.11812365333754037,-0.584180418091172,-0.85229492187,-0.3017578125,0.017075897445784496,0.13051173955006323,1.055104049281272,0.54743069617,1.7069502665,0.047385458993879255,0.21741042009747796,stairs down
-0.8758777436708521,-1.70690917968,-0.40954589843,0.05974412277150483,0.24411961848234817,0.1630528959086717,-0.04956054687,0.56628417968,0.015762316475067203,0.12539063729999186,-0.5378928889572431,-0.92443847656,-0.24169921875,0.019533798813843817,0.13958811526983972,1.055756702567619,0.49757042328,1.81870168215,0.06341559199511371,0.25150875864336003,stairs down
-0.8942007446252751,-1.2587890625,-0.64916992187,0.01768931958533581,0.1328348459041244,0.175044250484525,0.00329589843,0.708984375,0.014986575861323867,0.12226655070652216,-0.552297973629,-0.75659179687,-0.30590820312,0.010474890237151781,0.10221889752662616,1.07640619001085,0.82988094905,1.51526141967,0.01971041184702969,0.14021817220821314,Null
-0.86020355224215,-0.87231445312,-0.84289550781,3.129083028767216e-05,0.005586824072042449,0.175733337398675,0.12438964843,0.2138671875,0.0001951344545669467,0.013951581216139243,-0.5139132690389749,-0.54455566406,-0.48962402343,0.00011812993747334107,0.010855165251144622,1.017463919259825,1.00351849351,1.0385125935,5.019759237349788e-05,0.007076164101585274,Null
-0.8609497070270749,-0.87878417968,-0.84497070312,4.446536377234774e-05,0.006659894921311963,0.1802218627888,0.13684082031,0.20153808593,0.00013289557652772162,0.01151361531346268,-0.505692443844025,-0.53173828125,-0.48095703125,0.00012049807109700609,0.010963431302254946,1.01473759913555,0.98767614875,1.03176961436,5.9956144126816255e-05,0.007733450314477957,Null
-0.8632501996922444,-0.87341308593,-0.85424804687,1.5183465736611475e-05,0.0038917350542246286,0.17279950757506235,0.15075683593,0.18969726562,4.813872574455704e-05,0.006929551143251609,-0.5051083838214963,-0.52685546875,-0.48864746093,8.639453800820128e-05,0.009283269374659718,1.0150384245288777,0.99965632016,1.02994462682,4.1500087826654063e-05,0.006434018676986766,Null
-0.8627929687457142,-0.966796875,-0.78552246093,0.0005059635369678392,0.022465428060195504,0.16697964393002504,0.06262207031,0.23168945312,0.0007456898534469892,0.027273081171205835,-0.5080245168545613,-0.59704589843,-0.43627929687,0.0005382743975144851,0.02317164946381888,1.0158071086359148,0.95186059758,1.10501178152,0.0003225988371608452,0.01793851495447633,Null
-0.8885580238819203,-1.36669921875,-0.68090820312,0.014248151078179571,0.11921669148804702,0.15716263539997505,-0.1455078125,0.35913085937,0.007310788185199716,0.08539646827133236,-0.512286483494389,-0.71313476562,-0.07971191406,0.011646768716075258,0.10778554821989171,1.0495350806365835,0.91521180271,1.41283229404,0.008292591964216632,0.09095005323669271,Null
-0.8273818969690001,-1.0400390625,-0.56896972656,0.014332338231625585,0.11956800318666579,0.094557800291125,-0.19030761718,0.26879882812,0.014101243200600163,0.11860012686586242,-0.59508697509395,-0.78295898437,-0.33154296875,0.013797045579323031,0.1173139078088132,1.0415856128635752,0.86416047835,1.23160878608,0.005062907093205981,0.07106510976191457,Null
-0.8226881290102004,-0.94409179687,-0.77746582031,0.0004547899971753241,0.021299065064481117,0.1262815853074687,0.05676269531,0.16918945312,0.00033845223633176583,0.01837400296921956,-0.5909191313201755,-0.65661621093,-0.40441894531,0.000740387838217409,0.027175949470079657,1.0213624389622808,0.97365756754,1.10575893893,0.00029751648413705537,0.0172270377252835,Null
-0.8400175708154614,-1.08154296875,-0.74328613281,0.0034869681272633813,0.05897688060713292,0.12717321685593516,0.03454589843,0.33715820312,0.002758417481062788,0.05245511066117959,-0.5768586346597007,-0.80126953125,-0.41723632812,0.0037161774147333416,0.060884399803109494,1.031116396444788,0.97269629583,1.19615261623,0.0013073892727118344,0.036112725601039786,Null
-0.8289323773267668,-0.84045410156,-0.81616210937,2.4125450274893587e-05,0.004905607555363271,0.12863243313,0.09252929687,0.16650390625,0.0001646371424809156,0.012815011434394829,-0.57895838228005,-0.59948730468,-0.54992675781,7.476478169614162e-05,0.008635820823227409,1.0193590967434085,1.00534706772,1.03972760762,3.7991453695460543e-05,0.006155991960645504,Null
-0.8292839069282545,-0.84204101562,-0.80749511718,4.5388200668162635e-05,0.006728670978382307,0.1300496317763591,0.07397460937,0.17846679687,0.00021838788362237992,0.014759514742490534,-0.5762762892535909,-0.60546875,-0.55639648437,7.934121828590598e-05,0.008896255385620992,1.0183376732631424,0.99244203081,1.03617124639,4.983571187124636e-05,0.007050633538060696,Null
-0.8430282592738999,-1.08178710937,-0.77404785156,0.003822086073126752,0.06174569505596269,0.11695037841387501,0.00341796875,0.27941894531,0.003376721352810071,0.058036880941587876,-0.5857632446255999,-0.76550292968,-0.41479492187,0.0048313471719552996,0.06942095363811572,1.03823288302005,0.97729424336,1.20098896029,0.0015690982733189745,0.039562299321900855,Null
-0.7843577449450877,-1.08178710937,0.25512695312,0.06351539818533113,0.25170659849061117,0.23844982328508768,0.04943847656,1.04846191406,0.06301540331366677,0.25071392057887115,-0.5207415511395739,-0.71520996093,-0.00805664062,0.020026831737086578,0.1413387391210987,1.0425463583466668,0.93449151993,1.20452116796,0.0025409331885541697,0.05034446280325942,Null
0.09494969850543643,-0.96508789062,0.32421875,0.15113657828650334,0.3882778374936965,0.900209193808828,0.34643554687,1.00244140625,0.023204390040601222,0.1521398163902962,-0.18165645456281795,-0.59619140625,0.01623535156,0.020698201181641066,0.14368919486113582,1.0204149465854362,0.82772069634,1.36272423412,0.0057114727476905115,0.0754799951875114,Null
0.2699411010708,0.25207519531,0.29418945312,7.618593532520097e-05,0.008717538097816837,0.968366699215625,0.92272949218,0.99597167968,0.00010065671496205418,0.010020233189634313,-0.20839874267225,-0.25500488281,-0.18005371093,0.00017322396715288707,0.01314499552053955,1.026794481903475,0.98731933492,1.05346374864,7.476844777001802e-05,0.008636059671551196,Null
0.21467864989859997,0.14318847656,0.30395507812,0.0007094240165313552,0.026601700255623265,0.97376922607065,0.90197753906,1.01794433593,0.00021859232186008452,0.014766375352652874,-0.22888702392142504,-0.31091308593,-0.16967773437,0.000409295694776284,0.020205753030742093,1.023659646333025,0.97541817567,1.05714975384,0.00015799028333648489,0.01255369697053994,Null
0.20312194823785,0.17492675781,0.22106933593,0.00012334829247022129,0.011092336171386339,0.9773291015587501,0.95910644531,0.99487304687,5.306190117331292e-05,0.007275248890613958,-0.23077087401995,-0.25573730468,-0.20068359375,0.00011506690677316831,0.01071350733916001,1.0246652122387498,1.00670881236,1.04183431786,3.7940993386205386e-05,0.0061519217243671,Null
-0.7948430315772818,-1.48132324218,-0.02966308593,0.0718081061434825,0.26763600945983246,0.08868697396905237,-0.43322753906,0.49084472656,0.03864007525110926,0.19632553568297284,-0.6559458896661596,-1.23791503906,-0.22546386718,0.03762023390178006,0.19371736591523545,1.075533344479202,0.58862381899,1.75951488711,0.06098510923001893,0.24664352142993848,stairs down
-0.7291439819298501,-1.31701660156,-0.31457519531,0.04630501364031309,0.21491684695763688,0.0063659667970500065,-0.55700683593,0.42578125,0.04219724118290267,0.20516273560260748,-0.675453186031475,-1.314453125,-0.17102050781,0.03254661523979299,0.1801811552346513,1.03243788975925,0.59151457042,1.53263875207,0.04285386477896939,0.20675282372200376,stairs down
-0.76628448485945,-2.0400390625,-0.02282714843,0.12122885857475303,0.34774385174768535,0.223733825680375,-0.57873535156,0.69116210937,0.054697438704135876,0.23358230906336966,-0.60464691161745,-1.1025390625,-0.2421875,0.021629600162608807,0.14688609928173013,1.065351699057125,0.57176986415,2.14239354412,0.0634192365895673,0.2515167757786613,stairs down
-0.7929589843714999,-0.89233398437,-0.69348144531,0.0009948922518139452,0.031502460557620106,0.1994812011683,0.1181640625,0.2568359375,0.0009787457255260733,0.031245781494663533,-0.6165039062459,-0.73315429687,-0.54956054687,0.001272079042331143,0.03562160643100357,1.0253234202504,0.94290791641,1.09824880034,0.0006047654597296135,0.024561220370337658,Null
-0.782276916500275,-0.93505859375,-0.5546875,0.00424547104822726,0.06507578175179067,0.16417572021125004,0.0341796875,0.25915527343,0.0021996682933218457,0.04684195899605973,-0.635837707516025,-0.76123046875,-0.52160644531,0.0014697349190172819,0.038289170554084075,1.0240908948095,0.80520866701,1.16805526004,0.002331130632022689,0.04822139364890476,Null
-0.8046191406213,-1.00244140625,-0.55798339843,0.008165156727771824,0.09024823453094467,0.1572900390587,-0.15759277343,0.33569335937,0.007141506904814442,0.08440173657900889,-0.6236523437461,-1.34985351562,-0.3720703125,0.021564889049761775,0.1466662088796781,1.0445377456519,0.93476121122,1.50411532546,0.006831714696985612,0.08255080502480365,Null
-0.7895095825156,-1.17065429687,-0.02758789062,0.0276896753943157,0.16619401675701176,0.11919036864942502,-0.26818847656,0.28735351562,0.008697921193401747,0.0931459950315538,-0.62145111083605,-1.09899902343,-0.30126953125,0.016264264703578127,0.12737191229552605,1.0247944423118,0.36610555531,1.582283598,0.02611507836413701,0.16139947542735902,Null
-0.7899121093712,-0.85241699218,-0.72473144531,0.0010619482958173566,0.03254678824519884,0.13859008788660002,0.05480957031,0.23498535156,0.0014123101147788355,0.037533709375598474,-0.6286157226526999,-0.70947265625,-0.57360839843,0.0013274879921911316,0.03638913673351779,1.0207373195418001,0.9863396219,1.06293487064,0.0002141817454399088,0.014616644316542325,Null
-0.7930249023396999,-0.84301757812,-0.7333984375,0.00027457198402533445,0.016549488030306893,0.1436523437458,0.03955078125,0.20581054687,0.000806099788863898,0.028356384455563762,-0.6191955566368,-0.69909667968,-0.51953125,0.0005388984031767451,0.023185149496365198,1.0169761500089,0.95132965878,1.05355458341,0.00030341906725452083,0.017397141132564985,Null
-0.8327795410119001,-1.04052734375,-0.72973632812,0.0033761572583798,0.05803203309581572,0.16041381835559998,0.02795410156,0.28308105468,0.002363859231266095,0.04855872303909906,-0.5770056152312,-0.71850585937,-0.38598632812,0.004841642587431978,0.06949488096948868,1.030247014721,0.92525277968,1.15120716616,0.0013394793420100637,0.036553120846995246,Null
-0.8355554199186002,-1.037109375,-0.65368652343,0.007920639752538388,0.08888665902798373,0.19498535155900001,-0.04614257812,0.65710449218,0.014179378487906132,0.118928255859095,-0.5490686035119999,-0.78088378906,-0.20910644531,0.01687688261502427,0.129748566113413,1.0360410474672,0.899122052,1.18573444648,0.0031547719376164097,0.056097103381300965,Null
-0.8928674316369001,-1.07116699218,-0.79479980468,0.002872675778222987,0.05353031000075966,0.24217407226180002,0.17687988281,0.33996582031,0.0008243590951840418,0.02867574231726324,-0.41759033202780005,-0.60913085937,0.02502441406,0.016595872272897765,0.12866383560354291,1.0244945045667,0.94854400734,1.13819022485,0.0008976462640756952,0.029923271017980403,Null
-0.8534869384729251,-0.9248046875,-0.71862792968,0.0010125235922165898,0.03178037575668432,0.23253631591375,0.17419433593,0.29284667968,0.0004504983077712679,0.021198397628166138,-0.47843414306269993,-0.57348632812,-0.35205078125,0.0015697575144609367,0.03957060930381012,1.0068644624244498,0.89431475222,1.03340298426,0.0006631312131260604,0.02571912488972448,lift down
-0.8803430175746,-0.96203613281,-0.71472167968,0.0016910324284918994,0.041070729813587066,0.23091308593439996,0.1240234375,0.31518554687,0.0010992618789912119,0.03311364861041039,-0.4798083496056,-0.61145019531,-0.37121582031,0.0027208137317558546,0.05209617737825362,1.0311607495707,0.95207398734,1.0846619971,0.0007474416175081745,0.02730518290479674,lift down
-0.8592822265585,-1.02075195312,-0.69677734375,0.004197112934324687,0.06470409687175052,0.19666748046479995,0.1015625,0.28723144531,0.001892487656185259,0.043448319150972865,-0.5096813964814,-0.62646484375,-0.34765625,0.0036235329784375108,0.06012049688742947,1.0214941528988002,0.87865333308,1.18034186119,0.0030653784467668086,0.05529660930518156,Null
-0.9005856323207252,-1.19470214843,-0.49572753906,0.013352036184804092,0.11540648202913942,0.22225555419567503,0.107421875,0.42956542968,0.0052260975744253535,0.07220133191631087,-0.43015960693045,-0.67565917968,0.24938964843,0.03050123778680775,0.1744275915454339,1.0433934032143,0.8070562091,1.23197649662,0.005790655833415595,0.07600117889764643,Null
-0.8825988769497001,-1.1025390625,-0.62133789062,0.0032238322018749636,0.05670778272309963,0.2646728515591,0.11474609375,0.33740234375,0.000951310446979627,0.030804742668332386,-0.43114624023049997,-0.50170898437,0.05200195312,0.005563061152063515,0.07449264057061848,1.0213621271836,0.821652807,1.14198598271,0.0014564810598391544,0.038116136441008246,Null
-0.8855163574183001,-0.93420410156,-0.83020019531,0.0005371682252450482,0.02314790065388081,0.2532641601523,0.23828125,0.26843261718,4.76316162735294e-05,0.006892933862503366,-0.44654907226190005,-0.48510742187,-0.419921875,0.00020227445843926982,0.014204533511987348,1.0236164468206999,0.96361609592,1.0808756817,0.000684214962400075,0.026124785644940224,lift up
-0.874341430660875,-0.92236328125,-0.82971191406,0.00037638412044171086,0.019376355698133913,0.24840026855085,0.20056152343,0.2998046875,0.0005278077785044366,0.02294533196661525,-0.440411376949475,-0.47314453125,-0.40380859375,0.000249910735541628,0.01578879218631919,1.0104275372057752,0.96377666631,1.04997260591,0.0003528514760131417,0.01876084612492488,lift up
-0.907877807613725,-1.06750488281,-0.67529296875,0.008336813793028912,0.09119195007535665,0.20976257323865,0.09802246093,0.36328125,0.0030308335104237824,0.05498414704846955,-0.44547088622659997,-0.60266113281,-0.29833984375,0.005392823213185396,0.07334399194993706,1.037659494292175,0.86018535381,1.21638311512,0.006693840954581813,0.08171356284115483,Null
-0.93421386718345,-1.47546386718,-0.55798339843,0.027924647211710635,0.16689768001287902,0.26459381103159996,0.01428222656,0.83911132812,0.024342934025392945,0.15582707303395474,-0.4672744750937,-0.67919921875,-0.01391601562,0.0228538143434621,0.15098569404948087,1.100791591286625,0.73679931701,1.69598183844,0.02436324230130317,0.15589205943713078,Null
-0.826705627437525,-1.27380371093,-0.46813964843,0.03459735433188384,0.18577099059340274,0.1312222290011,-0.17041015625,0.39904785156,0.010943033219122218,0.10447811079874297,-0.5970825195277,-1.07727050781,-0.28186035156,0.017590827959912556,0.13246452691197283,1.044586068198275,0.71052334847,1.52917919461,0.029054973981050204,0.1702419940734294,stairs down
-0.735810167506015,-1.34228515625,0.74060058593,0.17898267355446493,0.4225329518809814,0.2031041960338847,-0.2080078125,0.98620605468,0.03657584575252708,0.19100831648433503,-0.5649438537717293,-0.84680175781,-0.37768554687,0.009589233733878709,0.09780184337028561,1.0452562764315287,0.57355253016,1.55426526685,0.033937320445889194,0.18398984891814563,Null
-0.8319551463102745,-0.84423828125,-0.82019042968,2.047882004866988e-05,0.004519706923240698,0.16589781649032415,0.13879394531,0.19409179687,8.931828703677698e-05,0.009439043816317471,-0.5677295408900997,-0.60192871093,-0.54968261718,4.51438794075274e-05,0.006710536577252284,1.0208394299938404,1.01224852282,1.03778946124,2.976959753519948e-05,0.005449344835606946,Null
-0.9255889892542499,-1.3759765625,-0.51501464843,0.03157413990835193,0.17746888335305727,0.2065298461883,-0.13989257812,0.37817382812,0.00766419730884547,0.08743590118237106,-0.44699707030965,-0.76806640625,-0.18225097656,0.019169187485991248,0.13827966053355883,1.0599896585857251,0.6782314775,1.45114038158,0.03394422540776705,0.1840091433713217,stairs up
-0.90530639648085,-1.30822753906,-0.60083007812,0.020762409439503943,0.14391144296373787,0.19136871337574998,-0.24182128906,0.48876953125,0.014553326083398231,0.12048627626493291,-0.506637268063175,-0.79748535156,-0.15551757812,0.019939951635827492,0.14103227203990554,1.072553202700825,0.84977564445,1.40222675929,0.01767433852287233,0.13277858515801844,stairs up
-0.8917196655231749,-1.51416015625,-0.23291015625,0.047049116467423796,0.21663677821703137,0.2254260253869,-0.01342773437,0.83142089843,0.014975213076664752,0.12222019081957404,-0.44540374755464995,-0.68627929687,-0.15234375,0.014727350669777026,0.12120450607589878,1.0396600431504002,0.64133225919,1.56339872262,0.04013248003049655,0.2000803559333607,stairs up
-0.895287170406625,-1.19287109375,-0.5419921875,0.022603356306995732,0.15015607851908042,0.18152587890259997,0.03210449218,0.36535644531,0.005917948535239265,0.0768319833396299,-0.5349276733363,-0.82849121093,-0.29638671875,0.016660454297709893,0.12891393703539436,1.06772979933685,0.72468195343,1.41363495216,0.025724569681945204,0.16018819637457793,stairs up
-0.8937561035121,-1.32568359375,-0.57299804687,0.0317629651542493,0.17799875769612458,0.170119323726625,-0.04968261718,0.26489257812,0.0035258922390326826,0.05930495348986542,-0.4837484741169,-0.76586914062,-0.20080566406,0.016665662589120767,0.12893408561217615,1.0382416943618,0.71907025955,1.53418838042,0.035721264013357554,0.18876429973203135,stairs up
-0.896955566402375,-1.23864746093,-0.55603027343,0.020933615166365053,0.14450356787446164,0.16555603027030003,-0.03015136718,0.38635253906,0.008222117979239631,0.0905624794508826,-0.524864807125025,-0.712890625,-0.26330566406,0.013961348960057077,0.11801036220458326,1.06405212919105,0.74480788784,1.35520502102,0.018269181737007287,0.13499447685985072,stairs up
-0.9281155395470501,-1.35888671875,-0.6025390625,0.02774583826526297,0.1663624767476122,0.11878143310215,-0.083984375,0.27307128906,0.0053001435953954155,0.07271102554913475,-0.422391357418425,-0.74279785156,-0.16760253906,0.01705899942341218,0.1304467398015514,1.035503226923975,0.72615078571,1.44321370712,0.0317140133141739,0.17786154244492672,stairs up
-0.86049407958635,-0.96850585937,-0.71630859375,0.0009559809629955393,0.030880268952650825,0.17479217528932497,0.04187011718,0.26635742187,0.001027513969430022,0.032014765101534746,-0.51331787109025,-0.6767578125,-0.39050292968,0.0018895396911606072,0.04341446581420421,1.018641924066725,0.93678869442,1.14973574198,0.0007314134302054793,0.027010829247358654,Null
-0.783880615230775,-1.22058105468,-0.23095703125,0.03873362506081349,0.1965624353689215,0.1508688354461,-0.169921875,0.73449707031,0.019604000914908618,0.1398391608692692,-0.5979595947227001,-1.05627441406,-0.37915039062,0.02071983854232067,0.14376383045107302,1.0274421266083749,0.696747959,1.59224821841,0.017904877644302698,0.1336417429181165,Null
-0.8699261474572999,-1.548828125,-0.44921875,0.039641392048450734,0.19885242912353274,0.17353820800485,-0.04064941406,0.57360839843,0.020008905405517675,0.14127591140036536,-0.5495886230431,-0.74975585937,-0.23681640625,0.014627156208356692,0.12079150763955138,1.05947025539765,0.61249064856,1.72208449115,0.04065083128032692,0.20136832968996418,stairs down
-0.8854516601523001,-1.32055664062,-0.51635742187,0.02386032094324391,0.15427465812921382,0.15886047362949998,-0.05224609375,0.40942382812,0.010675561857799323,0.10319337649846924,-0.5508978271445,-0.88415527343,-0.25769042968,0.013950480598740066,0.11796442004792469,1.0627327718383999,0.577248876,1.57090751799,0.03179339514325277,0.17808400168289862,stairs down
-0.8739556884724499,-1.35522460937,-0.52514648437,0.02670628201334518,0.16321616435975886,0.17513061523079998,0.02880859375,0.35559082031,0.0059489591542878474,0.0770330238040941,-0.54180847167605,-0.81188964843,-0.28784179687,0.011153705137623425,0.10547900679651552,1.0501694059278501,0.59955121979,1.47781946782,0.028941694816353867,0.16990980130443617,stairs down
-0.87047119140245,-1.42102050781,-0.47985839843,0.025604856193561128,0.1598150307482911,0.1402972412075,-0.00476074218,0.33239746093,0.005657816527340897,0.07512437677626714,-0.56115356444945,-0.82104492187,-0.27270507812,0.012116420673821232,0.10993693474959486,1.0524199292256,0.67848015024,1.53499535452,0.028049796568492928,0.16727125299067888,stairs down
-0.6963098144506,-1.38830566406,0.3037109375,0.1497954986297247,0.3865501388994064,0.2709002685513,0.00659179687,1.00183105468,0.07583505167368565,0.2750372048369119,-0.5647644042932499,-0.94445800781,-0.19360351562,0.01935109962951171,0.1389342358111849,1.03490129816995,0.49672091632,1.68197411432,0.05066831520125829,0.2248146890513499,stairs down
-0.9091827392541001,-1.23779296875,-0.55114746093,0.0165424240019758,0.12845648267787368,0.24014648437165,-0.17761230468,0.84985351562,0.020454276199347726,0.14283956212775703,-0.5128070068328,-1.11791992187,-0.19836425781,0.02343870580309817,0.15290555594415275,1.0896962518296,0.81840174526,1.68197411432,0.02015138828067687,0.14177803006804396,Null
-0.8582369995077499,-1.22265625,-0.71740722656,0.008007653800736158,0.08937356805137814,0.21459350585574996,-0.06787109375,0.57238769531,0.011402909879573181,0.10665084437018887,-0.542998046870975,-0.69555664062,-0.16430664062,0.008702650216620533,0.09317131313381272,1.049096398900625,0.95100970129,1.33930956921,0.004919975602877266,0.07005480471652228,Null
-0.8440087890588999,-1.04638671875,-0.60534667968,0.00727463777810715,0.08518480606106868,0.22804016112949999,0.0595703125,0.43762207031,0.008291351077621615,0.09094296399352486,-0.5449151611293,-0.73071289062,-0.35131835937,0.00524895624371335,0.07235906199712698,1.0388253745945502,0.89165127334,1.17757776588,0.0028976769541417717,0.05376274510994038,Null
-0.8318969726521,-0.89013671875,-0.75036621093,0.0008632507837864369,0.02934438032787489,0.19593688964500003,0.12683105468,0.28662109375,0.0011294762259997186,0.033565645166370915,-0.5550830078083999,-0.69128417968,-0.47839355468,0.002265927223919065,0.04754221709027953,1.0210177578743,0.96501685531,1.07267956829,0.0003325604967579054,0.018213431733641264,Null
-0.8357232665977,-0.85034179687,-0.81909179687,3.142651123927034e-05,0.005598923553788903,0.20186767577745002,0.17370605468,0.228515625,0.00010826952176401332,0.010392249417696021,-0.5511755371054,-0.57983398437,-0.52429199218,0.00013565534786812272,0.011632549569997647,1.021382013747,1.00005765093,1.03303077861,3.193439526064915e-05,0.0056439843437502135,Null
-0.8394689941369501,-0.84912109375,-0.82971191406,2.0045312425663064e-05,0.004471599170833507,0.1956970214808,0.13696289062,0.24377441406,0.00028513454106160067,0.01686480669053004,-0.5441180419885,-0.57751464843,-0.515625,0.00011834170249247726,0.010864890622378397,1.01952329228115,1.0049105493,1.04588505213,6.484130366686315e-05,0.008042337993873175,Null
-0.9052557373010001,-1.10095214843,-0.6953125,0.006304402757318809,0.07930095680649453,0.26425598144165,0.05432128906,0.43444824218,0.007569886370945967,0.08689626951151933,-0.41677917480115,-0.63391113281,-0.14953613281,0.011430687025584727,0.10678066448576148,1.0413744511899,0.86021715861,1.16292363338,0.0038145567075580636,0.06168484672745137,Null
-0.87848999023065,-0.986328125,-0.70581054687,0.0022074910617557674,0.04692517804016707,0.3433203124959501,0.18981933593,0.53942871093,0.010830409837634232,0.10393908703197342,-0.369721679684,-0.5146484375,-0.28979492187,0.002347812951343822,0.048393629942022974,1.02028299865,0.94793333136,1.13081033629,0.0006791704960144947,0.026028303244246605,Null
-0.2734490966782499,-0.92272949218,0.7890625,0.4149478658356615,0.6433587616338743,0.5989257812465,0.37133789062,1.20324707031,0.05337502708405083,0.23074139099073815,-0.39414794921530005,-0.5556640625,-0.19189453125,0.0028196673405112673,0.05303412271509721,1.0269098519061002,0.84484751281,1.31734152037,0.004270642310435461,0.06526841276344456,lift up
0.33882507323875005,-0.22497558593,1.15673828125,0.06814473726943159,0.2607189587012383,0.8760382080040501,0.39978027343,1.08959960937,0.03326463042002793,0.1821578130193099,-0.21808197021115,-0.83264160156,-0.01965332031,0.02380361457276219,0.15409122472201423,1.02239665257245,0.62959666295,1.58936021748,0.009443260125306656,0.09705489155623939,lift up
0.2070617675746,0.19323730468,0.21911621093,3.235236295659421e-05,0.005680799419905857,0.9831466674774251,0.93371582031,1.01062011718,0.0003917226007687926,0.019767227784058913,-0.12705841064055,-0.21374511718,-0.07995605468,0.000511051995908329,0.02257818340607938,1.01299008987785,0.96512944705,1.03515522794,0.00038060353635376406,0.019484661339445437,lift up
-0.006329956054450001,-0.15026855468,0.13891601562,0.005460586896514214,0.07380335649056165,0.9431341552694499,0.76611328125,1.12145996093,0.007124978886133645,0.08430401199775911,-0.39354034423494993,-0.58239746093,-0.21789550781,0.005100391020027308,0.0713276947789373,1.0278624408288248,0.86743917335,1.20200585047,0.005570576807807508,0.07454294309851195,Null
-0.0222631835902,-0.06958007812,0.04272460937,0.00027840232484318986,0.016664522766376536,0.968268127438025,0.92797851562,0.9951171875,0.00011371751693138331,0.010650503421860155,-0.3314047241173999,-0.38317871093,-0.28894042968,0.00017336033256953924,0.013150168506073047,1.0238899592450499,0.98877668213,1.04986066802,8.152877555344094e-05,0.009018034908701416,Null
-0.066907043455375,-0.23327636718,0.0830078125,0.005929186110638748,0.07690489675802283,0.9056900024376,0.59057617187,1.04821777343,0.014400071627797722,0.11985020420812069,-0.07304870605235003,-0.46838378906,0.82678222656,0.19799165390466855,0.44440597967388656,1.02328893668125,0.96170143836,1.09793522367,0.0007437672845666238,0.027237985724998227,Null
-0.0395339965829,-0.83508300781,0.17236328125,0.03692304234359279,0.191913352161161,0.4979684448204999,0.13403320312,0.75402832031,0.03475221527992436,0.18618629042366291,0.8461947631794251,0.61694335937,1.16784667968,0.015321338187810953,0.12362457216242013,1.0220474799208,0.80255434008,1.34821488232,0.0077986358549514264,0.08819942893984092,Null
-0.9179946899377501,-1.73474121093,0.1875,0.2013222065380221,0.448128219398954,0.37816009521217503,-0.4013671875,0.9169921875,0.08446915495922971,0.2902722550844838,-0.1444226074192,-0.79736328125,0.99438476562,0.1828130750689398,0.4270316643777923,1.188043685633925,0.66721345909,1.7822736969,0.0627191222048778,0.2501246177395692,stairs up
-0.8671261596641751,-1.04235839843,-0.56188964843,0.01323138061616776,0.11488386381310188,0.293948059078375,0.16857910156,0.48913574218,0.006150490164950025,0.07832696814978637,-0.4942520141561749,-0.82446289062,-0.25817871093,0.01616914573832487,0.12699890894798685,1.0541226583146248,0.90536016318,1.26352587037,0.006903109690730584,0.0829810334745462,Null
-0.705106811519925,-1.0,-0.546875,0.01967166531932825,0.1400802846800003,0.224438781734375,0.07165527343,0.38098144531,0.005799181023588268,0.07605710401421617,-0.695665588375175,-0.84948730468,-0.39672851562,0.018419220198725713,0.13554767481675553,1.0352781253345251,0.84438737884,1.22825156984,0.0034872559683731047,0.058979130448423636,Null
-0.83653564452775,-1.0400390625,-0.57421875,0.007231156778179362,0.08492984685158636,0.278149719234775,-0.14416503906,0.57897949218,0.011661927719267762,0.1078553332013285,-0.5285488891561999,-0.71264648437,-0.37707519531,0.004224972262507384,0.06491848605637007,1.037771248512325,0.93005339851,1.20901687036,0.002620728305995594,0.051129018035070896,Null
-0.6813354492154001,-1.29016113281,0.83666992187,0.24637141009424915,0.4957373110519457,0.410314025874725,0.07263183593,1.23718261718,0.04896561173167046,0.22100497212131062,-0.44550109862907505,-0.68518066406,-0.1396484375,0.01270121445006548,0.11255870208002719,1.053820583547225,0.6304896662,1.52197455074,0.027846758343333562,0.16666475766482616,Null
-0.85019378661735,-0.86315917968,-0.83898925781,3.236834482606098e-05,0.005682202386750742,0.32284790038690003,0.29895019531,0.35571289062,0.00019530809464306885,0.013957787231737745,-0.4594754028285001,-0.48010253906,-0.43737792968,8.389461300208462e-05,0.009147943838348561,1.01903827135515,1.0016623776,1.03442467083,4.9805545190479765e-05,0.007048477234658814,Null
-0.74459808349265,-1.29113769531,0.04040527343,0.1446242223957368,0.3798192489063021,0.378533935543125,0.05981445312,0.90124511718,0.027488686349708257,0.1655897479732184,-0.567334594722775,-1.01281738281,-0.11120605468,0.04092546048582547,0.2020473875966005,1.09435557137855,0.69379744324,1.65394187189,0.034560847489870296,0.18567295271833648,Null
-0.7957183837859,-1.53234863281,0.01025390625,0.08516373661784285,0.29146325201695367,0.20447509765417501,-0.32958984375,1.10485839843,0.07641605127317729,0.27608877402928633,-0.6641314697229501,-1.31884765625,-0.08618164062,0.04736656877909287,0.21736640116895975,1.124861358791025,0.72286862526,1.77270269925,0.059307604220554345,0.24322692122789977,stairs down
-0.384560546873325,-2.06640625,1.087890625,0.666285962497304,0.8152424471229774,0.3718402099572,0.04077148437,0.93469238281,0.02026729516184421,0.14218518531809002,-0.3562973022421,-0.64208984375,0.08032226562,0.02505197930365397,0.15808019912498475,1.034493075468425,0.47226069584,2.21034467655,0.05288222979277399,0.22967373428037446,Null
-0.861434936519525,-0.87866210937,-0.84973144531,4.085583756939212e-05,0.006383862308623882,0.30247650146165,0.26318359375,0.33837890625,0.00016120755649317174,0.012680872903784614,-0.447442321773675,-0.47265625,-0.39306640625,0.00017924218016613614,0.013371390156439263,1.01690484300415,0.99461014907,1.03385801418,5.183728763965949e-05,0.007190806242735257,Null
-0.7305773925744501,-1.009765625,-0.15673828125,0.04619098304058209,0.21465205702014747,0.5506918334927999,0.13073730468,0.88854980468,0.026858638416606444,0.16368106738583094,-0.3065954589812,-0.75744628906,0.46643066406,0.08464190017328434,0.2905689168215539,1.0386294136624,0.75531535322,1.28325530458,0.009718918763547925,0.09846126886567659,Null
-0.8740039062467001,-0.94470214843,-0.63940429687,0.001485139421360132,0.038489304654757424,0.43958496093347504,0.376953125,0.73352050781,0.004831866566702825,0.06942468509317178,-0.26376647948865,-0.38842773437,0.04809570312,0.008854993891849709,0.09398327727377932,1.020239968843025,0.8814742317,1.15229700931,0.000937340923937617,0.030577729994683597,Null
0.2544863891577,-0.97448730468,0.7841796875,0.20373641303420045,0.4508071339293723,0.8304293823206251,0.07922363281,1.27954101562,0.05890382310935553,0.24239753206578268,-0.06402008056522501,-0.57836914062,0.2626953125,0.03737050448256439,0.1930727278031726,1.021567378969275,0.56671631317,1.51311572779,0.017612650824129997,0.1325466679968594,Null
0.40053344726205,0.19799804687,0.650390625,0.004576169773780246,0.06756278079938537,0.9345404052697001,0.775390625,1.13439941406,0.004859694711140882,0.06962431668866151,-0.071555786130075,-0.27734375,0.2666015625,0.010467440648049853,0.10218254276748905,1.026456049844425,0.84195459043,1.25970530993,0.0052562805427957835,0.07240952866466398,Null
0.4224951171839,0.28527832031,0.515625,0.001423568857076606,0.03768301918548876,0.8973657226521999,0.81018066406,0.99560546875,0.0008652220931733333,0.029377866463383622,-0.22132690429340002,-0.30017089843,0.02807617187,0.003392443290916262,0.05817183324160389,1.0188670818369001,0.98209112374,1.09769258405,0.0003306902322595085,0.018162144881011706,Null
0.4441625976524,0.32202148437,0.5771484375,0.000875904500347413,0.029558666057461803,0.8783520507772999,0.68151855468,1.08374023437,0.002910852856494374,0.053884837610900696,-0.2547009277303,-0.28100585937,-0.15930175781,0.0006596744792400557,0.0256520036847408,1.0172160264235,0.7712084023,1.2532724698,0.0033705986876682516,0.057984240884477234,Null
0.4304187011686,0.37231445312,0.49182128906,0.0010052562342490415,0.031666119018020175,0.8335034179655,0.74645996093,0.87744140625,0.001546338333509716,0.03927432351646482,-0.349158935543,-0.57104492187,-0.19287109375,0.011784935563739586,0.10842266010770182,1.0079116788525,0.94845843378,1.04113375939,0.0003156940205732844,0.017745556782525908,lift down
0.39927856445009996,0.37780761718,0.41748046875,7.16847868523149e-05,0.008456096906089955,0.8106945800740999,0.78295898437,0.85485839843,0.00039284399428842295,0.0197955016178601,-0.5118981933549,-0.54418945312,-0.48620605468,0.000152769977579875,0.012344555586813376,1.0386945320155,1.01167692738,1.08423876827,0.00041930749760251356,0.02045138696662178,lift down
0.3740655517535,0.23974609375,0.5693359375,0.0041292678887968805,0.06417900528268485,0.8700085449178502,0.69506835937,1.07287597656,0.005273559008405,0.0725284434610587,-0.34227050780872503,-0.572265625,-0.01635742187,0.02800553149150309,0.16713921641187124,1.02438483953295,0.90819558581,1.16678754855,0.0019444047955879313,0.04404025185667041,Null
0.34923706054340004,0.18444824218,0.42114257812,0.002503745351250416,0.04997485355528608,0.9340466308558999,0.80847167968,1.19787597656,0.003731517652861981,0.061009743965450516,-0.2276062011681,-0.33459472656,0.01000976562,0.004370292737332313,0.06602550269016497,1.0262648876676,0.90380955824,1.25860763674,0.003582594559664648,0.059779913627116314,Null
-0.025080566407400015,-1.17175292968,0.41882324218,0.31317001966837266,0.5589159996092451,0.8196826171838001,0.30126953125,1.0947265625,0.04134365063859688,0.2030770580641752,-0.220947265622,-0.50805664062,0.08642578125,0.01658484182852229,0.12862107029546513,1.0434598796369001,0.90583661944,1.25470840488,0.0026953056189938157,0.05185139684662633,Null
-0.8964746093716002,-1.57775878906,-0.38684082031,0.0347627935195513,0.18621462492444685,0.42963256835540004,-0.17761230468,0.90808105468,0.03237247687369987,0.1796984854736278,-0.26140136718449997,-0.65637207031,0.5830078125,0.0363603095357458,0.19044529073176483,1.0699617146698,0.82941880913,1.69138021647,0.015037908698827604,0.12247576873439307,Null
-0.8983569335901,-0.9365234375,-0.88842773437,7.890645722592087e-05,0.008871820054693178,0.3430346679648,0.25390625,0.42333984375,0.0004574840289936672,0.021362123464702263,-0.3435095214807,-0.36462402343,-0.32751464843,4.548998255705967e-05,0.006736190139883747,1.0213707818505,1.00239629778,1.0680973143,9.915454136863953e-05,0.009945182502861269,Null
-0.8888615253817705,-0.93200683593,-0.8642578125,0.00022691119823274424,0.01504477766188339,0.34004649021638395,0.31762695312,0.35998535156,0.00011776141357456624,0.010838253743755548,-0.3369149757406733,-0.36437988281,-0.3115234375,0.00010254863566623419,0.01011399542256743,1.0096088084079802,0.973734308,1.05773410872,0.0003551733792746434,0.01882253065143825,lift down
-0.9184695122510723,-1.10021972656,-0.73828125,0.005478580028177373,0.07392508189946607,0.32440079001389033,0.22399902343,0.40747070312,0.0022805139504144746,0.04769514527922583,-0.3179764212477806,-0.54931640625,-0.11669921875,0.008569293225387352,0.09245498048696586,1.029798831046359,0.85144109472,1.26341351044,0.005747490469664531,0.0757176173405187,Null
-0.90138305663685,-0.94592285156,-0.86474609375,0.0001681534135583007,0.012951178711777742,0.33546813964475,0.28198242187,0.47131347656,0.0009381742103444537,0.030591318618500125,-0.34749603271105,-0.49340820312,-0.20190429687,0.001955737070356948,0.04416840191450281,1.0239239470865753,0.96930943763,1.13485892038,0.00041898784511214666,0.020443590083431194,Null
-0.9115804036419799,-1.33190917968,-0.60852050781,0.01344844663959689,0.1158220240694652,0.26624636542203006,-0.83972167968,0.60400390625,0.03161959809627201,0.17759603312925876,-0.3740892147319298,-0.73193359375,-0.00732421875,0.024375799580903492,0.15593173939701122,1.0487923464699749,0.79886314669,1.72274511458,0.011713104645200197,0.10809138954240165,Null
-0.8449697898770075,-1.70629882812,-0.33630371093,0.05431516643547174,0.23276536929409236,0.40130204274082293,-0.06726074218,0.94995117187,0.03392521075149225,0.18395817249695975,-0.41027953796788025,-0.76123046875,0.14733886718,0.03688501119446202,0.19181508966425126,1.0699787965444638,0.77141628689,1.80714512147,0.0233635677905544,0.15266074979912592,Null
-0.9338846995378195,-1.17126464843,-0.85437011718,0.003343243482521672,0.05774828504964022,0.2866559709788972,0.1767578125,0.40686035156,0.0013877109752086809,0.0372052819212506,-0.31799041059403504,-0.79968261718,0.33264160156,0.027024158310750203,0.16418413014257235,1.040647972773634,0.92604280149,1.27801271005,0.004428652264581015,0.06646467396648982,Null
-0.9095462028486535,-0.923828125,-0.90161132812,1.695249220565947e-05,0.004112203383102479,0.2808064677137406,0.26574707031,0.29479980468,3.824841649537941e-05,0.006176814220178789,-0.3552949291769576,-0.37426757812,-0.33947753906,3.5333481808248424e-05,0.005936780978550601,1.016085186044115,1.00651169152,1.03819038963,2.2313091433293934e-05,0.004717779966653758,Null
-0.9077764892542501,-0.94787597656,-0.84765625,0.0010089479887101255,0.03172421186945942,0.28344360351255,0.26135253906,0.29553222656,6.09844265706162e-05,0.007799484951212462,-0.358487854000075,-0.38122558593,-0.33386230468,9.438949634457791e-05,0.009703273808551238,1.016368345543025,0.95494646596,1.05463141539,0.0010513042825235634,0.03238326762106095,lift up
-0.9086286968088528,-1.08959960937,-0.67687988281,0.005090458623189935,0.0712584325722808,0.25525572055793017,0.13745117187,0.31591796875,0.001451397046215801,0.0380496728265865,-0.3955537791229925,-0.54406738281,-0.26037597656,0.004049494644217006,0.06355624401923406,1.0262471582748378,0.84531686256,1.20271319611,0.004617607052632221,0.06786819448809976,Null
-0.9199894878768422,-1.16845703125,-0.62622070312,0.010739460310186617,0.10350142206539766,0.28868925242401,0.06884765625,0.85229492187,0.021386273979399056,0.14605709258793345,-0.3257343798913033,-0.57836914062,0.08166503906,0.01790202244041107,0.13363066719974737,1.0363062430693233,0.70606284446,1.30767444374,0.011826413102634421,0.10861295028469262,Null
-0.8112613364013965,-1.49401855468,-0.29125976562,0.05882838377039978,0.2422430175907473,0.26283534327945135,-0.14562988281,0.66174316406,0.02597604015122067,0.1609697549113811,-0.5569200777315462,-1.17407226562,-0.15393066406,0.04593282470254726,0.21405204742079595,1.0560680728487282,0.5665103159,1.71857953093,0.05265008966290674,0.22916979007103824,stairs down
-0.91010253905915,-1.67700195312,-0.45361328125,0.06334115324169681,0.2513618912217852,0.14548706054410002,-0.57458496093,0.4765625,0.04053528178955621,0.20108193251777326,-0.555687866207,-1.52917480468,-0.18920898437,0.056726131776295825,0.2378745813382655,1.11478402584715,0.5033990836,1.8877911531,0.07588948084739738,0.2751358885083494,stairs down
-0.8129497327264662,-1.29016113281,-0.47351074218,0.02723284942612385,0.16481685796868567,0.16219809777984964,0.01391601562,0.30493164062,0.0036781142413349656,0.06057141165519463,-0.5752164223992982,-0.88415527343,-0.21423339843,0.018409073767087794,0.13550991010843577,1.020528897408797,0.65183848383,1.42590760494,0.025851411841523276,0.16058213267874727,stairs down
-0.9157337369430923,-1.90551757812,-0.22924804687,0.11091555139612355,0.3326243436838257,0.21768211307486288,-0.59265136718,0.890625,0.07652731178449747,0.27629055468469693,-0.46792716694209474,-0.81127929687,0.16845703125,0.039117493295094084,0.19753466388586793,1.1253363316155363,0.63012795815,1.92996684843,0.06468442949879236,0.2540140186969136,Null
-0.8964312744102501,-1.2236328125,-0.5927734375,0.023757578522519075,0.15394214684813504,0.2512969970669,-0.11450195312,0.43786621093,0.008924793844090298,0.09435296423260942,-0.44617980956645,-0.82055664062,-0.23278808593,0.013238886603449095,0.11491644524149044,1.04245587164255,0.69448252229,1.37597671952,0.024970270117729867,0.15782219249026908,Null
-0.6559567260718749,-1.73046875,0.18310546875,0.2560969335740112,0.5054272363457238,0.390455322261875,-0.04797363281,1.31762695312,0.056754139250837124,0.237933297171098,-0.52771728515295,-1.10949707031,1.68151855468,0.18226936140302505,0.42639616320918916,1.127628510877025,0.55222317136,2.15138409469,0.08376610808268571,0.28906174567465515,Null
-0.8931054687466,-1.08801269531,-0.82446289062,0.0017061874024068837,0.04125435654450165,0.29827087401915,0.13952636718,0.90673828125,0.011135090051428181,0.10539094992597614,-0.41910095214449994,-0.72924804687,-0.22595214843,0.004322292801390753,0.06566191490801404,1.037000756719,0.94296336105,1.32799233166,0.004008614112468887,0.06323442557015692,Null
-0.24462371825807502,-1.16088867187,0.08312988281,0.09229160103100717,0.30341534573654916,0.638110046383675,0.19079589843,0.86059570312,0.030696169766933547,0.1749840831119111,-0.6834762573205501,-1.15368652343,-0.298828125,0.023025690703999003,0.1515523885566935,1.0299404652736752,0.59159393104,1.51799976476,0.019083764401342417,0.13797121073013408,Null
-0.93213867187115,-1.66955566406,-0.19482421875,0.0322215960973723,0.17927922943589664,0.29629882812065,-0.13757324218,1.11474609375,0.04172790635498483,0.20401859373375106,-0.43045227050369994,-0.69079589843,0.10803222656,0.016107481146930176,0.12675650848797804,1.09584532781975,0.78265849938,1.8309938385,0.030997007482316912,0.1758394579257202,Null
-0.9816769409140249,-1.64050292968,-0.16906738281,0.10742389822654325,0.32734590035767497,0.32342926025194996,-0.25415039062,1.13256835937,0.1309134042031374,0.3613670166086406,-0.51147766112925,-1.55334472656,0.267578125,0.12479242748657521,0.3528178657861004,1.27618970485235,0.84096379667,1.91748878782,0.06354114877905108,0.25175840781809744,stairs up
-1.0521600341759,-1.83972167968,-0.38732910156,0.07559310639967082,0.27459811294630493,0.1993606567362,-0.37231445312,0.73168945312,0.07329228559242906,0.27038686151225616,-0.411034545894975,-1.10168457031,0.17419433593,0.08147040027338028,0.2850731910802852,1.2204581401280499,0.70617298069,1.91246995263,0.05613698032276003,0.23663608742529768,stairs up
-0.998525695796925,-1.5986328125,-0.31689453125,0.049114869000809296,0.22134155016242946,0.22202911376577497,-0.10302734375,0.81823730468,0.029502013775088543,0.17154666636414367,-0.4144427490200999,-0.8291015625,-0.056640625,0.029146729357633485,0.17051059361294654,1.13270518516745,0.74965689678,1.63002790624,0.04258589306508534,0.20610538161926445,stairs up
-0.8901675415003751,-1.53063964843,0.16369628906,0.12510880527142043,0.35326482029525935,0.368905944821225,-0.33569335937,1.73706054687,0.1595250388497532,0.39890628755715146,-0.357518310543475,-1.14440917968,0.05517578125,0.04926514216068041,0.22167990279968708,1.1502966297908,0.69460746295,1.97807214404,0.06635698521176085,0.25727629651549994,stairs up
-1.013070068355675,-1.69812011718,-0.22888183593,0.07725697352599396,0.2776037303282846,0.25762847900124997,-0.26733398437,0.98193359375,0.08176360564877289,0.2855857080363983,-0.45420806884475,-1.20458984375,0.17700195312,0.0665446965947263,0.25763993256721573,1.2103752191713,0.63684417799,1.87826036466,0.0610137920964028,0.24670074506608566,stairs up
-0.9266406249962251,-1.27270507812,-0.47534179687,0.03714837448954063,0.19249806116768237,0.1693194580058,-0.232421875,0.86145019531,0.030242453030159,0.1736860584433408,-0.51744750976185,-0.9501953125,-0.14172363281,0.03203660361909542,0.17876384452692798,1.1027812157774,0.73347004465,1.5438025286,0.03823188451221966,0.1952851883808373,stairs up
-0.5398370361293001,-1.34753417968,-0.09265136718,0.08932969879342614,0.29850690870806085,0.52522430419595,-0.19799804687,0.99182128906,0.07052903405467717,0.2652408555813762,0.42748077392344996,-1.00769042968,1.11401367187,0.28065356942791525,0.52910484358428,1.069707828531525,0.62954301762,1.61682149642,0.04527377490680881,0.21251021262410374,stairs up
-0.27684997558245,-0.52868652343,0.01831054687,0.01217733809789551,0.11021295183711745,0.781360168453075,0.57006835937,1.0029296875,0.009805966334776404,0.09890122051289085,0.582735900875075,0.38891601562,0.75964355468,0.008417329031561905,0.09163124853991132,1.0220272734273501,0.84406400065,1.22219636452,0.012567053882035927,0.11196265559252709,Null
-0.776709594723475,-1.29370117187,0.03393554687,0.12579564360933937,0.35423319226226674,0.39836791991805,-0.29809570312,0.99951171875,0.0608662956204813,0.24640237393627135,-0.16446350097452503,-0.72021484375,0.89465332031,0.1748726493231567,0.4176547230666125,1.064703156781525,0.6406183475,1.5592691827,0.016101230405978703,0.1267319112534951,Null
-0.9189865112264001,-1.13317871093,-0.67919921875,0.009588607175995504,0.09779895530145255,0.28180938720360005,0.1123046875,0.60803222656,0.007208710224527911,0.08479792715017621,-0.382878417965275,-0.7783203125,0.107421875,0.026685885146052402,0.16315382445161153,1.05209040370045,0.88756199371,1.24063144244,0.007046514746339912,0.08383852610509122,Null
-0.953357543942175,-1.30603027343,-0.63232421875,0.020890542602939047,0.14435482758270227,0.230160522457225,0.07165527343,0.45727539062,0.008547812840245129,0.09233874218411531,-0.40613800048494997,-0.69030761718,-0.06140136718,0.017642737192222757,0.13265982944826288,1.0721353126061,0.72785164691,1.42509925417,0.02436271628529956,0.15589037652974705,Null
-0.6575061035122749,-1.25305175781,0.04931640625,0.0701946727597353,0.26461138690131225,-0.004616088867474999,-0.85363769531,0.34790039062,0.03946021723126174,0.19839749667821815,-0.7457635498005502,-1.53308105468,-0.3447265625,0.053272085275970334,0.23051877377511015,1.049697505207425,0.66066909372,1.82245132955,0.04927685417048728,0.22170625168240307,stairs down
-0.818937683102375,-2.21948242187,0.95568847656,0.3578636964225823,0.5974688587546014,0.07725769042814999,-0.97790527343,0.80822753906,0.11930086751407779,0.34496755694600123,-0.448165588376,-1.42114257812,0.72790527343,0.13998757229758965,0.3736811520090968,1.1604646334105002,0.37838652449,2.46992125974,0.14677810991407736,0.38263711874214734,stairs down
-0.7649438476525751,-1.69018554687,-0.00805664062,0.12863829192055312,0.35821319935305534,0.05250030517464999,-0.49255371093,0.466796875,0.035358844852338166,0.18780428040970557,-0.7069760131796999,-1.38586425781,-0.21398925781,0.05656771041015818,0.23754218811430694,1.1105689041678,0.54497605741,1.85231473184,0.07454696689646505,0.2726913997162798,stairs down
-0.914642639156325,-1.48254394531,-0.45373535156,0.035808888760978874,0.1889956786254025,0.12328033446965002,-0.16235351562,0.42041015625,0.013334466174540734,0.11533052505344968,-0.538152770992625,-0.87463378906,-0.18896484375,0.018384362338772848,0.13541935398208751,1.087145583015575,0.78158579285,1.68380635948,0.02691827816523055,0.16386269395386333,stairs down
-0.813851928707375,-1.37438964843,-0.32678222656,0.039054820925491965,0.19737574286922452,0.04471435546712501,-0.29699707031,0.25256347656,0.015278859693485292,0.12345307831014818,-0.6241601562462751,-0.96472167968,-0.279296875,0.021249264935731246,0.1455889479781756,1.04870680765695,0.6580709217,1.59726192579,0.029612286572257663,0.17186697139307197,stairs down
-0.9435229492149501,-1.21630859375,-0.44897460937,0.020909464514692996,0.14442018852434124,0.17315734862907498,0.01550292968,0.36975097656,0.01083704171882244,0.10397090513468363,-0.471691894528025,-0.72082519531,-0.24951171875,0.009809459958804743,0.09891883697712854,1.07596030862445,0.63503788904,1.36007438404,0.026540107253003372,0.16270758121510767,stairs down
-0.8056683349570499,-1.36853027343,-0.4462890625,0.03042375397209434,0.1742058971078881,0.12110229491952498,-0.10986328125,0.33288574218,0.007695616861418181,0.08761494061668156,-0.604515686031225,-0.86267089843,-0.31396484375,0.017215860150483906,0.13104510864625088,1.02933115407965,0.68700114488,1.51539037304,0.02494307227572583,0.15773621839969576,stairs down
-0.9205340576136001,-1.21936035156,-0.58239746093,0.014178548387570029,0.118924774612362,0.1529336547815,-0.02014160156,0.36560058593,0.009059172218043095,0.09506063479431423,-0.524066467281175,-0.71313476562,-0.32214355468,0.0055508157849589596,0.07441060909236372,1.07551845479055,0.77688649401,1.35560097173,0.01743752839663947,0.13188606664711733,stairs down
-0.851584167476775,-1.22644042968,-0.60583496093,0.021104134727506926,0.14509091767125937,0.150227966305075,-0.02575683593,0.29125976562,0.004310773756599207,0.06557436101257647,-0.54497833251565,-0.77868652343,-0.29345703125,0.013266390481336097,0.11503575316019257,1.0305802353895002,0.67937376739,1.3574290982,0.02242237065778043,0.14955371854666796,stairs down
-0.8982711791951501,-1.01904296875,-0.81518554687,0.0007668260209552757,0.0276569874697677,0.183295288082525,0.10900878906,0.26220703125,0.0008203591466178743,0.028606087616997358,-0.443161621090375,-0.56823730468,-0.29516601562,0.0018659355885347422,0.04314244719024879,1.0197435174201248,0.97753294219,1.1316084415,0.0004168127927316952,0.020390457590497228,Null
-0.7708312988246,-1.15173339843,-0.32690429687,0.04488131527162457,0.21158712622332557,0.28179077148099996,-0.01892089843,1.14025878906,0.07137190167911459,0.26682104850426774,-0.5272277831997001,-0.94384765625,0.00903320312,0.056142441722845625,0.23664759795640966,1.0521243476167002,0.67002713235,1.31751994782,0.016596583655526773,0.12866659316383547,Null
-0.7881249999968002,-1.15698242187,0.61572265625,0.1291579832338524,0.3589360503986299,0.29479492187170003,-0.0625,1.2197265625,0.05369416661133557,0.2314301864381724,-0.36384033202829996,-1.12487792968,0.55090332031,0.09556967607878061,0.30875678436041476,1.0421522422171001,0.44112314581,1.54894096954,0.032149698439703576,0.17907910038193825,Null
-0.8256616210899,-1.14978027343,-0.69299316406,0.01462622405289279,0.12078765869392684,0.545367431637,0.19848632812,0.72192382812,0.03737278402163905,0.19307861627219353,-0.12443725585639999,-0.58093261718,0.18151855468,0.0239709955987367,0.1546320410191234,1.0330028828287001,0.85974434805,1.25466335767,0.0033208034170746415,0.05755433440264908,Null
-0.7356249999958999,-0.75012207031,-0.72058105468,4.0271264279242785e-05,0.0063380269894143465,0.7019458007778,0.67724609375,0.724609375,0.0001103839838472244,0.010493237054770389,-0.0578271484336,-0.07250976562,-0.02551269531,5.397135751285758e-05,0.007337331198676767,1.0185210310834,1.00234256485,1.03348797655,3.51390725160944e-05,0.005920407488915282,Null
-0.7320043945272999,-0.80578613281,-0.68237304687,0.00022618668419849148,0.015020692976290915,0.7087243652306,0.65783691406,0.78649902343,0.0002557835946343657,0.01597323184730566,-0.0586096191375,-0.11315917968,0.04919433593,0.0005746986198995054,0.02394288774040752,1.0210437410488,0.99053124486,1.06190659978,7.965215749350331e-05,0.00891364275141031,Null
-0.6368066406217,-0.90283203125,0.43041992187,0.12261948163488474,0.34973265922815605,0.6196972656215999,0.19873046875,1.11901855468,0.021941614724599483,0.14794174761637766,-0.2578295898396,-1.01354980468,0.13696289062,0.06267056579269346,0.2500277772132763,1.0269812983627,0.67029776745,1.44141473741,0.00806665841355615,0.08970223947885726,lift up
-0.7615795898400001,-0.7734375,-0.73596191406,5.0205341851635315e-05,0.007076710287768338,0.6538208007769001,0.63049316406,0.67724609375,6.992610773758065e-05,0.00835172392193592,-0.178863525387,-0.1953125,-0.15295410156,6.140992605197764e-05,0.00782664687058562,1.0196209426725,0.99783168346,1.03504576183,3.1571620161151646e-05,0.0056118349147804385,lift up
-0.7664526367150001,-0.79553222656,-0.71960449218,0.0002545586146239286,0.01593493702803274,0.6237768554651,0.57482910156,0.65698242187,0.000344265068971064,0.01853117390503463,-0.1857800292938,-0.20471191406,-0.16333007812,6.372053073116021e-05,0.007972529674095438,1.0056913281887,0.9551038602,1.02437323097,0.0003080393849362703,0.01752909827897401,lift up
-0.7797787475547,-0.84619140625,-0.73620605468,0.000475614661624924,0.021781313664948256,0.6336059570275749,0.57934570312,0.72778320312,0.0007822564371331619,0.02793386468142797,-0.175479431148925,-0.23425292968,-0.08776855468,0.0005641746826208262,0.023722652590177896,1.0208077720305,1.00597446857,1.05272795581,7.360191121189655e-05,0.008568424968094592,Null
-0.7613342285119,-0.80432128906,-0.72705078125,0.00023289801631766504,0.01524190838697277,0.6354907226519999,0.59887695312,0.68981933593,0.0003960890937285065,0.019877094128523547,-0.1751184081988,-0.20092773437,-0.13232421875,0.0002602010905600946,0.01611057378971011,1.0072916690067002,0.95868303649,1.03473062222,0.0003961721825343558,0.019879178858243113,lift up
-0.46919342040897505,-1.07934570312,0.484375,0.3733025198019379,0.6102206678755097,0.34846557616849994,0.08410644531,0.93542480468,0.02999384530344792,0.1729706931540407,-0.553830261227275,-0.89306640625,-0.21960449218,0.04136134257579096,0.20312050418249628,1.038333647151175,0.73940584018,1.36971330841,0.013663644491753618,0.11674538697749147,Null
-0.39665954589705005,-1.54602050781,0.42016601562,0.3561416189253362,0.5960295838949798,0.34855316161755,-0.3056640625,0.88732910156,0.055717633955112075,0.23575058827121576,-0.614554138179975,-0.98596191406,-0.31298828125,0.03694304173658682,0.1919653201290414,1.03778612396305,0.57631257489,1.67661612283,0.027253273555668707,0.16487916900500055,Null
-0.0008850097657250444,-1.53515625,0.64807128906,0.3570996247620386,0.5968306926592613,0.5897357177697999,-0.35974121093,1.08703613281,0.058913436849739854,0.2424173122068956,-0.496488342281375,-1.11779785156,-0.08874511718,0.050918747659302134,0.2253695871011745,1.0154612452215,0.41064072107,1.69097395343,0.028845083671397362,0.16962597372519006,Null
-0.355813598632075,-1.53515625,0.56420898437,0.4118613461665351,0.640961537692488,0.5420901489229251,-0.54711914062,1.13793945312,0.13999505469439238,0.3736911385859402,-0.28339569091609995,-0.75573730468,0.2451171875,0.0861467072075549,0.2931404790190806,1.0520291901820749,0.5661954948,1.69097395343,0.030497090191252244,0.17441573170380623,Null
-0.7687490844684749,-1.06518554687,-0.119140625,0.06306063750091191,0.2508046768047989,0.445285339351,0.17248535156,1.11926269531,0.078932824782913,0.28059845459473887,-0.32189392089484997,-0.70239257812,0.21337890625,0.030299061341769663,0.17384853663006555,1.0294078191680252,0.85016008265,1.23961725575,0.0050638784721453185,0.0710719267781939,Null
-0.9226043701137999,-1.0419921875,-0.84216308593,0.0011251991460880088,0.03350203200139939,0.272297973628925,0.09387207031,0.51818847656,0.00476787125819148,0.06896340754375468,-0.365032958980475,-0.70239257812,-0.22155761718,0.0037017116197509766,0.06076559339545364,1.0326328927422,0.9180382479,1.18515943452,0.0018387721644022134,0.04282727208206481,Null
-0.8829666137655,-0.92321777343,-0.82019042968,0.0004223665586563442,0.0205258530214874,0.31969482421510004,0.23852539062,0.38232421875,0.0005291311424268174,0.022974079188745528,-0.3770678710897501,-0.41052246093,-0.32360839843,0.00015385253088427182,0.012388216157181837,1.0122416775753502,0.93076838642,1.06171796572,0.0004855880716153678,0.02200850066306947,lift down
-0.89926422118755,-0.93994140625,-0.87963867187,0.0003104688043138657,0.01759808604090459,0.320678100582775,0.30786132812,0.34936523437,0.00010124857226359485,0.010049649289051625,-0.38416412353170004,-0.40539550781,-0.36889648437,6.601785423376279e-05,0.008114974405269457,1.0291641941089251,1.0059067576,1.07481986826,0.0003912380637404784,0.019754998572035564,lift down
-0.9166928100552251,-1.1025390625,-0.70092773437,0.006553722320460618,0.08085380643271822,0.252631835934075,0.09985351562,0.36865234375,0.004206490940984231,0.0647763437809805,-0.40497131347294996,-0.55883789062,-0.26086425781,0.005092581477303047,0.07127306660730819,1.03761651403565,0.8364099344,1.21877932513,0.007333784283246243,0.08553040291345602,Null
-0.9245852661091751,-1.10083007812,-0.80810546875,0.0030690281686063694,0.055329518325979064,0.25324218749627503,0.13598632812,0.3681640625,0.0016113199446701465,0.04009104195214277,-0.35340118407872495,-0.59313964843,-0.16149902343,0.006761348839079174,0.0821245728572239,1.026276357881825,0.89670338168,1.17649191863,0.0020569891809402966,0.04529731457810657,Null
-0.964201660152825,-1.17944335937,-0.755859375,0.010212795214561074,0.10093197326181963,0.266212158199525,-0.01770019531,0.4990234375,0.013734683415333083,0.11704848015585145,-0.34845092773034997,-0.69116210937,0.09545898437,0.02238948766279975,0.14944401608509705,1.0770372486899749,0.84589848013,1.25877708861,0.008204202970533666,0.09046376325970158,Null
-0.7283560180623251,-1.15930175781,-0.11022949218,0.08155780586904211,0.28522607060780664,0.4953997802699,-0.01025390625,1.01452636718,0.05597515722807034,0.23629477212795072,-0.37679656982055,-0.83666992187,-0.02612304687,0.021455514590778227,0.14629379960989897,1.0330425785684,0.67070039938,1.39380849813,0.009336464890137636,0.09650452698144421,Null
-0.8388250732382749,-0.90942382812,-0.78918457031,0.0003054929403194119,0.017456494721696372,0.41572052001619997,0.26208496093,0.4453125,0.0007614611114612004,0.02756007000503713,-0.40829559325785,-0.48596191406,-0.29602050781,0.0006627240081513511,0.025711227083337986,1.02208418057145,0.94714475037,1.07258038513,0.00022619290398439912,0.015020899497847595,Null
-0.887026062008125,-0.9541015625,-0.70666503906,0.0026690107642662183,0.051597851092420044,0.3554776000936249,0.26208496093,0.53796386718,0.0036818406373671526,0.06060227748008926,-0.35752349853154997,-0.49621582031,-0.25537109375,0.001162749998598638,0.03405646962916358,1.0233171132296999,0.88927956229,1.08320777498,0.0013228210748364036,0.03632511558342675,lift up
-0.8835211181596,-1.08081054687,-0.70361328125,0.004981498849314234,0.0704914541075083,0.38477050780905003,0.07470703125,0.72412109375,0.015580096316649623,0.12466413307707233,-0.327987060543225,-0.58142089843,-0.109375,0.010138368294182456,0.1005635240703457,1.028571054796075,0.76477528149,1.31342056892,0.008920521891773578,0.09433037997932661,Null
-0.8841906738247749,-1.06372070312,-0.7099609375,0.0037688482360185016,0.061314159175743864,0.38203155517197496,0.07885742187,0.68383789062,0.009450956461890222,0.09709443377833508,-0.33516052245764993,-0.58837890625,-0.07641601562,0.008705491063277867,0.09318651906590175,1.0281941512201,0.80412141091,1.33441500324,0.0047730351473820294,0.06900074318087866,Null
-0.7538067626919499,-1.20959472656,0.68823242187,0.16941475973783607,0.41108542036721696,0.290791015621,-0.1923828125,1.03076171875,0.04582746635978663,0.21380574756981433,-0.49000122069955,-1.26635742187,-0.12878417968,0.05033445107123804,0.2240727893867525,1.0655206831576998,0.53026469804,1.47722678404,0.022519955663091628,0.14987880361790287,Null
-0.8753649902309499,-0.9248046875,-0.69311523437,0.000808947515083372,0.028406427904537093,0.24114410399987501,0.08044433593,0.29431152343,0.0011383443360460255,0.03369715826603054,-0.4455700683555,-0.54516601562,-0.42407226562,0.0003359463863052402,0.01830591490036696,1.0121038825332749,0.82997355082,1.08570214335,0.0008648897336173124,0.029372223431045685,Null
-0.6583294677705002,-1.61962890625,0.07641601562,0.18398821553688632,0.4284019666131846,0.20964843749635,-0.15270996093,0.49230957031,0.013309275990168337,0.11522153791801651,-0.6568872070274501,-1.08471679687,-0.33532714843,0.049904332447728975,0.22311336046191776,1.0609923869670501,0.73636613945,1.76985304056,0.029804443558253235,0.1724237003702148,Null
-0.79491088866795,-1.52185058593,-0.29272460937,0.036869577624976585,0.1917743561608646,0.0057818603506,-0.50415039062,0.38000488281,0.02700765676240452,0.1641345107541327,-0.6176965331991,-0.99426269531,-0.28918457031,0.017883730130402852,0.13356279723439773,1.03378895361175,0.63817347173,1.68737406613,0.026368641059309438,0.16218113162961087,stairs down
-0.8935571289023,-1.71557617187,-0.10473632812,0.06001736943902293,0.24467800476427254,0.16167480468345002,-0.04467773437,0.46899414062,0.012094428162856606,0.1098371161877872,-0.5359320068319501,-0.89929199218,-0.32397460937,0.01317965982799,0.11465910639116295,1.0721679086389,0.51256853261,1.94469729427,0.04745905313384995,0.2175785042255216,stairs down
-0.8099707031209,-1.55456542968,-0.17553710937,0.07345037638966324,0.27067831543862003,0.0821484374984,-0.60595703125,0.53796386718,0.03793589047516864,0.19452776344003114,-0.5958685302698999,-1.24877929687,-0.18725585937,0.04877461988191081,0.22057353271008295,1.057721538374,0.58114275865,1.69779309503,0.05899332617060442,0.24258162101688147,stairs down
-0.8160595703084,-1.33483886718,-0.46069335937,0.032081543867379984,0.17888918359619047,0.0681481933579,-0.30554199218,0.48693847656,0.02017341172563878,0.14185548349050411,-0.59673828124645,-0.98559570312,-0.16027832031,0.02376888105451219,0.15397876104150177,1.0344861006924,0.5571741191,1.56353697698,0.03244737783113199,0.17990625166056393,stairs down
