avg_accX,min_accX,max_accX,var_accX,std_accX,avg_accY,min_accY,max_accY,var_accY,std_accY,avg_accZ,min_accZ,max_accZ,var_accZ,std_accZ,avg_magnitude,min_magnitude,max_magnitude,var_magnitude,std_magnitude,Label
-0.06237577731073048,-0.08068847656,-0.03332519531,0.00016362742629303617,0.012775573041123199,-0.44657225332206546,-0.48266601562,-0.41638183593,0.00035678694546007714,0.0188650003389582,-0.9033393763736776,-0.92309570312,-0.87719726562,0.000129390933805092,0.011360678327347893,1.0099130696609824,0.98830962611,1.02940234923,6.346404294467165e-05,0.007956392643304703,Null
-0.1008740234364,-1.2060546875,0.69213867187,0.3393632700898682,0.5818203003631306,-0.23214355468639997,-0.73229980468,0.52966308593,0.17209618643420574,0.41432589343187354,-0.6390881347617999,-1.08251953125,-0.13610839843,0.0819156044691558,0.2858510371819261,1.0227720502819,0.35533518954,1.56277206436,0.01837473592396076,0.13538389521708577,Null
-0.8862451171839,-1.12377929687,-0.69348144531,0.004849615336032362,0.06955207615659134,0.3546362304648,0.14733886718,0.50036621093,0.005965071925525955,0.07713727533243665,-0.39654541015250006,-0.70483398437,-0.12329101562,0.01084001933730466,0.1039851878344286,1.0416510338573999,0.8373200935,1.30034841604,0.005021773935937428,0.07077583981202613,Null
-0.8807577139155994,-1.11279296875,-0.73754882812,0.00619595706835614,0.07865229981004501,0.3398637741488171,0.14892578125,0.48022460937,0.0032175054985598725,0.05667830774424567,-0.4169954606752051,-0.57666015625,-0.24157714843,0.006079178487056314,0.07790757265795976,1.0364956925065458,0.88030001014,1.29216578348,0.006427346383917578,0.08010748163309056,Null
-0.915077389473176,-1.26953125,-0.57873535156,0.03858496900781723,0.19625224034602481,0.3433780289346824,0.23913574218,0.44677734375,0.002528374486949096,0.05023729476714363,-0.417884563573539,-0.63366699218,-0.05834960937,0.01890107772385562,0.137356377709579,1.0731066999525771,0.70521857851,1.45065620368,0.03831966627030953,0.1955763804668082,stairs up
-0.8967994103027692,-1.27331542968,-0.5146484375,0.03564728468056385,0.18862325469046573,0.3455784724265961,0.0517578125,0.55224609375,0.00909238912368931,0.0952622892858969,-0.43504310020630765,-0.68127441406,-0.09729003906,0.021167198346764806,0.14534955175747172,1.0697679849434039,0.67908036311,1.41848661881,0.034378861716064316,0.18523700634715648,stairs up
-0.9480859139074396,-1.26635742187,-0.67077636718,0.02681598599458305,0.16355798079443465,0.3087848165722464,0.00366210937,0.50512695312,0.006049011425410312,0.0776814024506612,-0.3643848953578261,-0.62280273437,-0.05822753906,0.023830156215831608,0.154183641972893,1.0748045990490096,0.74715246609,1.46143571752,0.02841322873386278,0.1683585392743205,stairs up
-0.923892517086275,-1.4033203125,-0.59265136718,0.03641223249038935,0.1905812212920344,0.31946502685190004,0.07849121093,0.55480957031,0.005373793798485662,0.07321447475731453,-0.37265289306255,-0.59875488281,-0.07177734375,0.017907297562653544,0.13365077373044612,1.05752765759165,0.70179966951,1.52224122053,0.03577424480198618,0.18890423285353142,stairs up
-0.8957321166956,-1.20202636718,-0.56201171875,0.02312070962025588,0.15186476828483045,0.35588867187132495,0.12780761718,0.79370117187,0.009170388165569192,0.09564236611018816,-0.4008758544887,-0.66076660156,-0.08862304687,0.022329281810119256,0.14924295161110276,1.0546445264528002,0.64744073022,1.46123999253,0.03198293115728114,0.1786140359249181,stairs up
-0.9341314697231999,-1.29248046875,-0.58471679687,0.03351659995832924,0.18284640674192484,0.3198364257777,0.18896484375,0.69128417968,0.006425721752941397,0.08006033630056174,-0.38497711181285,-0.60656738281,-0.06164550781,0.02096066358315053,0.1445968945869608,1.07176363203885,0.69103521962,1.44173543422,0.03526592829299882,0.18755736048544275,stairs up
-0.9067935180623001,-1.32153320312,-0.58837890625,0.04032529151452286,0.20056041056433982,0.33934936523044995,0.13195800781,0.46643066406,0.0040303335378838335,0.06340550215903289,-0.380997619625225,-0.61743164062,-0.07165527343,0.017445604901814394,0.13191660581427897,1.05043065235135,0.69143398681,1.48905155942,0.04093617415898727,0.20207383235735843,stairs up
-0.9053268432580001,-1.22814941406,-0.61474609375,0.021360432759560496,0.14596928333612383,0.3379837036098,0.1923828125,0.47045898437,0.0031636746618927767,0.056176200256318906,-0.41618621825835,-0.60424804687,-0.15393066406,0.01636651441400587,0.12777166402599152,1.061032733519875,0.78388812011,1.35156557049,0.022113863638104258,0.14852130816488587,stairs up
-0.909342346187975,-1.25854492187,-0.58227539062,0.040603310347075865,0.20125059520709043,0.3283911132773,0.19970703125,0.48486328125,0.0030849173792283717,0.05547256155776747,-0.396581115718175,-0.61352539062,0.03479003906,0.020373520388707125,0.14255730983620363,1.05638087964975,0.69470610589,1.42011662109,0.04218229042306808,0.20512638713000922,stairs up
-0.8887564086873,-1.12158203125,-0.712890625,0.006391403115532534,0.07984625606591522,0.32419342040654997,0.13977050781,0.46496582031,0.0034682768545179145,0.05881841686395189,-0.42186614989825005,-0.63952636718,-0.20593261718,0.010032772005788297,0.1000384429895519,1.041130502829625,0.7954702618,1.34996037535,0.008593413459904425,0.09258471756318461,Null
-0.549459533687625,-1.04406738281,-0.02893066406,0.09126486534381119,0.3017228913762621,0.6245513915979751,-0.01391601562,1.00866699218,0.10719585903246019,0.32699827122613206,-0.29027221679617504,-0.9541015625,0.13537597656,0.1175667625144644,0.3424512309923535,1.040908861756825,0.80092829773,1.35683259316,0.007994325254363796,0.08929915700177626,Null
-0.8774545288048751,-1.00134277343,-0.63024902343,0.002239946224676484,0.04726887304680315,0.34227874755480003,0.146484375,0.70300292968,0.006243188126396557,0.07891501857112222,-0.40296569823895,-0.90148925781,0.05798339843,0.01428907797393527,0.11938741675319235,1.03343328977315,0.90916458428,1.31333999207,0.0037212987882742805,0.06092614825593027,Null
-0.885217895504,-1.00378417968,-0.81396484375,0.0009308271834248057,0.030471299865057342,0.35375671386315005,0.17224121093,0.49230957031,0.0010642583265100514,0.03258216813985491,-0.35524169921505006,-0.56799316406,-0.2822265625,0.002283235396973413,0.047723446108605565,1.01886754700395,0.93007377005,1.16240186456,0.0011305731868016839,0.03358194088844002,lift down
-0.9124316406206501,-1.06530761718,-0.87194824218,0.0011310746257346515,0.03358938729971588,0.34952880859014995,0.28784179687,0.37548828125,0.0002069974363963067,0.014369409967194754,-0.3414758300742,-0.37951660156,-0.24670410156,0.000311730844625813,0.017633817440198492,1.0354195575582499,0.98255905043,1.14349649804,0.000861802097534786,0.029319747479999703,lift down
-0.88997314452735,-1.23754882812,-0.66931152343,0.010139837067758816,0.10057080826506974,0.35745727538695,0.1875,0.5986328125,0.008414847598361188,0.09161774107325112,-0.42459167480135,-0.68969726562,0.03857421875,0.01510204214143569,0.12273665726294693,1.0601975094403,0.81134195513,1.30702935838,0.00968402805642826,0.09828437305231788,Null
-0.88126953124635,-1.04626464843,-0.77490234375,0.00330462596762074,0.05741397393232494,0.3287115478477,0.19567871093,0.46252441406,0.0029948513158415263,0.054656785375211396,-0.42056396484025,-0.65234375,-0.18481445312,0.009492506992912502,0.09730763446631627,1.03621710313805,0.86342370251,1.23480474258,0.0035768785921622423,0.05973220568237738,Null
-0.8818609619102,-1.11206054687,-0.68200683593,0.011084035270151574,0.10514906172656129,0.324258422848,0.20703125,0.42590332031,0.002646343441783994,0.05137827929368143,-0.42702331542615,-0.59887695312,-0.17004394531,0.012349857787771043,0.11099091468810236,1.0386058422581,0.80558043074,1.28340854481,0.012515421738727753,0.11173241778633869,Null
-0.9310546874958,-1.21252441406,-0.60107421875,0.029422778981664222,0.17131614644921844,0.3033532714805,0.11743164062,0.43725585937,0.0046763202764774706,0.06829809276829242,-0.3787127685507,-0.61193847656,-0.10559082031,0.012687619508995773,0.11249844647915493,1.05835077461565,0.7638372647,1.36027412714,0.02894515221328635,0.16991994977857408,stairs up
-0.90056823730105,-1.30529785156,-0.54943847656,0.03844640828575262,0.1958323064896041,0.30897033691025,0.11633300781,0.41821289062,0.0028461263857130228,0.053282371097284516,-0.4046588134731499,-0.67785644531,-0.138671875,0.01595324985626696,0.12614819353294876,1.043591486795,0.64778068322,1.4899156562,0.03834992802361219,0.1955864340989762,stairs up
-0.8782989501913001,-1.04650878906,-0.74841308593,0.003120105284133526,0.055788036539415796,0.32461242675389995,0.24328613281,0.40185546875,0.0011787637788047759,0.03429018619602063,-0.41897766112955,-0.60864257812,-0.19140625,0.0070940857360045255,0.0841210468412306,1.0294786105037,0.82676135557,1.24552659428,0.0038724982103213626,0.06215156445975885,Null
-0.8860046386678999,-1.06896972656,-0.59692382812,0.0071474541921555034,0.08443687320522424,0.33223876952735,0.2412109375,0.44274902343,0.002699054572144639,0.05188744487556,-0.406104125973,-0.62805175781,-0.18798828125,0.008120017347070374,0.08999842945131152,1.03404667670845,0.76686344411,1.29567595859,0.008998958433149917,0.09474418735240195,Null
-0.897719726558875,-1.19067382812,-0.625,0.019927232047392163,0.14098728299840976,0.2730895996062,-0.2158203125,0.61047363281,0.02888389103493791,0.16974004037748597,-0.4060559081997999,-0.7236328125,0.26831054687,0.03124369926429749,0.17653778636919842,1.0490258581215999,0.78516870934,1.39013476785,0.02389434269604963,0.15438460687293118,Null
-0.9034182739222001,-1.29113769531,-0.77014160156,0.01019748288722766,0.10085627982435992,0.25077087402027504,-0.11083984375,0.53112792968,0.011812352234215564,0.1085487049836617,-0.318064880368175,-0.70910644531,0.67272949218,0.09116581025947285,0.30155910819244736,1.042800312737225,0.8926042098,1.3696195823,0.005598718107529064,0.07473099298323448,Null
-0.8431533813438751,-0.94360351562,-0.71496582031,0.0019434288606573428,0.04402919813607442,0.38838043212562495,0.29333496093,0.60375976562,0.006181334453552867,0.07852312473035562,-0.385083618160475,-0.59387207031,-0.0380859375,0.007461823227562265,0.08627380059724597,1.0114352356639,0.86653864702,1.1370902028,0.0019345310341595846,0.04392829050366274,lift down
-0.856522521969075,-0.86950683593,-0.845703125,2.848112260402672e-05,0.0053300956649498,0.34337066650027503,0.32177734375,0.35852050781,8.71656076075261e-05,0.009324574713546313,-0.4332131957969,-0.44323730468,-0.41625976562,3.483747620347465e-05,0.005894945505512834,1.0194750983482501,1.00569395167,1.02975886362,2.862166573716609e-05,0.005343230443544726,lift down
-0.8465521240193,-0.9326171875,-0.80163574218,0.0007303303043302892,0.026990822117332097,0.36132965087485003,0.22021484375,0.43383789062,0.0019821883494417695,0.04446608683669123,-0.4685540771446749,-0.53771972656,-0.36486816406,0.0012213359795298384,0.0349039057926332,1.034440267288025,0.9615928617,1.09041018788,0.0006114204562595998,0.024695989656601143,lift down
-0.846746520992625,-0.92272949218,-0.73303222656,0.0012933386708579681,0.03591803619605091,0.38167968749637493,0.23388671875,0.54504394531,0.005257050369617634,0.07241483096502808,-0.4184268188441,-0.51965332031,-0.34484863281,0.0016472175492343321,0.04053516381317888,1.02258539752655,0.96269786677,1.0676684752,0.00023686689556756368,0.015371230540481942,lift down
-0.8216256713828501,-1.09729003906,-0.58605957031,0.009284582707182368,0.09623601846717482,0.4569277954067,0.0546875,0.86486816406,0.020619060300657327,0.14341378124122411,-0.38980957030889996,-0.68408203125,-0.04321289062,0.016468783930724554,0.12817024604368107,1.0343400350038001,0.72216525538,1.35722170664,0.012231020608273056,0.11045561577734457,Null
-0.807092285152125,-1.26135253906,-0.47131347656,0.04916277654787664,0.2214494741617305,0.5207574462860749,0.2353515625,0.92553710937,0.02081358444673341,0.14408868965195212,-0.30352355956652505,-0.59143066406,-0.10131835937,0.009263420669250828,0.09612628213749715,1.0204604712803,0.60546324942,1.44791678273,0.052546300342211555,0.22894308155381332,stairs up
-0.8807705688435251,-1.28466796875,-0.50317382812,0.0333625930927559,0.18242583865786124,0.39524169921477503,0.24682617187,0.71594238281,0.012146442719226156,0.11007305125428336,-0.32026397704737497,-0.60437011718,0.017578125,0.021300575405941647,0.1457646183661412,1.034867274412075,0.69138786593,1.48878190237,0.030309897018237438,0.17387962007001234,stairs up
-0.9171240234334,-1.23876953125,-0.63452148437,0.023990219003883248,0.15469403174128452,0.33897491454702505,0.19287109375,0.47412109375,0.0034210016956491536,0.05841617234473713,-0.39524383544529995,-0.58374023437,-0.09228515625,0.018672095520517937,0.13647496210556953,1.0636697430719,0.74236349729,1.43504298183,0.026880142470981878,0.16374657894076572,stairs up
-0.912084412986808,-1.32006835937,-0.58215332031,0.04358958912003521,0.20852071096842698,0.3303731028837406,0.21057128906,0.42907714843,0.002294418195267552,0.04784032247103087,-0.41911304501997504,-0.62561035156,-0.14697265625,0.01525622546257725,0.1233619877131764,1.0658869099129178,0.69857406731,1.49695805715,0.04167689909386112,0.20389449888893077,stairs up
-0.9224134555101003,-1.27856445312,-0.52404785156,0.0364523856706151,0.19068567410278126,0.3241970282113533,0.19165039062,0.45361328125,0.0031676088133352574,0.056210941498332,-0.3824664811403258,-0.5849609375,-0.12194824218,0.015869118800598544,0.12581473114475952,1.05861936772406,0.65252777747,1.42930926338,0.03699871090679821,0.1921092978177639,stairs up
-0.9282922363246001,-1.32531738281,-0.54406738281,0.03726554701352695,0.19280140856848826,0.339166870113675,0.14013671875,0.73400878906,0.010000587002297482,0.09987785307460177,-0.30919982909785004,-0.56408691406,0.09484863281,0.02828251671322317,0.16796371757448128,1.0540000768474251,0.69555862228,1.41252387625,0.03690104584053716,0.19185617849299463,stairs up
-0.9262670898399,-1.25524902343,-0.58923339843,0.038289387566651255,0.19543199353671503,0.335798645015825,0.19934082031,0.54724121093,0.003988500654107107,0.06307558483654226,-0.35259735107077506,-0.57885742187,-0.07678222656,0.015029050122156544,0.1224396892222908,1.05631797427125,0.71120633292,1.39797653294,0.03650361095487556,0.19082020838341093,stairs up
-0.8995071411095751,-1.23095703125,-0.58117675781,0.01901634125029093,0.13772726816852646,0.34530364989859996,0.04321289062,0.84899902343,0.013225734506249072,0.11485934951053592,-0.371682434078525,-0.6552734375,-0.07836914062,0.016117517975010934,0.12679599433765013,1.044488715156875,0.65912138504,1.51102153954,0.023837150878836803,0.15419973411663104,Null
-0.8815793158669576,-1.21044921875,-0.68469238281,0.006979627043316759,0.08343992743041413,0.32478800556822945,0.18090820312,0.47863769531,0.0040893048625815585,0.06386788782200682,-0.4344546348934414,-0.6181640625,-0.18664550781,0.007760019224074003,0.08798106361704226,1.04028032899399,0.74157980082,1.39728411736,0.008691766759460953,0.0931133262784354,Null
-0.861837210209198,-1.03845214843,-0.03430175781,0.027322723653237728,0.16508859939164267,0.36013862781586464,-0.07263183593,1.041015625,0.03240310089696121,0.17978289717815438,-0.3955766491387218,-0.73583984375,0.16528320312,0.018427546154331856,0.13557788104307622,1.0499005584547119,0.85774517698,1.17980681693,0.004211797711005859,0.06481698717942987,Null
-0.5283984374971,-1.22192382812,0.15783691406,0.0994723875470589,0.31499794694281935,0.8236621093708999,0.3056640625,1.326171875,0.022610618153843392,0.15018019712484992,0.0420410156226,-0.53039550781,0.22326660156,0.010355927591211496,0.1016367933980282,1.0357975580342,0.80609567813,1.6267981713,0.018669554775424233,0.13646567659483344,Null
-0.6637554931604001,-0.72192382812,-0.58288574218,0.0007372563460939237,0.027118503004935374,0.764479370113975,0.69262695312,0.83862304687,0.0005853897911906514,0.024164567381036946,0.09945129394135,0.001953125,0.22814941406,0.004271945304694857,0.0652783688631473,1.020038426337925,0.99195602299,1.04532840699,7.404874559084902e-05,0.008594394901729377,Null
-0.7200939941372,-1.15686035156,-0.47937011718,0.019598099968963993,0.13981811298627078,0.6603405761681,0.03149414062,0.98425292968,0.03990953533123681,0.1995238369040369,0.036925048826400006,-0.59143066406,0.37426757812,0.04560112489844361,0.21327710164524813,1.0274798957831002,0.79174075386,1.24566897862,0.005092278914074732,0.0712709493187059,Null
-0.9274060058559,-1.03833007812,-0.74462890625,0.0026237440870968557,0.05115842772094461,0.3093359374957,0.09252929687,0.4619140625,0.0063707672205149096,0.0797172522259995,-0.28599731444939996,-0.58508300781,-0.16674804687,0.011420126515519363,0.1067313271688803,1.0272411702995998,0.8747168747,1.14007473436,0.002711042673985581,0.052002548661585976,Null
-0.8911669921839,-0.91296386718,-0.84265136718,0.0004254096492488201,0.02059966322845347,0.3740612792931,0.36083984375,0.39111328125,3.52416405975858e-05,0.005929041785659115,-0.29009033202779994,-0.30407714843,-0.27197265625,5.009932625757179e-05,0.007069234607928065,1.0091199256517,0.95938283873,1.03159735349,0.0004403997530630021,0.020959454994830963,lift down
-0.7924670410118,-1.12658691406,-0.099609375,0.04019842556972681,0.20024467410096702,0.5969348144491,0.310546875,1.13366699218,0.04146643542261254,0.20337838954533985,-0.2043286132786,-0.62109375,0.35729980468,0.030240681242498766,0.17368097057361384,1.0511535650737,0.33708885192,1.43090719819,0.032869500762669306,0.18107271194402164,lift down
-0.6768884277303999,-0.70788574218,-0.64086914062,0.00021807270688827785,0.014748814363231274,0.7663537597622,0.73693847656,0.82409667968,0.00044810845289399505,0.021142095018274798,0.0331323242154,-0.01184082031,0.06237792968,0.00020905341120531907,0.01444059478267103,1.0233385901293,1.00835414495,1.07778897784,0.0002255198418459795,0.014998534669805733,lift down
-0.76033386230065,-0.89331054687,-0.57287597656,0.005109366931088867,0.07139043012730169,0.679193420406025,0.49938964843,0.86877441406,0.00675792376261258,0.08210376942142211,-0.020711059570275,-0.322265625,0.21936035156,0.011366324283407564,0.10647961529184376,1.0283805126077252,0.8243207552,1.23144150687,0.005462942058185997,0.07381927053988364,Null
-0.801098632808625,-0.91088867187,-0.51879882812,0.006417297032270022,0.08000783580180973,0.611584167476875,0.47863769531,0.85791015625,0.006500130204537496,0.08052254267611121,-0.032994689941275,-0.34606933593,0.13464355468,0.009947924564691263,0.09961453083400802,1.018458062514275,0.87065218523,1.18653837594,0.0024403271010412756,0.04933787878789148,Null
-0.7799594116173251,-0.94677734375,-0.62719726562,0.006643057537958133,0.08140300912198048,0.63883728026985,0.41003417968,0.83117675781,0.01159632122277852,0.10755152448813346,-0.017901611327525,-0.29541015625,0.25756835937,0.009795325852031711,0.09884754694680913,1.0217548250168,0.95116212279,1.08880544581,0.0007538020327448635,0.027421114632031306,Null
-0.7051243220319047,-0.76550292968,-0.64526367187,0.0008157568756034956,0.028525644114653536,0.7505895475954887,0.66027832031,0.85620117187,0.001977017492292635,0.044407911020833406,-0.07815253465338347,-0.14123535156,-0.02966308593,0.00038354734153063193,0.01955980751433852,1.034114858016015,1.00314570907,1.09625905939,0.0004687935109146159,0.021624490510405773,lift up
-0.6506572923121695,-0.79895019531,-0.56530761718,0.0033775270858262996,0.05804398612271357,0.7799248826144638,0.630859375,0.85302734375,0.0033207665238757914,0.057554194552606616,-0.0304688717640399,-0.12451171875,0.04919433593,0.0014144286571642728,0.03756196751576167,1.0200665772250126,0.98203568802,1.06170616226,0.00012306266445091606,0.011079520522720404,lift up
-0.637202148433825,-0.6904296875,-0.60510253906,0.00046633730554705623,0.021567833972914122,0.7942596435514001,0.76159667968,0.81872558593,0.000209759491341967,0.014464960857659177,-0.050178222652025005,-0.07800292968,-0.02380371093,0.00018863579980902046,0.013717296027625048,1.019918012328375,1.00867751798,1.02973715035,2.2688987267032378e-05,0.0047573379950204085,lift up
-0.6134460449178001,-0.6953125,-0.56372070312,0.00043999816391955494,0.020949896622889482,0.8123150634725249,0.73571777343,0.83972167968,0.0002314676882142516,0.015195032707885692,-0.060007629391425,-0.12121582031,0.02648925781,0.000924978088774687,0.03037541182523704,1.02043823216125,1.00011046365,1.03880516967,5.609969847702294e-05,0.007480604870652532,lift up
-0.7047177123988498,-0.88195800781,-0.58447265625,0.009719662129171719,0.09846503427028698,0.7041543579065751,0.48315429687,0.82556152343,0.009249258316890602,0.09605277284440245,-0.024455871581675,-0.19567871093,0.11083984375,0.005445917673950421,0.07370415781871159,1.0083596264715,0.94316256979,1.06631322601,0.0006247301348771318,0.024963339310675944,lift up
-0.7819195556602999,-1.08203125,-0.56323242187,0.009635107630438636,0.09803580907690077,0.628254699703225,0.32836914062,0.92919921875,0.012833113637507014,0.11314164066961928,-0.073203124998775,-0.37463378906,0.20654296875,0.015466083075488817,0.1242071570715637,1.0203742671313,0.72998085659,1.31991107187,0.00786383302499151,0.08856733846305324,Null
-0.7817272949177,-1.18688964843,-0.48132324218,0.02187798124659914,0.14772706689528037,0.6620715331996,0.33776855468,1.06469726562,0.021918524834073562,0.14786388511732126,-0.06180603027265,-0.48828125,0.14099121093,0.020121637826918004,0.14167333458470832,1.0416013988091999,0.59029753704,1.35003349607,0.032161542474176616,0.17911208395301298,Null
-0.7000378417934999,-1.23010253906,-0.31079101562,0.033234642649888985,0.18207568767758167,0.6747705078087001,0.28930664062,1.04833984375,0.021758236556409724,0.14732223513447892,-0.15669921874675002,-0.47155761718,0.12890625,0.014599600495313315,0.12067767603859064,0.99564097761355,0.42738936283,1.59517185046,0.04816080752545568,0.21918121613551203,stairs down
-0.7796246337853,-1.328125,-0.43237304687,0.0346392949688198,0.18588355691506916,0.6675518798799999,0.27124023437,1.10595703125,0.02211595721076833,0.14852833843324784,-0.08977966308485,-0.49621582031,0.2373046875,0.022663287938868,0.15035501228432935,1.04734353615795,0.51114781393,1.68867855066,0.04390173521500256,0.2092653360615777,stairs down
-0.7637567138638,-1.25048828125,-0.3935546875,0.025819423533104555,0.1604832544980061,0.65828369140245,0.32446289062,1.20190429687,0.021051646539835465,0.14491037721117794,-0.1203271484351,-0.42565917968,0.09997558593,0.019989144108361584,0.14120613034882967,1.03092702323625,0.55043306911,1.58358101465,0.0351106720767344,0.18714404985610034,stairs down
-0.74298583984045,-1.34375,-0.43273925781,0.0283173548011788,0.16806713365252546,0.7283148193328999,0.49523925781,1.01794433593,0.018915213274330264,0.13736056654347506,-0.1621508789031,-0.41564941406,0.11437988281,0.014486208660801879,0.12020812426433529,1.0647696518018,0.7484384911,1.63764466745,0.036685122996620516,0.19129404117517346,stairs down
-0.7672161865198,-1.16638183593,-0.47106933593,0.02582814361482681,0.1605103524878995,0.6455804443317501,0.32995605468,0.92468261718,0.01840414709573788,0.13549220172393145,-0.06665954589744999,-0.50512695312,0.134765625,0.02019725690409246,0.14193929604528913,1.01963892879785,0.59251248493,1.38696364805,0.0345295344839922,0.18558882145156863,stairs down
-0.7328137206991999,-1.30310058593,-0.51831054687,0.0227163895015101,0.15053105502771288,0.67789306640285,0.43798828125,1.08996582031,0.014076425915621266,0.11849571659276217,-0.16041442870785003,-0.48413085937,0.13037109375,0.013180403508768944,0.1146623412459253,1.02247968184605,0.72164847754,1.51495288418,0.02673817920026282,0.16331360553322605,stairs down
-0.7995495605434,-1.22204589843,-0.39025878906,0.049023754045664496,0.2211361450793387,0.6267700195272,0.29724121093,0.96789550781,0.021390750742691148,0.146072837536054,-0.035076904297249994,-0.37573242187,0.19934082031,0.02057321474134631,0.1432542554498572,1.0329835250061,0.54897169359,1.47854405102,0.05719883073302301,0.23886362983131285,stairs up
-0.7478479003869001,-1.20520019531,-0.37902832031,0.02934910544636944,0.17110152741209972,0.66794494628525,0.29565429687,1.04187011718,0.024150593641671447,0.15521023535053116,-0.01816528320325,-0.44116210937,0.49560546875,0.02150560327414154,0.14646446417461195,1.02178734451455,0.55912667308,1.40357414609,0.036616864753656934,0.19111599250657385,stairs up
-0.8503277587849,-1.46508789062,-0.10119628906,0.11474943581965058,0.3383231624203425,0.222429199216,-0.234375,0.57397460937,0.031993447395037206,0.17864339835703308,-0.47900085448775004,-1.15686035156,-0.00744628906,0.06366897472394961,0.25201151221152523,1.0800935333056498,0.65425042514,1.57377240027,0.045371079931911994,0.21273845969190014,stairs up
-0.9360949706991001,-1.34020996093,-0.55285644531,0.0488366139546997,0.2207136661374029,0.28443969726195,0.04541015625,0.61315917968,0.006470865669986098,0.08034107608073925,-0.3703570556603,-0.61193847656,-0.00732421875,0.0239224110297063,0.15447525692528247,1.05996413104325,0.66550714765,1.48592690104,0.049976883263463966,0.22327548243214101,stairs up
-0.8947613525355002,-1.21142578125,-0.56213378906,0.016601587473885886,0.12868598799092765,0.3033087158168499,0.15710449218,0.40246582031,0.002638681385689913,0.05130384666110026,-0.41809204101152503,-0.63122558593,-0.14416503906,0.01682262275598281,0.12953982476093154,1.0418789664569998,0.76109252032,1.33030434363,0.018227020036806683,0.13483861645209308,stairs up
-0.9551824951136001,-1.259765625,-0.62158203125,0.024629441179602224,0.1567414035175557,0.25552795409745,0.13671875,0.3642578125,0.0022326182568402912,0.04719148981753162,-0.3694665527302,-0.53881835937,-0.12536621093,0.014952019508358888,0.12212550699828431,1.0639630212693,0.72101700933,1.40746865979,0.023925715291633082,0.1544859249362349,stairs up
-0.8881747436486751,-1.072265625,-0.73950195312,0.005423524434220387,0.07355246850469967,0.2921585082968,0.18530273437,0.42993164062,0.0024815842784768703,0.04975319404601757,-0.435594177242225,-0.64367675781,-0.21313476562,0.009014582907978814,0.09482640165433288,1.037413763064825,0.87446234567,1.24686023851,0.00591874373495952,0.07683714515533566,Null
-0.937313842769775,-1.54138183593,-0.49755859375,0.06334721645297756,0.25137392150309684,0.28460388183255,0.07592773437,0.5556640625,0.00909390850442403,0.09524270960636814,-0.4400051879845,-0.71630859375,-0.12377929687,0.02076503626239469,0.14392054638493665,1.08877875856705,0.5519101768,1.69102317753,0.06084725369994261,0.24636382763241188,stairs down
-0.9568096923793502,-1.56311035156,-0.63220214843,0.023699457122226295,0.15375372671717824,0.27154968261330004,0.03015136718,0.54846191406,0.009899233274489756,0.09937044425433314,-0.4058953857385751,-0.62939453125,0.01574707031,0.02154763063044848,0.14660750851805768,1.0879442959119001,0.67000226797,1.6533860781,0.025424306707372044,0.1592505759506182,Null
-0.88075958251595,-1.0673828125,-0.68347167968,0.0031284426864373626,0.055862523929028386,0.26823303222302497,0.14880371093,0.5283203125,0.0031363007534756697,0.05593263807109388,-0.43718078612949995,-0.56848144531,-0.21252441406,0.003085670192986746,0.05547932964180695,1.0221363334131999,0.83416675476,1.18791387272,0.0033862606969774743,0.05811880113384163,Null
-0.529627380368675,-1.66442871093,0.99108886718,0.46638317218177744,0.6820683354703714,0.38596252441042495,0.07275390625,0.89184570312,0.02765032644515965,0.16607588816275154,-0.307303771970675,-0.84521484375,0.3583984375,0.09578650697347546,0.3091068435121451,1.0182718117457252,0.45931704213,1.96018707308,0.07556472535933183,0.27454655988726845,stairs down
-0.661485595700525,-1.44482421875,1.08508300781,0.44018498276199736,0.6626345299673814,0.40962646484012505,0.03100585937,1.11315917968,0.047016827002231594,0.21656242733846057,-0.3313708496069499,-0.72314453125,0.33666992187,0.056955270029711826,0.23835452975481197,1.097904510474125,0.62413614893,1.58793586582,0.05269779144066426,0.22927286573439648,stairs down
-0.93731872558265,-1.6884765625,-0.22241210937,0.07788812030792797,0.27873535837270114,0.300128479000275,-0.0166015625,0.81176757812,0.018237989076363013,0.13487918335930163,-0.40994537353135,-0.73608398437,-0.05041503906,0.028621596250839692,0.16896757754141056,1.0919639421397,0.46491059856,1.80281783351,0.06892159594332034,0.26220086184729074,stairs down
-0.9212451171840751,-1.50122070312,-0.43786621093,0.05099267117664762,0.22553312284164825,0.28828247069974994,0.12451171875,0.58410644531,0.0066287060115751174,0.08131503087711509,-0.424575195308725,-0.67041015625,-0.18347167968,0.015375541499580845,0.12384305651037483,1.06372209574135,0.56752194981,1.61783159946,0.05350694209773253,0.23102635075351946,stairs down
-0.9335891723599751,-1.70788574218,-0.42687988281,0.06412086997858302,0.25290426608429634,0.2739068603478,0.12756347656,0.53588867187,0.006101023224191573,0.07801134959819048,-0.39414978026955005,-0.67590332031,-0.06469726562,0.024595171353343236,0.1566323192223108,1.06317981390425,0.55626673941,1.78086679502,0.06636237131012271,0.2572867376718967,stairs down
-0.8083175659146251,-1.1728515625,-0.08850097656,0.03375964764658714,0.18350817019269378,0.359422302242575,0.15148925781,0.81176757812,0.02315553062748113,0.15197908343226849,-0.46367858886389995,-0.66809082031,0.05773925781,0.008635031369832687,0.09280864071522708,1.028384499093875,0.67609543745,1.33765395918,0.005384630205808315,0.07328825711049346,Null
-0.83216888427415,-1.13818359375,0.09411621093,0.09518357538023949,0.30813246573801484,0.359029235836375,0.07482910156,1.03112792968,0.05540918399287866,0.23509713106053945,-0.18551971435315,-0.5400390625,0.45458984375,0.06249725763237956,0.249681826507855,1.02976253177115,0.81325129473,1.26052176678,0.007991006191709565,0.08928061758427912,Null
-0.872090759273225,-0.91455078125,-0.83898925781,0.0001574957795559371,0.012534035268302353,0.16671112060217502,0.09802246093,0.20153808593,0.00034941215255693167,0.018669189114033296,-0.49091033935182493,-0.58117675781,-0.35791015625,0.00097013376701007,0.031108012353613095,1.015221116306125,0.98473825261,1.05485229617,0.00012760453813333224,0.01128208875997698,Null
-0.9341918945277,-1.22644042968,-0.7177734375,0.010329113717683965,0.10150512762116874,0.22483581542597497,0.10876464843,0.37023925781,0.00358688456337853,0.05981569486322201,-0.324432067867425,-0.55676269531,-0.13427734375,0.007206095919358308,0.0847825493811074,1.019316560030625,0.80904339069,1.33195154169,0.010611374209532938,0.10288267965993647,Null
-0.9704074096644252,-1.13916015625,-0.82116699218,0.003227737971606455,0.056742123917575014,0.20461456298385003,0.08581542968,0.43872070312,0.0078729531742454,0.08861868195425718,-0.198023681636775,-0.3828125,-0.03674316406,0.006662170031044419,0.08152002579714268,1.018981841557175,0.90137434571,1.20530375218,0.002232583531435067,0.04719112281569998,Null
-0.9428799438433001,-1.01525878906,-0.90393066406,0.0004131481349200632,0.020300622270826157,0.184238281246125,0.09973144531,0.29541015625,0.0015871042536390225,0.03978864779060637,-0.3347906494104,-0.37707519531,-0.2138671875,0.000946710641136034,0.03073017840060799,1.0186239814577498,0.96760231144,1.08287105952,0.00039688394393233367,0.019897028272395423,Null
-0.943976135250025,-1.03967285156,-0.884765625,0.001495541333296301,0.03862385894706872,0.15701629638305,0.13134765625,0.20751953125,0.00033802160782568636,0.01836236787035164,-0.339768066402325,-0.37536621093,-0.28942871093,0.00035103080865251296,0.01871238177333077,1.015952926407025,0.95800396279,1.09718753948,0.0011696283134380865,0.03415705260490857,lift up
-0.9272546386675,-1.15161132812,-0.73657226562,0.007182647188541613,0.08464449521717439,0.1806433105429,0.01782226562,0.46337890625,0.00809636153525768,0.08986723892175355,-0.3914599609340999,-0.61926269531,-0.0478515625,0.013704563358369259,0.11692006649832755,1.0339474955385999,0.83018862718,1.27933373434,0.005551640312511938,0.07441613542593205,Null
-0.9881555175744,-1.35607910156,-0.67907714843,0.03129720731328687,0.17668889126089296,0.3124584960903,0.09228515625,0.47119140625,0.007425457977019596,0.08606331583245586,-0.059593505857799996,-0.21838378906,0.09252929687,0.005650806156209701,0.07507782056519206,1.0442593980287,0.73309227334,1.41237652627,0.03149661356215667,0.17725087313819154,stairs up
-0.9575122070277,-1.26867675781,-0.71398925781,0.02129366995984525,0.1457409886920822,0.2073059081991,0.0380859375,0.4912109375,0.00848641980411385,0.09200654191199431,-0.2715905761679,-0.4404296875,-0.01025390625,0.011266315985698726,0.10601014194752538,1.0263834183009,0.78069777999,1.35363133253,0.021100426684391112,0.14507817071386078,stairs up
-0.969025573726175,-1.33520507812,-0.65808105468,0.03356519163976339,0.18297890222827323,0.17936309814105,-0.02575683593,0.40637207031,0.009244995834033315,0.09603063753015614,-0.23685882568017502,-0.42053222656,-0.07592773437,0.005875387537510951,0.0765552027537461,1.02026403157255,0.73197890046,1.38951112306,0.03499644487915577,0.18683937959369776,stairs up
-0.9389025878869001,-1.06713867187,-0.74597167968,0.0035549355912697753,0.059548704875014714,0.1569274902307,0.04248046875,0.36267089843,0.0035647316310443507,0.059630695132345556,-0.3382922363244,-0.5634765625,-0.11010742187,0.012364851291570798,0.11105826922540199,1.018674342802,0.82042190185,1.21010562872,0.0023502099485715514,0.04841832735339091,Null
-0.9471496581996,-1.21203613281,-0.71374511718,0.006898025036766403,0.08295046699190117,0.1805969238242,0.04504394531,0.35925292968,0.005014476434052658,0.07072439637754094,-0.3172802734338,-0.49560546875,-0.14135742187,0.007984052540997823,0.08924176381966757,1.0209599729674,0.80173593693,1.3396007551,0.007881746424279447,0.08866815695738096,Null
-0.9382360839803999,-1.14428710937,-0.70678710937,0.004303031235143171,0.06551544594258146,0.16722045898060003,0.03369140625,0.37890625,0.0034945383570698673,0.059040680985039395,-0.3570654296838,-0.5546875,-0.234375,0.0024005119901774627,0.048933737954523965,1.0206444270394999,0.84036481794,1.2694270634,0.0042134257568274035,0.0648297168930679,Null
-0.80670623778945,-1.13049316406,-0.3828125,0.04371757015238613,0.20882594720725,0.447380676266,0.03625488281,0.86975097656,0.03992110549359473,0.19955275675835887,0.143261718749375,-0.39440917968,0.72937011718,0.12330960121745986,0.35071545049286923,1.0354415719755,0.88642406188,1.21377213244,0.005754386807199994,0.07576279324432272,Null
-0.8445434570277002,-1.01928710937,-0.43212890625,0.04300166326663955,0.20710905124709772,0.34844848632419995,0.06982421875,0.86743164062,0.078284124232842,0.2794430423579372,0.0021142578135,-0.36401367187,0.58557128906,0.08160623149885193,0.2853107357252874,1.0179503142736,0.92633892919,1.12175134652,0.0008385114167741888,0.028920842626594636,Null
-0.5810229492147999,-0.61730957031,-0.51928710937,0.0004848664924221347,0.021992142373836145,0.7756079101527998,0.71313476562,0.8330078125,0.0006825552189794502,0.026093080135009005,0.2499914550738,0.17419433593,0.45385742187,0.008881249898337194,0.09412250938851635,1.0054441904443998,0.94794247228,1.06161556177,0.0007584513778135333,0.027505549428597124,lift up
-0.9188882446245501,-1.21520996093,-0.55139160156,0.017497002764052406,0.13211078781516017,0.269564819332275,0.07263183593,0.72888183593,0.02987913207547575,0.17263960798521022,-0.12735504150214996,-0.4755859375,0.46118164062,0.07383694216775558,0.27138966415900256,1.02483415872165,0.86948691338,1.27287323274,0.004404757429615593,0.06628533424552942,Null
-0.9682983398398,-1.26440429687,-0.65588378906,0.015531025584171033,0.12446765853108431,0.23766052245782496,-0.00952148437,0.56237792968,0.018834702245131726,0.13706792290510167,-0.179410095212125,-0.45178222656,0.07141113281,0.017476632753765545,0.13203386373154855,1.0303070398138248,0.73421584088,1.2967384795,0.016493573460437158,0.12826667348452622,Null
-0.897248535152275,-1.43994140625,-0.18688964843,0.07378777790477802,0.2712992968291958,0.32784637450795,0.03430175781,1.02331542968,0.04684335535161447,0.21616254754983674,-0.21218719482125,-0.68627929687,0.17858886718,0.032487470420409836,0.1800173651189207,1.0326281754812252,0.56866648658,1.59975488115,0.04320353723085577,0.20759462514183413,stairs down
-0.27386383056450003,-1.35681152343,0.97900390625,0.6794557427186817,0.823260046013339,0.18583312988162498,-0.541015625,1.5771484375,0.2227731952214204,0.47139819922584225,-0.404655761715725,-0.80432128906,-0.01843261718,0.023075965807413536,0.15171775075084326,1.058127238294275,0.1437281903,1.87431426224,0.07683210467403569,0.2768393476591624,Null
-0.9586224365194501,-1.37622070312,-0.60339355468,0.03692197125629664,0.1919105685681638,0.286221618648475,0.0849609375,0.47875976562,0.006474746098857075,0.08036516181536582,-0.37941192626547504,-0.67761230468,-0.1083984375,0.021618841692196446,0.14684956448000094,1.0813992596768751,0.64271328324,1.5056296939,0.040362768817033885,0.20065358679822123,stairs down
-0.9888537597618501,-1.58605957031,-0.52551269531,0.06611012746097233,0.2567972977706734,0.286819152828075,0.04846191406,0.55065917968,0.010995041980320197,0.10472609214216579,-0.3980023193318,-0.68566894531,-0.13903808593,0.01993869944582551,0.1410278436948213,1.1154075522810998,0.61030446595,1.76937452047,0.07134845348269062,0.26677721482350003,stairs down
-0.9509359741175502,-1.69592285156,-0.5244140625,0.04296911275077663,0.20703064982968028,0.285662231441525,0.07751464843,0.51257324218,0.006718743847981196,0.08186541997914164,-0.3875982665980499,-0.7509765625,-0.09729003906,0.022587041328773504,0.15010187782120374,1.075737662512025,0.5559157755,1.81807080774,0.051125058395486894,0.2258256977172841,stairs down
-0.88609191894145,-1.50793457031,-0.29235839843,0.07735376731175628,0.2777775780970755,0.2897479248016,-0.15161132812,0.73559570312,0.019565963681735916,0.1397034314987702,-0.45225219726227495,-0.82080078125,-0.07250976562,0.03134661416224432,0.17682829984716447,1.064429157419575,0.55427042633,1.68023187554,0.06875292912107513,0.26187983274447163,stairs down
-0.927561340327525,-1.36596679687,-0.55871582031,0.015848604407693583,0.1257337778668658,0.29622955321954997,-0.14733886718,0.48657226562,0.008143591026864792,0.09012897452705002,-0.3973287963831,-0.94555664062,-0.07800292968,0.017606216425453045,0.13252245426488832,1.062922071114675,0.71178629792,1.45881819895,0.017727566193170296,0.13297837146576647,Null
-0.9668963623007749,-1.32531738281,-0.58386230468,0.034818033612932495,0.18636251910966475,0.314002075192225,0.15930175781,0.96301269531,0.021474809081518338,0.14635956428882446,-0.366785888668375,-0.61181640625,0.0185546875,0.025250967222581504,0.15870677302662622,1.100898867291325,0.69864793206,1.4967069639,0.03747308388210655,0.1933375317221188,stairs up
-0.6738992309544,-1.23266601562,0.12390136718,0.14528586277590264,0.380687073748194,0.56963439941025,0.17663574218,1.35302734375,0.08266270432521573,0.28715161076407475,0.11560607910094997,-0.20788574218,0.9091796875,0.06729663281672639,0.2590914727170398,1.032526807756125,0.73971845619,1.36759145491,0.020434853314376288,0.14277172752716255,stairs up
-0.975729980465175,-1.29626464843,-0.67517089843,0.02673158113223024,0.16329345418417623,0.372148437496325,0.22839355468,0.55895996093,0.00581023314242365,0.07612954459057003,-0.052033996580324995,-0.23779296875,0.1328125,0.008636954636822675,0.09281897570125744,1.0528416811214,0.74017246158,1.39106219095,0.02591599758648478,0.16078310729836814,stairs up
-0.94374145507435,-1.10412597656,-0.76953125,0.004892912620545348,0.0698618661287686,0.22196441649987497,0.04602050781,0.61730957031,0.013804587758348101,0.11734596835406076,-0.28265686034785,-0.42785644531,0.19250488281,0.01908251985821355,0.13796671177703707,1.0267085117415502,0.91090534146,1.21736421416,0.0033746757130926008,0.05801929871870109,Null
-0.941208496090275,-1.11572265625,-0.76391601562,0.00567616653920891,0.07524610370551348,0.21480255126635,-0.09057617187,0.45007324218,0.01054823971615391,0.10257616251772887,-0.301209716792675,-0.46398925781,-0.10021972656,0.007426434290773008,0.08606897353312676,1.0205480783189251,0.87578336526,1.20295333256,0.0048262615719032636,0.06938440687916489,Null
-0.9406011962857249,-1.056640625,-0.84167480468,0.0017620866755362094,0.041924711792060886,0.20884918212524997,0.05212402343,0.37829589843,0.006079310476707579,0.07787240975156612,-0.3119107055622,-0.49499511718,-0.1259765625,0.006035855132307196,0.0775935918389942,1.018670588637425,0.94757593322,1.14870608685,0.0013421669566834218,0.03658977369828506,Null
-0.9422192382775251,-1.13037109375,-0.76879882812,0.004142373268476541,0.0642807695606186,0.23711853026945,0.06115722656,0.52954101562,0.011473788345252322,0.10698179225638908,-0.262626647945725,-0.48950195312,0.05102539062,0.023240588005494858,0.15225796049954538,1.0238356140383749,0.88950824993,1.25044542959,0.0035040498854659085,0.059120975641072125,Null
-0.958658447261725,-1.03161621093,-0.88232421875,0.0008953464822812332,0.02988491452347706,0.271013793941525,0.17065429687,0.38427734375,0.002163110579746053,0.04645107967848205,-0.19042419433184996,-0.43237304687,-0.01708984375,0.0075392651823100445,0.08672033797993565,1.01930499281385,0.97339078445,1.05960479539,0.00025512657533189464,0.015952703811378335,Null
-0.9321942138629251,-1.01452636718,-0.84582519531,0.0010353527537272675,0.03213665153439215,0.168798217769975,0.04541015625,0.24255371093,0.001249644212173983,0.03530609156567104,-0.39434112548452505,-0.45202636718,-0.32409667968,0.0004091145056163944,0.020201280141425526,1.02707247346375,0.9554272815,1.11368487219,0.0008402756234485675,0.02895125099870377,lift down
-0.9126037597618,-1.1474609375,-0.6259765625,0.009532136091041055,0.09751054174197502,0.3250347900351,0.10546875,0.77880859375,0.03827937736519533,0.19540644544585098,-0.17548950195100002,-0.47180175781,0.42565917968,0.05492024490163033,0.23405756618698798,1.0326783823107,0.85568587278,1.25822956563,0.0053534737145689995,0.07307591963350565,Null
-0.96034606933215,-1.14916992187,-0.66577148437,0.006037579009607595,0.07760467165115496,0.20997314452765,-0.02185058593,0.48291015625,0.01383938720648208,0.11749378170127078,-0.2446166992146,-0.52453613281,-0.01501464843,0.013089052716634802,0.11426429925765622,1.02676524030225,0.76567176753,1.18838131976,0.0048394677015667345,0.06947927052231348,Null
-0.7004760742152999,-1.14721679687,-0.42993164062,0.023860350886047536,0.1542747549303917,0.6366973876915,0.26489257812,0.82238769531,0.022492186234173244,0.1497863670985708,0.21728088378735,-0.30590820312,0.71032714843,0.07385214787821676,0.2714176072190624,1.02977490962405,0.91505844926,1.21017607468,0.0027359251086926215,0.05224064792784341,Null
-0.68605163573825,-0.73107910156,-0.47021484375,0.002571586928790119,0.05064738849603347,0.7461437988243,0.68676757812,0.91467285156,0.0012316239492847544,0.0350506046939499,-0.09846435546575,-0.15185546875,0.20568847656,0.0060969590480065405,0.07798536176992785,1.022655131029,0.94625641852,1.07994822433,0.0011474157436440482,0.03383115730040783,lift up
-0.9669061279259751,-1.1162109375,-0.82971191406,0.004691826206282534,0.06841123183196475,0.30841186523065,0.06958007812,0.62060546875,0.010734257242519656,0.10347667176428393,-0.084088745115825,-0.5712890625,0.24230957031,0.02900670060116654,0.17010051102117132,1.038006296935275,0.89629036958,1.1983795709,0.003970812535309609,0.06293556628784185,Null
-0.7770361328087,-0.82971191406,-0.61120605468,0.0012980291658006525,0.035983108438351334,0.261720581051,0.17492675781,0.625,0.004089774266502725,0.06387135375766251,-0.60542785644135,-0.82495117187,-0.42883300781,0.002126114302324924,0.0460521336809611,1.0225230055901,0.88141854547,1.12942016018,0.0007694632298767593,0.027704504539913133,Null
-0.7315722534446135,-0.81518554687,-0.60095214843,0.0029781168461550556,0.05450403765642435,0.3333286656369327,0.10510253906,0.50463867187,0.0112345697594641,0.10586100970623717,-0.6443595600808478,-0.76049804687,-0.59387207031,0.0016082734146287425,0.040053249028442206,1.0376081774622694,0.98953670927,1.10702755213,0.0006576202840834536,0.02561211301806877,lift up
-0.9142293192762594,-1.10217285156,-0.7412109375,0.006346499514258605,0.07956552540000071,0.2979632827071571,0.04797363281,0.41784667968,0.0046931522755217,0.06842111263262958,-0.3835558808021695,-0.6142578125,-0.14965820312,0.009985379754316948,0.09980219715979274,1.0411983960201496,0.81873556881,1.24730914285,0.008612457384503017,0.09268753926319519,Null
-0.7884402167498247,-1.13916015625,0.20861816406,0.11009649083081165,0.33139185230795554,0.3981924415487969,0.1640625,0.81970214843,0.03557279537419241,0.18837101820229107,-0.41185972743957383,-0.72583007812,-0.00268554687,0.021894770545889477,0.14778327521829268,1.0499291120505765,0.66656522922,1.3978457131,0.014653312455683755,0.1208990792430193,Null
-0.6900433851853616,-0.96838378906,-0.29272460937,0.05313508559531682,0.2302228901465886,0.5229075139258353,0.16186523437,0.97814941406,0.06142619752093327,0.24753386633645624,-0.0004036539504988051,-0.47436523437,0.7392578125,0.18357608449424898,0.4279232276615961,1.0218411443855113,0.89490396322,1.18902832112,0.002833930199846924,0.053168252202243034,lift down
-0.9362467244934414,-1.31066894531,-0.62219238281,0.014459061341263235,0.12009581104969493,0.31031338888700744,0.06481933593,0.5078125,0.008062534851838873,0.0896795895390314,-0.389342196263591,-0.75341796875,-0.12292480468,0.020255220093542727,0.1421432668920195,1.0711624988906734,0.65985491042,1.47555413202,0.019770017934975296,0.1404304672947212,Null
-0.9461245727495751,-1.57214355468,-0.55065917968,0.05637631920865697,0.23713999749227319,0.27848815917575004,0.07153320312,0.56665039062,0.007132255035742565,0.08434704735883294,-0.38585296630462496,-0.73315429687,-0.0390625,0.025131361809255667,0.15833045633968382,1.0740622297017999,0.5690933941,1.71613773455,0.055171127293785774,0.23459155883268967,stairs down
-0.9684033692589725,-1.64440917968,-0.40795898437,0.06074594619198753,0.24615787761680433,0.29485670964155386,-0.14367675781,0.61169433593,0.020771996657775803,0.14394421320697948,-0.4241466091947869,-0.75268554687,-0.18395996093,0.020289561968893585,0.142262823451491,1.1127327082381453,0.47867151951,1.75101949593,0.06819509411193822,0.26081445337461895,stairs down
-0.9800587033355361,-1.34948730468,-0.61450195312,0.03715808929095073,0.1925238315810127,0.28379155869690775,0.12585449218,0.56237792968,0.00796098482133177,0.08911302930185568,-0.3943677792786035,-0.74084472656,-0.09252929687,0.025806599329412504,0.1604438958642934,1.1058312545102744,0.67024510095,1.51623167107,0.04457585582767445,0.21086653146586193,stairs down
-0.9019986489629073,-1.52563476562,-0.31005859375,0.06177787217170596,0.2482398848128099,0.3822618068566917,0.08935546875,1.12133789062,0.057421519517433156,0.2393274032255452,-0.13409898035942355,-0.58227539062,0.29907226562,0.034711085189752806,0.18607549540113008,1.0430123513463156,0.67030767114,1.57908138717,0.043467099619353196,0.2082262219799816,stairs down
-0.9734014572901746,-1.55651855468,-0.63110351562,0.027327916011314388,0.16510531970480938,0.31730609998069825,0.10168457031,0.50622558593,0.007271773131062174,0.08516829828920193,-0.11644929424157108,-0.42102050781,0.05737304687,0.010400482866717535,0.10185551777133318,1.0387292426149126,0.72627089401,1.59355520479,0.027752717707685212,0.1663836197927754,stairs down
-0.9677392578087001,-1.46643066406,-0.43591308593,0.04042162664547815,0.2007998321186162,0.35240234374650004,0.150390625,0.58813476562,0.009136744991515264,0.09546676452586249,-0.0393798828112,-0.25634765625,0.13525390625,0.005590681742573464,0.07467733952289028,1.0408268181065998,0.63606285762,1.54820162788,0.03403325675078285,0.18425030151645858,stairs down
-0.931530122444364,-1.41357421875,-0.63513183593,0.0232468928545972,0.1522790877081097,0.18925647307109725,0.00146484375,0.36352539062,0.005435787413657608,0.073635805380755,-0.37020211920992513,-0.57434082031,0.03125,0.013564068633386822,0.11631957284061126,1.030575104248404,0.67901084366,1.43678515738,0.02072402145716407,0.14377879052784504,Null
-0.9932409667931,-1.3798828125,-0.64294433593,0.030131156180419776,0.17336616823927536,0.24607543945000004,-0.04040527343,0.4873046875,0.015276554943710755,0.12344376677804139,-0.09546630859029999,-0.26391601562,0.08337402343,0.005794131014658232,0.07602398100021852,1.0377147847219998,0.64730867692,1.4146678535,0.030492650822600255,0.17440303665803458,stairs up
-0.9026074218713,-1.02270507812,-0.58959960937,0.004451669463485065,0.06663737907380776,0.1387475585897,0.04187011718,0.33557128906,0.002653630090568107,0.05144896515326316,-0.4275695800747,-0.72814941406,-0.18383789062,0.007584556115644457,0.08698042725438491,1.0143054173608,0.78608668411,1.16340906249,0.0026109676006706097,0.05103371612638975,Null
-0.962673339839725,-1.49523925781,-0.60144042968,0.041019530845870816,0.20227946514353884,0.23481353759405002,0.01342773437,0.61047363281,0.013216582776405804,0.11481960337618655,-0.22430145263384996,-0.63720703125,0.30725097656,0.03732995034547674,0.1929679389681432,1.0381829778592502,0.63030529195,1.64402605121,0.045816292353134724,0.21377968009671053,Null
-1.0158032226521998,-1.33850097656,-0.70275878906,0.03465158163142341,0.185916520721922,0.344458007809,0.06848144531,0.54577636718,0.011534548642331978,0.10726468324069273,-0.04098876953010001,-0.22351074218,0.16381835937,0.010245144689174512,0.10109170009180564,1.0839753336728,0.77549740034,1.39571295285,0.03355915617829218,0.18296245048601215,stairs up
-0.9688073730432001,-1.3115234375,-0.67663574218,0.02716251616327579,0.16460440417214722,0.2729577636687,-0.1142578125,0.5380859375,0.016327858644842857,0.12762068405329424,-0.1548681640603,-0.44299316406,0.06994628906,0.02089087971436557,0.14435599230748844,1.0364136292722,0.72974549661,1.39764503316,0.027212937838360676,0.16475711060152995,stairs up
-0.9976382446251251,-1.31274414062,-0.68908691406,0.025834391167000724,0.16052976418435064,0.190715942379275,0.00549316406,0.42333984375,0.009713892216295362,0.09843580388128409,-0.16550781249685,-0.37170410156,0.03442382812,0.00868480746883412,0.09307575113939202,1.0382060987714248,0.71090012756,1.37146890838,0.026972714089984598,0.1640282972683666,stairs up
-1.014835979104386,-1.34704589843,-0.69592285156,0.030030162236597956,0.1730748354674798,0.30613215166478697,0.14465332031,0.47265625,0.00790287296237758,0.0887866333589902,-0.04115085075874687,-0.24206542968,0.10437011718,0.006541642649685734,0.08077900442148084,1.0676469294586717,0.77047866746,1.38719510238,0.02879625773609529,0.16948181809290047,stairs up
-0.9720309821111721,-1.26721191406,-0.68408203125,0.01552885036969073,0.12445933093604557,0.23123009127266833,-0.07006835937,0.48376464843,0.014527693483794487,0.12038050017232914,-0.23260239293985038,-0.52966308593,0.0185546875,0.02170079320908588,0.1471280956098848,1.0444576901033416,0.77309566226,1.3485952285,0.013184738121945629,0.1146815524648853,Null
-0.9423155055569173,-1.22119140625,-0.70349121093,0.012819175994882543,0.11307982903349183,0.18307671032666667,0.04724121093,0.37939453125,0.003903034264093574,0.06239593114403723,-0.3339907997494737,-0.52282714843,-0.06396484375,0.009986848833219913,0.09980891311348929,1.0228433846070175,0.78232244315,1.32785110454,0.013451082064627362,0.11583337204580976,Null
-1.006609757341546,-1.33654785156,-0.69860839843,0.032028724414085614,0.17874241881371408,0.26281220775768077,0.03857421875,0.63732910156,0.012905057232060632,0.11345869311978483,-0.05204883299279301,-0.41540527343,0.27783203125,0.014273917706411643,0.11932443966622051,1.0552026664593017,0.76152884243,1.3692021703,0.030726547870221867,0.17507119426840456,stairs up
-0.8194971682102256,-1.296875,-0.11291503906,0.06217541567845891,0.24903732163872364,0.4089912280668922,0.2236328125,0.96911621093,0.033355048140725,0.18240463680741092,-0.18746206335952384,-0.55700683593,0.712890625,0.10776419650866953,0.32786294515107073,1.0296833660549876,0.66108562577,1.53386457717,0.016570303694948607,0.1285642800771398,Null
-0.4775707216302743,-1.13269042968,0.0322265625,0.13901721049133461,0.3723849274016669,0.5237519604274314,0.16662597656,0.86743164062,0.05510491162244387,0.2344514723566869,0.23462675099281796,-0.54138183593,0.94250488281,0.29096723747742664,0.5387407849735731,1.0183043699228678,0.84874549003,1.19978478831,0.004386431862421475,0.06614751038094693,Null
-0.8656021118121251,-1.5263671875,-0.08044433593,0.09530181540224202,0.30832379224402456,0.30253234863,0.00415039062,1.14721679687,0.03766055425265893,0.19382054294379447,-0.29497955321950003,-0.69067382812,0.89050292968,0.12532167109250314,0.35356522299962123,1.0642253757289248,0.58835388383,1.62687135195,0.053000957452467794,0.22993141381472135,stairs down
-0.9661425781219001,-1.75402832031,-0.48767089843,0.055174013881003355,0.234597695739538,0.249260864254125,0.05786132812,0.48547363281,0.008525347007133569,0.09221731746052764,-0.40148834228097496,-0.66955566406,-0.17749023437,0.013052139028813985,0.11410306166462822,1.085344103626325,0.5966921741,1.88679595062,0.05548185121528173,0.23525124141488293,stairs down
-0.9667520141567499,-1.52014160156,-0.52490234375,0.04552224035616659,0.21309254974136513,0.2306933593709,-0.01086425781,0.44897460937,0.007758853644701584,0.08797418093162238,-0.416307067867675,-0.64990234375,-0.13391113281,0.019221099058568718,0.13846676969916752,1.090750304315475,0.61165507778,1.55725611504,0.04383475579425264,0.20910564053790373,stairs down
-0.948592224117825,-1.45300292968,-0.5078125,0.056525206505162406,0.23745292899625287,0.20089385985947503,0.06518554687,0.46044921875,0.006814583807315389,0.08244723978276713,-0.4342575073205499,-0.70422363281,-0.21899414062,0.013089880849102625,0.11426791389965894,1.0743024316779,0.65543760241,1.56534154956,0.05100552934837017,0.22556155595535166,stairs down
-1.001867065426075,-1.47802734375,-0.61901855468,0.031319527443690896,0.17675188436076622,0.255293273922375,0.06884765625,0.52709960937,0.013018190204721551,0.11395457309476327,-0.46136596679299996,-0.8203125,-0.09912109375,0.027276127707522156,0.16494828701218256,1.1445530652861249,0.75624036428,1.56808292997,0.0433121997971004,0.2078555250591325,stairs down
-0.7820736694298001,-1.49951171875,0.06213378906,0.12651717720630126,0.35524763794188063,0.42054382323875006,0.09790039062,0.82165527343,0.041566129330946625,0.20362272468371317,-0.022095947265125062,-0.76037597656,1.08666992187,0.27395985553236263,0.5227570715863457,1.08384685865075,0.53772035007,1.61730799018,0.05533694608932811,0.23494383099818728,stairs down
-0.568220214839925,-1.43725585937,-0.03356933593,0.09656818499233275,0.3103655337337764,0.65780975341405,0.25988769531,1.19348144531,0.026767125449143548,0.16340198173682194,0.41496429443135,-0.16857910156,0.95080566406,0.11665999564093431,0.3411280487615053,1.0565086680465,0.63564323205,1.60031349977,0.05109574140664134,0.22576094005191585,stairs down
-0.958735046382825,-1.22448730468,-0.69836425781,0.01785763673449031,0.13346532374611048,0.24619995116799998,0.11926269531,0.57238769531,0.009684613968559219,0.09828734625391929,-0.425918579097825,-0.66564941406,-0.13024902343,0.017680974448483513,0.13280350903632895,1.087079655151125,0.7525982158,1.41903662076,0.024623490311346957,0.15672246675435078,stairs down
-0.9091448974573502,-1.45947265625,-0.53918457031,0.04003017003627623,0.19982516010549206,0.230320739742475,0.13696289062,0.40832519531,0.0031817927746439346,0.056336828919520535,-0.44646453857050006,-0.71984863281,-0.21484375,0.01525876704445985,0.12337187737425698,1.0488849392753499,0.65332666459,1.54439555002,0.03718056052381701,0.19258143504114686,stairs down
-0.94877746581645,-1.52624511718,-0.49829101562,0.06502547944936411,0.25468198945104203,0.231473388668375,0.08630371093,0.43591308593,0.006535730969984314,0.08074274978324279,-0.44929107665607504,-0.73291015625,-0.18994140625,0.01860888487480342,0.1362437619218451,1.086542559091775,0.58262473449,1.70981165889,0.06463435007719753,0.2539148758974246,stairs down
-0.9769036865198251,-1.24731445312,-0.70703125,0.021831736797388913,0.14757085571140202,0.23678802489875003,0.11938476562,0.42272949218,0.006514600097683825,0.08061211817983457,-0.41567443847264995,-0.68103027343,-0.17626953125,0.018349397196851715,0.13529051594202599,1.0932326110482,0.76866105542,1.45252472774,0.032049712668473236,0.17880041495142582,stairs down
-0.9331430053674751,-1.70593261718,-0.466796875,0.06536070226348949,0.25533762062773036,0.24486663818010002,0.02709960937,0.44641113281,0.008806018897274868,0.0937230166502961,-0.46382446288717505,-0.76123046875,-0.13488769531,0.025463329632698258,0.15937274330517284,1.0878191002964999,0.61481150066,1.81649946158,0.0620343378751202,0.24875540603257731,stairs down
-0.71911651611015,-1.35278320312,0.08862304687,0.1537236748694325,0.391585706687896,0.42775756835555,0.15979003906,1.5087890625,0.11743203184780163,0.34225495141514334,-0.36014312743890003,-0.69946289062,0.28076171875,0.05368754853120559,0.23141592352272902,1.0514678923439749,0.60769349185,1.55638466026,0.04955528628309077,0.22233172978093577,stairs down
-0.84103027343375,-1.27905273437,0.06091308593,0.08609252782133531,0.29304828356737045,0.4080969238246,0.13879394531,1.42126464843,0.0822167795867077,0.28637604235993785,-0.32882080077814996,-0.63684082031,0.17150878906,0.03680283652781209,0.19160070312108085,1.0710214543635,0.69563317137,1.51353094121,0.039609570887986355,0.19877260113196282,stairs down
-0.528660583493925,-1.55249023437,0.55395507812,0.26240994386813477,0.5116189197131634,0.46953094481992497,-0.00512695312,1.5009765625,0.06476272951817957,0.25416691896150473,-0.5746762084927,-1.34777832031,0.21557617187,0.10410258724781811,0.3222457614611844,1.090155210605625,0.45370792842,1.66721383639,0.07213308728310287,0.2682401061826794,stairs down
-0.87205444335555,-1.71984863281,-0.38269042968,0.08937848276222805,0.29858840659898783,0.43420959472289994,0.02038574218,0.92980957031,0.03515592632703706,0.18726461628193264,-0.2720489501938,-0.83471679687,0.40441894531,0.10971528298043186,0.33081867355544,1.08566022002225,0.52921953375,1.85723345309,0.07822908283680297,0.2793447871890774,stairs down
-0.9370330810508,-1.61047363281,-0.58764648437,0.023132956257670454,0.1519049830223692,0.283322753902425,0.02685546875,0.57263183593,0.010408511281312835,0.10189450428315333,-0.3848333740200499,-0.84338378906,0.07189941406,0.019914175364150164,0.14094108671973474,1.066449004869225,0.612124841,1.73844632425,0.022464187902156776,0.14969311083814574,Null
-0.6601104736305,-1.66296386718,0.30786132812,0.20799697198793446,0.4554964100385036,0.28719238280915,0.00231933593,1.052734375,0.05653795902598075,0.23747971308812,-0.5836260986294,-1.10986328125,0.13256835937,0.07490039500309184,0.27333705203573133,1.07244807416525,0.4929137246,1.92558307285,0.04740510382152862,0.2174548023428657,Null
-0.66968383788725,-1.10546875,-0.24633789062,0.07278251614330224,0.26944491060872533,0.5831182861288,-0.19421386718,1.02844238281,0.10558089107412931,0.3245257136906781,-0.14554565429575,-0.73034667968,0.45397949218,0.0854948444441605,0.29202929190930504,1.0340340906872,0.90624796932,1.33909912103,0.003668191638701492,0.06048984344172779,Null
-0.7798748779267001,-1.2734375,0.83032226562,0.16881298308774387,0.41035466444287494,0.36506286620739997,0.29650878906,0.9072265625,0.012117410228612985,0.10994142396313344,-0.3736950683556,-0.89099121093,-0.14587402343,0.011424770090787916,0.10675302415182882,1.0277452686412,0.67294099432,1.67592711803,0.01677961293587875,0.12937412377882623,lift up
-0.8452404785121499,-1.12756347656,0.19897460937,0.06547601354243045,0.2555627584539155,0.2911370849574,0.05139160156,0.53723144531,0.006939861036109059,0.08320163089458514,-0.47107421874654987,-0.98388671875,-0.2041015625,0.03663908760651993,0.19117397806057085,1.0567597758354,0.8352738625,1.39323839796,0.013177232358383154,0.1146485467744236,Null
0.01485107421899997,-1.33044433593,0.65930175781,0.2418231183456574,0.49114006204930305,0.5377947998018501,-0.14892578125,1.12316894531,0.15346861881582158,0.3912607152127364,-0.4143011474596499,-1.12280273437,0.3818359375,0.23682863420688072,0.4860417293004413,1.0346438396864999,0.65118379313,1.61580785697,0.02119442338385823,0.14540095366055406,Null
-0.46737670898284994,-1.12841796875,0.87902832031,0.48605415392653417,0.6963038263155803,0.39776428222235,0.09655761718,0.83911132812,0.030072380871558158,0.1731969974317663,-0.31974853515405,-0.66247558593,0.11376953125,0.043101372359305445,0.20734902683255396,1.012097155277,0.62910631208,1.43199580575,0.012416765629051207,0.11129116638340429,Null
-0.892584533688175,-0.94091796875,-0.8681640625,0.00041808915829767246,0.020421653591272383,0.280678405757825,0.23278808593,0.31323242187,0.0004066433777209705,0.020140177985228137,-0.4346585082969,-0.47045898437,-0.39392089843,0.00024915959743399945,0.015765046731310836,1.03198508576205,0.99558961115,1.08392311816,0.0004947631493260593,0.022215450512036532,lift up
-0.8736834716760751,-0.92333984375,-0.83215332031,0.00031720350223867725,0.017787931118684954,0.2700848388632,0.24426269531,0.29833984375,0.0001319935712472308,0.011474475470325984,-0.42018707275047495,-0.4853515625,-0.36437988281,0.00043520918086686796,0.020835574336089246,1.006589797314725,0.96331525496,1.07286594866,0.00048619564118862366,0.02202226491725254,lift up
-0.9290997314413001,-1.26940917968,-0.73461914062,0.010173750338645246,0.10073885031505289,0.28571319579719995,0.15209960937,0.58325195312,0.007006369230071931,0.08359936188151648,-0.4089392089802,-0.63012695312,-0.10595703125,0.013461018924773928,0.11587651348509755,1.0633477942583,0.83933949968,1.43936969613,0.011782846938882369,0.10841305189660128,Null
-0.9384280395471001,-1.35571289062,-0.50805664062,0.04894048826280887,0.22094826779622384,0.276586608882825,0.13903808593,0.39782714843,0.00238644033284085,0.048790103832731774,-0.37489227294547506,-0.62158203125,-0.05932617187,0.01647355560517821,0.1281888127574527,1.05723974141715,0.64624367004,1.47339618115,0.047685880797551206,0.21809783606344502,stairs up
-0.914828186031725,-1.24877929687,-0.56994628906,0.021011640975380275,0.14477262128227777,0.30674163818015,0.20886230468,0.3974609375,0.002002525266026586,0.0446936119916652,-0.3936505126917,-0.60656738281,-0.11511230468,0.01796863362565402,0.13387946833472966,1.050040897974825,0.68955882615,1.41295735499,0.023919438465564383,0.15446565919129232,stairs up
-0.9691360473595251,-1.38537597656,-0.61254882812,0.03876260776119676,0.19663596121206764,0.27299835204715,0.13244628906,0.39294433593,0.0031035086190075094,0.055639463040723085,-0.374496154781575,-0.56994628906,-0.03955078125,0.018906067132370516,0.13732735330057005,1.0859952325829751,0.67153343123,1.5146984975,0.03532306397999963,0.18770923344377505,stairs up
-0.618313903806175,-1.40734863281,1.03698730468,0.4417435016776892,0.66380655534839,0.4138684081991249,0.16345214843,1.02795410156,0.04058386227704373,0.20120239218595568,-0.3226504516571249,-0.68139648437,0.10705566406,0.04237593922126397,0.20559669105608389,1.0625620435770249,0.55462428525,1.69681890862,0.052186371297414005,0.2281576327217007,stairs up
-0.9203665161100499,-1.19091796875,-0.56091308593,0.019778807804020644,0.14046124299788393,0.30325897216347497,0.11010742187,0.68383789062,0.007134936865639076,0.0843629037164735,-0.38417236327750004,-0.60754394531,-0.11437988281,0.020110720387070832,0.14163489536870197,1.054595237106075,0.69451449173,1.37711233747,0.021418268319221997,0.14616676314547006,stairs up
-0.9371286010703002,-1.30493164062,-0.56091308593,0.03419563294799593,0.1846893171399633,0.2846520996054,0.11303710937,0.47814941406,0.003954840604265789,0.06280886484211544,-0.3955609130819251,-0.58276367187,-0.10217285156,0.01527726330233146,0.1234466287270561,1.065066031581225,0.70231651872,1.43863658442,0.03472058606397497,0.18610154378407245,stairs up
-0.7494375610314751,-0.89953613281,-0.70324707031,0.0009411287851804488,0.030639451091974506,-0.036976928707375,-0.1357421875,0.23071289062,0.0021272617290107637,0.04606455877014602,0.6734341430629499,0.47424316406,0.716796875,0.0014657030987447236,0.03823661649515896,1.0103533697916252,0.96692561053,1.0772046224,0.000246940064254682,0.015694671519150865,Null
-0.27130096435477496,-0.94055175781,0.50988769531,0.20655009120366505,0.45390936978173946,-0.10693115234145001,-0.34680175781,0.97692871093,0.07930128675213412,0.28125261516162614,-0.377951354979175,-1.08728027343,0.65466308593,0.5404077721367901,0.7342048438320523,1.0227872032978498,0.82975753876,1.4291625023,0.006000551698257626,0.07736633841026717,Null
0.11802185058239999,-0.05383300781,0.73559570312,0.015462728711474392,0.12419368699614206,-0.044837036132525016,-0.45886230468,0.30090332031,0.06929318538658098,0.2629067371200566,-0.933033447262225,-1.15173339843,0.30444335937,0.051726702936825235,0.22715058040754194,1.0069342002617752,0.51859774653,1.23217450544,0.008737701823042485,0.09335875732080456,Null
0.047074584960375,-0.14440917968,0.37316894531,0.01688936549514992,0.12979654109956879,-0.267531433102475,-0.42504882812,0.05249023437,0.016744423348333513,0.12923839325046826,-0.969997558590025,-1.08129882812,-0.9140625,0.0009592744879609471,0.030933417233487876,1.0240385352301749,0.97409228901,1.14893094964,0.0005373503307433907,0.023151824008413077,Null
-0.391644897457725,-1.091796875,0.03686523437,0.11345373678827694,0.3364076432638032,0.01770935058730001,-0.36450195312,0.57971191406,0.07193109302364903,0.26786426654387835,-0.8291491699182749,-1.0361328125,-0.34765625,0.04552121042754335,0.21309013914649944,1.0322135357295499,0.80938145145,1.2679838169,0.006066851704339689,0.07779257403556486,Null
