avg_accX,min_accX,max_accX,var_accX,std_accX,avg_accY,min_accY,max_accY,var_accY,std_accY,avg_accZ,min_accZ,max_accZ,var_accZ,std_accZ,avg_magnitude,min_magnitude,max_magnitude,var_magnitude,std_magnitude,Label
-0.5065569196389795,-0.52160644531,-0.47387695312,0.00013870305723033433,0.011762194646436741,0.5286883918567857,0.49975585937,0.58117675781,0.00046867673004060876,0.02162131185052017,0.7072971888913264,0.68481445312,0.72314453125,6.59138002340739e-05,0.008108369304890915,1.0183399276152039,1.00212480884,1.03066494992,3.610185724437705e-05,0.006000813334021818,Null
-0.75511474609015,-1.22839355468,-0.48254394531,0.07371978936032943,0.27117427954532963,0.3964483642541499,0.03295898437,0.58178710937,0.03225970280157897,0.17938520993820817,0.38828063964599996,-0.12255859375,0.71044921875,0.1060447294445379,0.3252377862747909,1.04149373419245,0.78188832908,1.25025046938,0.004928724911027511,0.07011706710031404,Null
-0.7352172851522499,-1.19384765625,-0.15979003906,0.10275611154431326,0.3201549956902945,0.47306518554365,-0.10473632812,1.10327148437,0.08703243788447415,0.29464360978945897,0.10298400878790001,-0.65869140625,0.86706542968,0.11310779882376806,0.3358943722760306,1.0313349874337998,0.68062624285,1.38430425493,0.013461737646532291,0.11587960693071046,Null
-0.207780275893728,-0.86865234375,-0.00256347656,0.05119103632238443,0.2259692272113825,0.894502654180126,0.40258789062,1.18811035156,0.037247523711063234,0.1927529538896917,-0.0577017450183879,-0.65344238281,0.9140625,0.13915933128487862,0.37257053560640724,1.0316730781722667,0.61880369675,1.53649770934,0.009335905555251997,0.09650072238254032,Null
-0.00636718749848,-0.04895019531,0.05187988281,0.0006834417739535123,0.026107839101624303,1.0001656901001066,0.95349121093,1.05249023437,0.0005701570793320894,0.023846103674476263,-0.13282226562117333,-0.20812988281,-0.08032226562,0.0009394546881126328,0.030609630438981114,1.00976838359464,0.96097031203,1.05910897473,0.0005702405070193759,0.02384784823977468,lift up
-0.23617519421199437,-1.0087890625,0.07080078125,0.076063644434636,0.2754087553293591,0.9125589092089045,0.22045898437,1.05456542968,0.03954725312224224,0.19858541067402968,-0.15126569083311797,-0.43395996093,0.30041503906,0.013699246119249194,0.11687927571141231,1.0153670060328932,0.55957208336,1.35433843574,0.009464640303030474,0.09714964866001079,Null
-0.09428964224253603,-0.13354492187,-0.04858398437,0.0005117774772392179,0.02258987857852315,1.0128360275540635,0.98767089843,1.06860351562,0.0005210241358735415,0.02279303896797265,-0.16797261966083574,-0.19470214843,-0.13537597656,0.00023230913106683248,0.015219712622219616,1.0313888220454754,1.00196871829,1.08612271657,0.00044199270586188104,0.020993307306527802,lift up
-0.07958370411502957,-0.13940429687,-0.00732421875,0.001136499985783745,0.03366210866523816,1.0051746255507397,0.9755859375,1.05224609375,0.00023607093652316748,0.01534185457497646,-0.15271646171934908,-0.2177734375,-0.06042480468,0.0014519361183929584,0.038047870497619575,1.021117196167426,0.99415100481,1.07348402386,0.00016823142003607027,0.012951204343275917,lift up
-0.07125181445564956,-0.09497070312,-0.05615234375,5.4567879850620016e-05,0.007375840440761092,0.9931718071383686,0.9521484375,1.02087402343,0.0003041855163377748,0.01741454928680137,-0.15483531202377643,-0.1953125,-0.13793945312,0.00014863574688393828,0.012173195812485839,1.007791796457553,0.96946340103,1.03630234951,0.0003035015673762839,0.01739496031073383,lift up
-0.9182831386316037,-1.35778808593,0.63049316406,0.05775760831903063,0.239949954406985,0.22739472778792452,-0.30944824218,1.00061035156,0.04207068443929095,0.20478863906350336,0.23640221169606918,-0.21667480468,0.49304199218,0.011941744695393799,0.10910633363429906,1.021546010713868,0.259657902,1.64964511894,0.018759590380225885,0.13675012964398447,Null
-0.9940815975747697,-1.07458496093,-0.90942382812,0.0015184032404657543,0.0389025512397866,0.2230722527716776,-0.24548339843,0.42651367187,0.0078123215508151735,0.08824184452209267,0.00430940326865132,-0.22839355468,0.25915527343,0.011318897362119175,0.10621517851565379,1.0279825629236843,0.9292870709,1.12074217118,0.0018175484179312799,0.042562537991063416,Null
-0.9934294327408696,-1.1123046875,-0.89855957031,0.00147352337418751,0.0383222546618474,0.22703690034100332,-0.08972167968,0.32470703125,0.004125561496741062,0.06412303511378314,-0.047822984164715705,-0.24694824218,0.16162109375,0.007718405547723207,0.08770741976792047,1.0257932746342142,0.91580351466,1.14688569279,0.001714898549945398,0.04134202587307572,Null
-1.0078197516979865,-1.24951171875,-0.89086914062,0.00427848411172585,0.06530209569467273,0.24682254602033002,-0.03942871093,0.50122070312,0.0060492119809927416,0.07764822976099241,0.005326374924059405,-0.13366699218,0.29516601562,0.0069779814042005206,0.08339635341309894,1.0433682717643893,0.90289028344,1.31663562123,0.005299092685840228,0.07267464434795318,Null
-0.7365933862914369,-1.23791503906,-0.40087890625,0.040641586166583116,0.2013017700603691,0.5719813908962758,0.07751464843,0.95275878906,0.047271826829005235,0.2171018189026883,0.26916253321727274,-0.34729003906,0.70324707031,0.03025284229169145,0.17367822050880716,1.026802197382229,0.72323484198,1.31458930773,0.005694671595559018,0.07535231701053724,Null
-0.6992717365601923,-0.77026367187,-0.61096191406,0.0017414499173641353,0.04167332137344531,0.7114542866761262,0.61547851562,0.78405761718,0.0013069874635451542,0.03610258770012622,0.15078601207997253,-0.01550292968,0.44641113281,0.012003287065706844,0.10940891646634435,1.0161422140146152,0.92594060049,1.09130928329,0.0003509235508466196,0.018707203830542942,Null
-0.727141523779528,-0.7783203125,-0.70532226562,0.00023798074386184267,0.015403854575003456,0.6966966837170796,0.64111328125,0.73815917968,0.0010147996726678917,0.03180890069318632,0.035809452200147494,-0.01428222656,0.05932617187,0.0002572698364821763,0.01601595855420329,1.0082692960435693,0.97439802244,1.03026888154,0.0002997788969045821,0.017288568285832407,lift down
-0.8937838668568524,-1.18286132812,-0.41381835937,0.04172231334432161,0.20397572208795148,0.42124594685420613,0.0224609375,0.88293457031,0.06312230181812155,0.2508913583193977,0.04981318821721449,-0.34094238281,0.45458984375,0.023694744874213147,0.15371643633442267,1.0487940682823398,0.82221195471,1.25628444899,0.007010945226648045,0.08361468849017613,Null
-1.067321272917135,-1.36169433593,-0.81640625,0.012855109948690598,0.11322409824176631,0.20330356566038568,-0.13977050781,0.47937011718,0.012798657084870525,0.11297521443384058,0.02216164665060606,-0.34680175781,0.21545410156,0.007923174048211176,0.08888952200601896,1.095748327808595,0.89246325932,1.38333956593,0.013880248545004666,0.11765207582404627,Null
-1.0204723072804154,-1.46484375,-0.62963867187,0.05501960650353253,0.23423748124766727,0.1763151808092798,0.01623535156,0.36145019531,0.004404453954548867,0.06627407676515504,-0.051458216108033236,-0.29638671875,0.14440917968,0.011580632108813181,0.10746419308538248,1.045242917670277,0.6468623805,1.46712786296,0.05366222184453572,0.231330008927856,stairs down
-1.064883439896676,-1.52917480468,-0.849609375,0.0127484975104869,0.11275143982338015,0.1809450288022905,-0.15087890625,0.33093261718,0.008523266331213444,0.09219250687936452,0.04176441384312849,-0.29455566406,0.44543457031,0.011347981625833147,0.10637802100591687,1.08931535038919,0.85182623322,1.58819916321,0.013762719756448669,0.1171506568704319,Null
-0.807736522340056,-1.44165039062,-0.24279785156,0.039659408112490684,0.19886758743813457,0.4503731179932213,0.06665039062,0.99401855468,0.054942141949472695,0.23406888386154887,0.2755144049774229,-0.07275390625,0.95190429687,0.03348547399877099,0.18273389710952936,1.0245859278767226,0.72179374774,1.54254533776,0.009159993804852105,0.09557371792967007,Null
-0.7903174925346069,-0.83666992187,-0.75988769531,0.0003449897493155005,0.018547794396799922,0.6617044170216292,0.61376953125,0.72106933593,0.000853166493413812,0.029167961161520237,-0.07420160529098314,-0.15747070312,0.03466796875,0.0031532439115297775,0.056074829333775035,1.035192450521264,0.99545881941,1.10047291917,0.0007055765947929629,0.026525358396561137,lift up
-0.7888183593713445,-0.83850097656,-0.69665527343,0.0009593576025249815,0.030930087719362072,0.6357562067756581,0.57653808593,0.73889160156,0.0012908929641231772,0.03587864291531887,-0.029232591473977592,-0.25695800781,0.19116210937,0.016734882225511817,0.12918206456281794,1.0227887962956024,0.99351948217,1.05621150781,0.00011024306487815991,0.01048495401872892,lift up
-0.7303709569724651,-0.78442382812,-0.66870117187,0.0007976859004083902,0.02820374950465863,0.6819777715733333,0.58898925781,0.775390625,0.002041328521021281,0.04511774056798054,0.09844851026050419,-0.01867675781,0.181640625,0.0027841750328384536,0.05269132967787641,1.0066121565842017,0.94394986802,1.05604105383,0.0004974784841497297,0.022272965383963776,lift up
-0.701276023628061,-0.96325683593,-0.33972167968,0.0348773387247765,0.186495913086896,0.6821681310557342,0.50805664062,0.90600585937,0.011366243607684205,0.10646482127129007,0.11039755020686981,-0.25769042968,0.50415039062,0.04583414464930969,0.21379237652381203,1.0280590833072851,0.80998855113,1.25744445818,0.0036022931699488288,0.05993592010229364,Null
-0.8190676586735592,-1.10986328125,-0.34826660156,0.05506637186569723,0.23433057236074165,0.4706055377122599,0.12475585937,1.11328125,0.064935028331727,0.25446334912577107,0.08523576811861583,-0.34533691406,0.69177246093,0.06432958941748453,0.25327429283975966,1.036695238658616,0.8441585064,1.42501511565,0.008704389195639423,0.0931654470584199,Null
-0.978406031483895,-1.04150390625,-0.90649414062,0.0004661286809486707,0.02156017237080347,0.2440408105971823,0.14453125,0.29455566406,0.0005925976324810171,0.024309681660740424,-0.11034582991182319,-0.18920898437,-0.02294921875,0.0013726982797039383,0.036998733701383096,1.0153347238217956,0.94380899143,1.0756106774,0.0005320581854628667,0.023034504801924337,Null
-0.9666018431176149,-1.00427246093,-0.92370605468,0.00038633032552271956,0.019627026797483835,0.23548450688867817,0.20947265625,0.2685546875,0.0001882021055568731,0.013698952328872496,-0.14345822388721263,-0.20190429687,-0.08337402343,0.0006307463002780015,0.025078552807316985,1.0055282265596264,0.95778760022,1.04333543225,0.0004684852050032675,0.021613398232342127,lift down
-0.9915303035244536,-1.03881835937,-0.95825195312,0.00044203015635522764,0.020995046478766106,0.23497475161563025,0.20239257812,0.26611328125,0.00022662490893370478,0.015032967280853897,-0.12273161217288515,-0.18615722656,-0.05822753906,0.0008307072893658661,0.02878159790892736,1.0268517199289915,0.99584856942,1.07816124592,0.00048057922828290654,0.021891392554599928,lift down
-1.0233191909533053,-1.55737304687,-0.86877441406,0.00803505389299605,0.08951283002583572,0.2192129781555742,0.02575683593,0.55822753906,0.004634822715154613,0.06798411592771879,-0.04587894728016807,-0.77221679687,0.185546875,0.014955438082777673,0.1221210305367283,1.0551356030539496,0.89344596826,1.73850309263,0.01122712801259892,0.10580963791048763,Null
-1.0989383292556985,-1.34729003906,-0.86462402343,0.014561917497069993,0.12050411507443003,0.15943269356265363,-0.03698730468,0.38842773437,0.007808758519210276,0.08824367594664,0.012600520469608937,-0.14916992187,0.23474121093,0.01171320885947666,0.10807631747508484,1.119095677107067,0.88693041522,1.36205808533,0.014898167364814668,0.12188745781324475,stairs up
-1.0946946865686942,-1.37854003906,-0.77331542968,0.02147571064095924,0.14632834481611567,0.17078650952498517,-0.15319824218,0.54138183593,0.014936435420672875,0.12203324814920707,0.011701363130860534,-0.32800292968,0.24609375,0.014581193577404006,0.12057332184474227,1.1202766009608012,0.7823256431,1.43905156822,0.02289058238490274,0.1510716975746713,stairs up
-1.1409547262314803,-1.40063476562,-0.49865722656,0.029066886430069508,0.17025185464444664,0.1958379479067877,-0.30908203125,0.76513671875,0.04119249676623231,0.2026756865687228,0.08180654514921787,-0.24194335937,0.40905761718,0.022081092872652513,0.14838939935952963,1.1915817767706425,0.88919950478,1.47482496795,0.019091238508111445,0.13797793673716538,stairs up
-1.0812831593945074,-1.43322753906,-0.83227539062,0.020145373496294833,0.14172239785235893,0.16690327658256715,-0.05285644531,0.35998535156,0.00853180110274377,0.09222978390818502,0.002778101679552239,-0.23718261718,0.23217773437,0.014096653987914716,0.11855199038300322,1.1043544366096416,0.8474127512,1.44311534795,0.020145251308471595,0.14172196805696302,stairs up
-1.0297236110468801,-1.49548339843,-0.55041503906,0.04072524397982378,0.20152370378889334,0.17700705355275767,-0.20715332031,0.44934082031,0.01333770165769665,0.11532800737631378,0.044372048549832864,-0.42248535156,0.35571289062,0.02623023474526633,0.16173178421240342,1.0662424489193871,0.61700328057,1.50721385911,0.036930524008412874,0.1919053242304639,stairs up
-1.0782904567451808,-1.427734375,-0.79528808593,0.015928632996109887,0.12601847160587468,0.19380206372114459,-0.19702148437,0.53674316406,0.01992696306131983,0.14095014043357162,0.06851600738737951,-0.24328613281,0.43237304687,0.02124629547282123,0.14554140512905334,1.1162228939623193,0.80332002832,1.46473887258,0.01598849928317361,0.1262550638699399,stairs up
-1.1486872041474263,-1.58422851562,-0.86022949218,0.025436737453505453,0.15927505280780066,0.18289405474737264,-0.53332519531,0.6552734375,0.042383306897186564,0.20559591126421117,0.23293371941713137,-0.17333984375,1.07470703125,0.05674521000517174,0.23789299711185902,1.2261066229382038,0.90436187905,1.60661146701,0.02815999026461093,0.16758429017112222,stairs up
-1.0732337804502479,-1.44396972656,-0.75866699218,0.03267206973131352,0.18050502494272666,0.177985577540303,-0.05151367187,0.58837890625,0.013631991086522561,0.11659518597296087,0.0691247524953168,-0.29040527343,0.32409667968,0.016928573155513847,0.12993051207379122,1.103370896251763,0.7868097175,1.46726704362,0.03401264816707044,0.18417097874472313,stairs up
-1.0211105553399729,-1.43249511718,-0.71520996093,0.02491636127108095,0.15763513966370626,0.19653187986644985,-0.07141113281,0.580078125,0.017097020681831374,0.13057828032429328,0.08177189193685637,-0.33642578125,0.53051757812,0.028939248760871627,0.16988473331193765,1.065495258264119,0.71996665686,1.45627342131,0.023522135744625496,0.1531613205718118,stairs up
-1.0577919155902522,-1.28967285156,-0.78698730468,0.01286985773590487,0.11328639686315242,0.2015247505221008,-0.43249511718,0.68603515625,0.020935106174059324,0.14448690051375027,0.039183544510112044,-0.59606933593,0.24584960937,0.01915520433616264,0.1382083510559603,1.0950071109347619,0.78969697654,1.46715705807,0.014884251941975032,0.12183004292663002,Null
-1.0183997520999175,-1.25402832031,-0.84020996093,0.007204904767158955,0.0847650344938506,0.21022285209513736,-0.13598632812,0.43408203125,0.009116372674534096,0.09534845407587374,0.11731091174181318,-0.15258789062,0.39331054687,0.01238567933988084,0.11113798967179388,1.0568999253297529,0.87264573612,1.27398147548,0.006732973566123464,0.08194190860601644,Null
-0.9409461652689014,-1.12145996093,-0.67761230468,0.008100824296325705,0.08987772289591994,0.34308497468842253,-0.00732421875,0.72326660156,0.02516581285581267,0.15841377226155032,0.019183607502253522,-0.30920410156,0.30529785156,0.02089210064110156,0.14433727742125438,1.026692806636704,0.89687410414,1.20030087161,0.003372555513847631,0.057991855958148084,Null
-0.9016755756539889,-1.29528808593,-0.47570800781,0.04124847178661358,0.20281570474673263,0.01156624664459834,-0.35607910156,0.13684082031,0.014823666030534218,0.12158372935449066,-0.18806639272418282,-0.92077636718,0.15795898437,0.13515746382946103,0.36712813352116075,1.0175275170484213,0.70921564665,1.30047343738,0.0038699417322283175,0.062122634136265016,Null
-0.9977208956826479,-1.19018554687,-0.828125,0.0036765097241290524,0.06054876843263594,0.17873638313966198,-0.18640136718,0.56066894531,0.019816197773228204,0.1405716098570784,0.017324356293661976,-0.23510742187,0.41491699218,0.016234143211963613,0.12723369534476645,1.0313913843618594,0.84879168042,1.21974467377,0.003550571622016286,0.05950268911413519,Null
-0.7961324055953889,-1.26013183593,-0.35974121093,0.04242603914564549,0.20568954527857652,0.5073415120408055,0.12548828125,0.98181152343,0.0456752321252659,0.2134206093152053,0.24629380967538891,-0.93322753906,0.71179199218,0.07115133912112107,0.26637135077265967,1.0463129761061667,0.80098489172,1.75436902896,0.015966607513860757,0.12618342136082006,Null
-0.7339174087398586,-0.876953125,-0.61328125,0.004455336625517917,0.06665396408943479,0.618521997481017,0.41589355468,0.76843261718,0.005843816937050944,0.0763368127419638,0.3150986493608474,0.12536621093,0.45397949218,0.00712592053892403,0.08429585292223765,1.0186162196825423,0.96493635621,1.10857369806,0.0003006891128729601,0.017315880243271135,Null
-0.7568387118216477,-0.85119628906,-0.69177246093,0.0010866029402550855,0.0329168042203964,0.6537683660291761,0.59167480468,0.70837402343,0.0005152913993062883,0.022667763526328127,0.17663747613710226,-0.05346679687,0.27185058593,0.007185976938418961,0.08464964401110936,1.019730625135199,0.97888923411,1.07755118455,0.0003217826991073557,0.017912803904251404,lift down
-0.8039980225247368,-0.83959960937,-0.76245117187,0.0003000031047913504,0.01729659131910309,0.6408055693783379,0.58325195312,0.70849609375,0.000600294193230541,0.024466943585771974,0.08263179535648199,0.01745605468,0.14721679687,0.0009516375209799085,0.030805866421240998,1.0320150235123269,0.97692468411,1.09052982406,0.000611139892449703,0.024686980053468845,lift down
-0.6900279460063977,-1.1103515625,-0.26403808593,0.03776506561086751,0.19405213878945335,0.5984034469527377,0.12878417968,0.89990234375,0.016678266568196053,0.1289581420438881,0.29158516919380406,-0.14001464843,1.05615234375,0.09017691994656657,0.2998617082866308,1.0281157128083287,0.7775603812,1.25763483747,0.00644730275572131,0.08017931549038053,Null
-1.0019987336842309,-1.12915039062,-0.83532714843,0.003176915300291927,0.05628665482159524,0.21352579305115385,0.06408691406,0.49243164062,0.005626977021861074,0.07491006804014423,0.08966399810909342,-0.22082519531,0.41125488281,0.008604604954846528,0.09263350328172469,1.034999579513324,0.85324826625,1.17360047784,0.003781289459856494,0.061407664847311576,Null
-0.8952585714406407,-1.15979003906,-0.50183105468,0.024874775451724833,0.15749757580234108,0.389814031485766,0.00598144531,0.76281738281,0.038188616588499605,0.19514671816848464,0.23058401973498605,-0.23669433593,0.57836914062,0.03717890144013127,0.1925495755398505,1.0471689274885794,0.77437038226,1.25774351961,0.0100401503697235,0.10006089834221045,Null
-0.7520275912875208,-0.79028320312,-0.70727539062,0.00020556340852514277,0.014317500078623917,0.6209468575865459,0.59240722656,0.74731445312,0.0007732819476913135,0.027769190823268175,0.29513779323657385,0.005859375,0.423828125,0.004288925963500109,0.06539861691596391,1.0214546157633426,0.97978108064,1.06978225103,0.00011068912702534197,0.010506226761602781,Null
-0.7926842612004762,-0.90380859375,-0.73657226562,0.0012262133315550485,0.03496825074718779,0.6163073627847898,0.58129882812,0.66369628906,0.00043072640410619624,0.02072486158139744,0.12649869517686274,0.01989746093,0.32006835937,0.00789562150444927,0.08873277251163786,1.0162362716716247,0.96681711965,1.09390054075,0.0009774045941046002,0.031219653523220103,lift down
-0.78019608278,-0.91784667968,-0.60485839843,0.003132010545534781,0.05588949978115175,0.6530337410144385,0.52026367187,0.87109375,0.0036675112182343737,0.060478963603111405,0.09520276727254012,-0.13488769531,0.25073242187,0.0082723818471724,0.09083095936481037,1.0275798214964171,0.88521687366,1.20660996106,0.0033428142469339845,0.05773972844520608,Null
-0.7355953621426815,-1.27856445312,0.095703125,0.09184123408681175,0.30262963226821116,0.5871708193264804,0.04077148437,0.93518066406,0.05881327278718763,0.2421755353092199,0.11155385278349161,-0.38977050781,0.63659667968,0.06856050268475959,0.26147465058916125,1.0497991734540781,0.72008593423,1.42117169036,0.014768989870598288,0.12135788276394975,Null
-0.3733775926663044,-0.76611328125,0.17443847656,0.12946779939980324,0.3593271277367201,0.748398158857663,0.51879882812,1.02233886718,0.02692372993382345,0.16386142811601717,0.42017729385692937,-0.04113769531,0.60729980468,0.020297225589326454,0.14227462909812008,1.0251931084860326,0.87661441812,1.11569189784,0.0012507005537921601,0.035317161706215044,Null
-0.030735036713497327,-0.70812988281,0.419921875,0.10801633826943126,0.3282090974701002,0.36340332031177597,-0.39270019531,1.0400390625,0.292423975137592,0.5400231499925966,-0.21636929537999997,-1.02563476562,0.86450195312,0.44925499980492795,0.6693485841681188,1.010471316507623,0.75895417134,1.20725106271,0.0061566480367850115,0.07835704559298771,lift up
0.343880642661882,0.10925292968,0.4775390625,0.010750462691727738,0.10353871142146975,0.725627770581208,0.42956542968,0.92041015625,0.021394260340716068,0.14606219258865022,0.5497563394227809,0.32861328125,0.92211914062,0.03400039090038246,0.18413278954159729,1.005812457862809,0.87947290591,1.10940383819,0.0013338075669106118,0.036470000225414884,lift up
0.43663168216610493,0.20654296875,0.65771484375,0.006294482647357475,0.07922811731794457,0.8423320285483977,0.67639160156,1.04125976562,0.004925141441282637,0.0700823521165291,0.35151596490475134,0.20483398437,0.517578125,0.0073920412155357666,0.08585814586967234,1.0187972179160496,0.85980373438,1.23363675603,0.004358466366913942,0.06592743286807397,Null
0.3449516836677903,0.01477050781,0.61218261718,0.020523551954454836,0.14305737164035337,0.8039270676535126,0.4677734375,1.1064453125,0.020906032419108378,0.14438423920648524,0.4983702057109915,0.22607421875,0.97094726562,0.031822888453177024,0.1781368536477801,1.0307997383301133,0.74222674015,1.45029531834,0.02422875099975035,0.1554352415360358,Null
0.22415364582983333,-0.0546875,0.47619628906,0.010739971518766102,0.10348979787663762,0.8256985134508057,0.52697753906,1.23657226562,0.03701870457313375,0.1921350432331603,0.5586778428783333,0.31799316406,0.89306640625,0.020245040739564624,0.14208731299904315,1.0313816997923888,0.71710324301,1.44690917718,0.04834472202465719,0.2195687389637793,stairs up
0.29935756138031433,0.05859375,0.54479980468,0.013252261725654526,0.11495389563091842,0.8224152483223999,0.55554199218,1.13269042968,0.023060404177122372,0.15163943190359452,0.48474400111228566,0.24877929687,0.8271484375,0.016897547629941657,0.12980473382133464,1.0144772871793715,0.70303517933,1.40851039946,0.024950401769599027,0.15773114754987416,stairs up
0.2868316985714835,-0.02966308593,0.67651367187,0.021371478569887914,0.14598892326705454,0.8271323403122803,0.50500488281,1.18078613281,0.024300182476174007,0.15567088274018231,0.506138057495522,0.22094726562,0.90502929687,0.018383541705490468,0.1353995475252256,1.0309968127894233,0.69985018089,1.42255567145,0.023333505155039885,0.15254311560637426,stairs up
0.2190216593621965,-0.03491210937,0.4140625,0.011095518755578253,0.10518293959714302,0.8009153156574567,0.44763183593,1.11108398437,0.03233704828957651,0.17956499829431963,0.6057658112769074,0.33142089843,0.95922851562,0.02087020809121768,0.14425633286175976,1.0378219060508382,0.71242184837,1.44054228261,0.04353026019050977,0.2083373470839042,stairs up
-0.5315922264441348,-0.70629882812,-0.08642578125,0.016572443607855702,0.12854510518290335,0.1445548765098827,-0.14208984375,0.71594238281,0.019292305726285697,0.13869293438985644,0.84476021237739,0.66943359375,1.04565429687,0.005427284980850937,0.07356200914275138,1.02696793305522,0.88916359177,1.28198908214,0.0036246612412758677,0.06011681741550767,Null
0.09958045475958674,-0.5625,0.52880859375,0.1817744876286963,0.42576252942741444,0.47183740368520655,0.02746582031,0.85815429687,0.05842460663286299,0.24137865958550658,0.7222698621474931,0.41796875,1.02502441406,0.02778795740562058,0.166467433928601,1.0077150510272177,0.74582676329,1.19128252856,0.005996246099171235,0.07732869787392,Null
0.36711832681924994,0.18078613281,0.53735351562,0.0072891554625876456,0.08525789000746442,0.7383270263636666,0.32971191406,1.13757324218,0.03388696960311231,0.18382828708333374,0.5934875488246945,0.32995605468,0.89782714843,0.020173429359427054,0.1418357925759604,1.0220126671371665,0.55587016542,1.45424270201,0.04893531298986224,0.22090582057720978,stairs down
-0.08110675704144064,-1.15942382812,0.55786132812,0.3495600426370749,0.5904003598317946,0.6168471514131074,0.09448242187,1.0263671875,0.05548459650739975,0.23521875001596654,0.4904895502254803,0.0986328125,0.75744628906,0.036336894122396615,0.19035295513553374,1.0259875193455368,0.70608551042,1.35717932091,0.015253132914821183,0.12332901105876962,stairs down
-0.9770402696358333,-1.35949707031,-0.60424804687,0.04148431260657234,0.20339389962554782,0.25378146700997223,0.09326171875,0.44836425781,0.004387008605127829,0.06614244076320125,0.14227261013091666,-0.02807617187,0.28625488281,0.006252661803813868,0.07896387337766098,1.0245763288323333,0.65839421698,1.4140761675,0.041592291795893355,0.20365843378563006,stairs down
-0.9618393470465231,-1.37414550781,-0.60290527343,0.050316101305354785,0.22398998818552335,0.2866428419057471,0.1162109375,0.4541015625,0.004511467101335576,0.0670708812780345,0.1984428318027299,0.05126953125,0.36901855468,0.006405853392735546,0.0799214975337911,1.0290266096618104,0.68160067334,1.42851530809,0.048981056296340815,0.22099843016313425,stairs down
-0.966451120896868,-1.11181640625,-0.83337402343,0.0028654230518551384,0.05345606617123905,0.22640789995741759,0.111328125,0.36669921875,0.003444911574536821,0.058612690876205575,0.19890954991898357,0.03515625,0.50122070312,0.007142341194566535,0.08439620476122102,1.017576596239643,0.88782363484,1.14485037719,0.003058138118582418,0.05522442068718027,Null
-0.9774758982065989,-1.11535644531,-0.87329101562,0.0016270616961371687,0.0402781810118722,0.21887774799764534,0.05969238281,0.35485839843,0.0049498119114185,0.07025256524358317,0.15639832961973837,-0.00646972656,0.39428710937,0.006725198242517833,0.08188802261397446,1.0194865420222967,0.91071280461,1.1435568636,0.0017426973046324578,0.041684905230739526,Null
0.09075756287047751,-0.98706054687,0.48657226562,0.21169706611804257,0.4594588245293975,0.6791539567195786,0.16589355468,0.98034667968,0.030058110392116654,0.17312907756283105,0.5504908186628651,0.03381347656,0.98840332031,0.03287530800858712,0.1810606573438208,1.0205134008457022,0.859073985,1.19167006026,0.004952534463932343,0.07027533600253799,Null
0.3873114049752071,0.35205078125,0.44689941406,0.0005002172965973071,0.02233242852372168,0.819136218908077,0.73657226562,0.87768554687,0.0012017554027095505,0.03461502438757514,0.4538924538841419,0.333984375,0.56665039062,0.00438607699268671,0.06612942184486985,1.0162931055450592,0.95605294964,1.07396901782,0.00023167601028470968,0.015198374199289173,Null
-0.6430134731029205,-0.92565917968,0.34106445312,0.15702198583371552,0.39567511184694315,0.5672074489496756,0.17663574218,0.8935546875,0.018775034823215818,0.13681977649326324,-0.08152100329389383,-0.33581542968,0.52014160156,0.08716580060059904,0.2948027719427686,1.001037949147935,0.85755259879,1.12929425946,0.002081911222252679,0.04556061776593449,lift up
0.3031349182090057,0.14892578125,0.51733398437,0.004406555729572874,0.0662875335590421,0.8257512179243182,0.56872558593,1.01635742187,0.008337419892946708,0.09117967997848046,0.4955919439103693,0.35620117187,0.86657714843,0.012348817058731148,0.1109672708148084,1.0201918745711362,0.86770096604,1.20129260565,0.003607521450801734,0.059977269113527513,Null
0.23925646736862258,0.06726074218,0.47045898437,0.01487945530434759,0.12181323848149424,0.8064886255994216,0.66125488281,1.08837890625,0.005861394032407995,0.07645421467394474,0.5540411662758126,0.36328125,0.78247070312,0.007079850633666306,0.08402587049779611,1.0200209887115428,0.9169575905,1.22736691866,0.0019357484797880413,0.04393649780476198,Null
0.22219630025171916,0.01892089843,0.45104980468,0.018430174090782524,0.13556314236927539,0.7709842015098567,0.58544921875,0.90783691406,0.00736630282731315,0.08570411858493812,0.5885716304353582,0.46105957031,0.76501464843,0.004667738434688625,0.0682228981060849,1.0099664912773065,0.91269105746,1.04992921312,0.0005247464340065705,0.022874502454969935,Null
0.37019464854447587,0.16247558593,0.54431152343,0.011187468310757271,0.1056209059134014,0.7260150855351558,0.51354980468,0.85913085937,0.009098658514590394,0.0952516838591589,0.5585978996952691,0.41076660156,0.79553222656,0.011916466294011914,0.10900783732891883,1.003562341967167,0.87786772512,1.13364546176,0.0011508494069561834,0.033876086113007665,lift down
0.38396952955815566,0.08654785156,0.51770019531,0.012739337360083385,0.11270592075087343,0.5929292794230835,0.4423828125,0.78332519531,0.005793742337660423,0.07600687912197902,0.7247638097717002,0.552734375,0.9541015625,0.010646190671207933,0.10303159712655827,1.025923891222219,0.97322734474,1.10949958853,0.000858132659193602,0.029251660712035894,lift down
-0.22929496985609826,-1.13537597656,0.9150390625,0.5383552534753993,0.7326658948227719,0.10516110458679193,-0.91369628906,1.01599121093,0.2689893843592558,0.5178918404386186,-0.31608343399713873,-0.85083007812,0.25695800781,0.048984382431659014,0.22100409288524486,0.9974770503873989,0.35049830539,1.51139263213,0.022120179976440623,0.14851346343156688,Null
-0.7584992751826347,-1.27661132812,0.65710449218,0.23191401534254288,0.4808919162650875,0.37383739265818694,-0.31237792968,1.08532714843,0.066095264460214,0.25672558452693217,-0.09261886121110482,-0.85827636718,0.45483398437,0.06886372846190346,0.2620470321872749,1.03711179779949,0.72658963306,1.46862752383,0.01392607752184422,0.11784153290460209,Null
-0.8975770786787143,-1.03247070312,-0.75390625,0.0023368050586487638,0.048271404296611364,0.40657261439368575,0.03015136718,0.5810546875,0.012221203080796125,0.11039150944573652,0.16743094307708573,0.00109863281,0.62438964843,0.026533650395082226,0.1626586608987729,1.0193608606952003,0.92486722708,1.10232442518,0.0008591678897946761,0.02926966218450877,Null
-0.27805321848250714,-0.96228027343,0.30187988281,0.2795914889876397,0.5280103522081333,0.7061934511849857,0.38952636718,1.15209960937,0.0516333401815108,0.22690578804479655,0.293855237821225,0.02575683593,0.59741210937,0.04320806477269013,0.20756918093265397,1.0168462750262963,0.85796401626,1.15546399541,0.0017685086113685574,0.04199369149403613,lift up
0.03680662675085227,-0.13537597656,0.1015625,0.003010133556450098,0.054786695836349986,0.7920684814412217,0.45300292968,1.04699707031,0.020095890764601266,0.14155846907139888,0.5691840431871307,0.20983886718,0.90844726562,0.023878380400952318,0.15430665602298257,0.9993816774405399,0.93954779768,1.10742947072,0.0007924629109064737,0.02811070251378772,lift up
0.22494935595024793,-0.1279296875,0.52465820312,0.027228656116122255,0.16478363403013363,0.6310251619491735,0.38073730468,0.849609375,0.014456609395450412,0.1200699130724055,0.7316302675152341,0.50402832031,0.98071289062,0.012275221790243806,0.11064088644011379,1.0165083594326445,0.82989419133,1.1934601262,0.0046131154341153115,0.06782630114589973,Null
0.3258796037905143,0.15112304687,0.52465820312,0.004384490496977702,0.06612082411216644,0.6353044782329714,0.34167480468,0.80297851562,0.015444544757373549,0.12409841855010964,0.7087227957551143,0.50903320312,1.01416015625,0.01262781172814968,0.11221288814601134,1.0212880520798573,0.91691465527,1.12272839218,0.0014362287802500591,0.037843430994683146,Null
-0.806549072262361,-1.41125488281,0.40539550781,0.28046439257922656,0.5288528385307788,0.23920321994041666,-0.09826660156,0.81140136718,0.02852020410570154,0.16864454131847564,0.28676961262838885,-0.27075195312,1.080078125,0.1838401730791956,0.42816994982337725,1.12123101687225,0.73232320502,1.47198576803,0.024111013661305962,0.15506140275180633,Null
-0.9385828023645821,-1.89624023437,-0.17712402343,0.1880980694386114,0.43307736038060796,0.5005684888299136,-0.18469238281,1.83349609375,0.17670129240329047,0.4197523874580918,0.10282823194152736,-0.41137695312,0.54797363281,0.036492615281953925,0.19075494552875266,1.201405342643314,0.33931895546,1.9134490334,0.09912652015513643,0.3143896514678535,stairs down
-0.896193310407688,-2.35961914062,0.45642089843,0.3330851200126764,0.5763309000113612,0.7535641810991086,-0.20043945312,1.98217773437,0.2852896906872389,0.5333807382002993,0.4872179801717549,-0.28735351562,2.10949707031,0.3173102077091947,0.5625178532849623,1.5131456967789414,0.40110343193,3.3279387395,0.25257509041679893,0.5018680490257456,stairs down
-1.1474644452636207,-1.93896484375,-0.47192382812,0.09309195938435115,0.30467105828078966,0.2105572579888793,-0.39453125,0.59716796875,0.03555709567610614,0.18829476921523464,0.11882703057402298,-0.24206542968,0.400390625,0.01756134274251853,0.13232867835034126,1.1956880240883334,0.47486747976,1.97654787442,0.0915122434814929,0.3020749530573365,stairs down
-0.4551898560225684,-1.58557128906,1.02209472656,0.8726350321430179,0.9328723296471579,0.36633701011450814,-0.22387695312,0.91003417968,0.06735659827904043,0.2591767039251657,0.007574696356584702,-0.51171875,0.30505371093,0.04252024962403977,0.2059224953195228,1.12990901305612,0.61857623781,1.6197132805,0.044713196805906893,0.21116588171747624,Null
-0.9783846644088795,-1.96508789062,0.40148925781,0.08185298757982976,0.2856986305577528,0.3351818266330532,-0.05017089843,0.8779296875,0.02795512526570322,0.16696352773192727,0.1221130542040056,-0.1875,0.87524414062,0.026242837109689873,0.16176936595673386,1.0847864437087396,0.41088660472,2.27431345643,0.04352515205839365,0.2083344255396903,Null
-0.9512808303166115,-1.13610839843,-0.55322265625,0.01433815748683336,0.11957699791513333,0.2572307323915427,-0.05505371093,0.76342773437,0.020508055738385017,0.14300894977961048,0.08164687984060606,-0.43701171875,0.94897460937,0.03690174641639154,0.1918334921559974,1.0208854995436638,0.73344691455,1.2364742982,0.0071318314020153714,0.08433376834668613,Null
-0.9578397943691292,-1.12475585937,-0.74169921875,0.0056455262765739275,0.07503111392413091,0.2928261060352528,0.103515625,0.75952148437,0.018623862966899513,0.1362774696899028,0.05669651674230337,-0.49047851562,0.54211425781,0.024779306933516813,0.1571932000398228,1.0257811901049159,0.85147134485,1.26740759244,0.0032785858057984485,0.05717846006240465,Null
-0.7276631673141111,-1.20263671875,-0.28784179687,0.03865109636847381,0.19632557707006673,0.5720052083303054,-0.02770996093,0.97082519531,0.056319195812193704,0.2369868215779187,0.28155754936827776,-0.21618652343,0.83630371093,0.08555566765752516,0.29209247341405964,1.0512847628644166,0.73628235732,1.32364449103,0.0089932317963982,0.09470084792103901,Null
-0.6366365674480845,-1.12817382812,-0.23266601562,0.057962671347648015,0.24041504989723764,0.6324476644989577,-0.39172363281,1.09704589843,0.08496984468798575,0.29108502711889583,0.15780802981870423,-0.40417480468,0.68176269531,0.08294843676381448,0.28760177189208297,1.0232952252446197,0.74068183761,1.21217842507,0.008334569696511508,0.0911651909195312,Null
-0.9806693669435932,-1.03076171875,-0.92980957031,0.0005145686616045633,0.022652490430729685,0.19700924333760447,0.15979003906,0.2216796875,0.0001731490951465222,0.013140273425210357,-0.058973902111532035,-0.09655761718,0.01806640625,0.0001638853149101895,0.012783927794489822,1.0021610901989413,0.95222181771,1.05146470231,0.0005268180222645812,0.02292052710110601,lift up
0.3486086059186403,-1.27844238281,0.970703125,0.17421278696560555,0.41679643271343325,0.6006582114210481,-0.67102050781,1.03381347656,0.15698302220667723,0.3956492273411009,-0.0320989592562323,-1.11291503906,0.51928710937,0.22841001611901046,0.47724518043557546,1.0144884998778472,0.64275632433,1.48769078093,0.01307617439414966,0.1141890161407716,lift up
-0.748884025720557,-1.70812988281,0.44201660156,0.38775267454815504,0.6218300278474018,0.3624165569476045,-0.06909179687,0.98156738281,0.08409243095714927,0.2895827864400679,0.09983719424515321,-0.56726074218,0.79907226562,0.08603948028167853,0.29291605621952566,1.1086198113368524,0.48167203629,1.75930494741,0.029515429402301792,0.1715611078348337,Null
-0.914686949820338,-1.26794433593,-0.24829101562,0.05593606729744026,0.23617472538501427,0.3320494745782535,0.03735351562,0.78283691406,0.05123850834096357,0.22604020552691728,0.12466714348546482,-0.24291992187,0.73962402343,0.060322260640165305,0.24525973737898174,1.0577566413127324,0.80311401931,1.39964147238,0.010700477454618171,0.10329731489542776,Null
-0.8646328641804734,-1.115234375,-0.3310546875,0.03953774806653826,0.19856388156854557,0.3649565715271587,0.12646484375,0.95056152343,0.04018192982614945,0.20017492961162275,0.20870895172958218,-0.09216308593,0.74438476562,0.04841839769376564,0.21973513033924189,1.0236093978107519,0.70756373718,1.19394376715,0.004486712807766169,0.06688957318223968,Null
0.045482506910224714,-0.89086914062,0.37268066406,0.11983662591404294,0.34568772928515895,0.8377922143794664,0.42883300781,1.11096191406,0.03080056585168668,0.1752542364916839,0.38337484637969105,0.00598144531,0.89721679687,0.047211166878254766,0.216975923182634,1.0227971844401404,0.90015501799,1.13510369076,0.00240827016362212,0.04900515646125131,Null
0.2889825932458217,0.08801269531,0.89208984375,0.04754588046092432,0.21774627593252113,0.5279394803257661,-0.70910644531,1.19921875,0.3628874604998136,0.6015618271790807,0.1472752818139833,-0.76037597656,0.92504882812,0.21120273898454534,0.4589274784967744,0.9999499657411142,0.76168167806,1.23086525114,0.00393657725102529,0.06265470337319362,lift down
0.6145974714168926,-0.158203125,0.98315429687,0.10134314309765974,0.31789442120366335,0.17620056496999997,-0.712890625,0.90063476562,0.1785750273834712,0.42198409703870876,-0.5357331529135593,-1.00134277343,-0.103515625,0.0578761295126068,0.24023454710205244,1.0156917857555934,0.93054609161,1.08422918218,0.0009998015555690142,0.03157494667278855,lift down
0.06320631239083335,-1.15502929687,0.90563964843,0.6721870396289106,0.8187306354398369,0.5584642198310555,0.28039550781,0.92468261718,0.015385150355510574,0.12386449784641791,-0.10290086534252778,-0.69787597656,0.38537597656,0.06546819552451226,0.25551191640671683,1.03210676950125,0.38978396475,1.43867128793,0.0122040339519013,0.11031832965373643,lift down
-1.0145354094288603,-1.21997070312,-0.82568359375,0.006289052625787108,0.07919049877945404,0.24563502993253558,0.0244140625,0.52685546875,0.009357971311359289,0.09659870819235804,-0.04304352241188034,-0.24768066406,0.17712402343,0.009098712686742743,0.09525119646689985,1.0534586816082336,0.89568282219,1.26182657849,0.006389655977584389,0.07982137451522682,Null
-0.09377204047319448,-1.49084472656,0.98718261718,0.8154170829059886,0.9017494305257264,0.21142306857408333,-0.37048339843,1.11560058593,0.09722076492516356,0.3113690852426038,-0.11190558539472222,-0.54138183593,1.11608886718,0.13788786276486112,0.3708164517977157,1.0352686235278332,0.25367462156,1.87816255408,0.04229262411024666,0.20536587983116694,Null
-1.0477068990597789,-1.36596679687,-0.70886230468,0.025591900333824295,0.15975357422151323,0.2039801666053039,0.04870605468,0.56567382812,0.011197554272126625,0.1056722376112176,0.031525838440110504,-0.21423339843,0.32751464843,0.01539771409787673,0.12391601581740509,1.0803904350396132,0.74121831556,1.40181963591,0.02516055060739742,0.1584015351060449,stairs up
-0.651907937566696,-1.34704589843,0.79028320312,0.424098732958558,0.6502758477629516,0.34234369288769007,-0.11413574218,1.16931152343,0.08119199280106484,0.2845251997861392,-0.06400374919994155,-0.92651367187,0.27490234375,0.061011845250645125,0.24664437565513206,1.0380901362938597,0.43272018067,1.39368364877,0.03339286746794474,0.1824697988835089,stairs up
-0.3089909788032787,-2.193359375,0.98767089843,0.9410273490374035,0.9687395088783628,0.3563469224912842,-0.21215820312,1.22314453125,0.09314533819959506,0.3047799907146683,-0.004545951802595632,-1.134765625,0.65112304687,0.16630928046031404,0.4072528496145431,1.1494187787496994,0.41161519291,2.34332746193,0.09824506254243959,0.3130121937078649,stairs up
-0.9306766394377576,-1.66760253906,0.05993652343,0.21639960037203385,0.4644823398228076,0.1708854906458182,-0.20764160156,0.67822265625,0.031559289555944274,0.17737997447617554,-0.19612593217336366,-1.21911621093,0.2548828125,0.19889533989037428,0.4453006026710399,1.153874646100909,0.64820426744,1.75292121226,0.04673917894275707,0.2158646452459804,stairs up
-1.0378709084910571,-1.65502929687,-0.57775878906,0.07024474259821137,0.2646778748632357,0.2987070471255555,-0.19299316406,0.77893066406,0.041517917754006664,0.2034831763850429,0.047558792237723586,-0.51293945312,0.50671386718,0.03671147489735284,0.1913425875373543,1.1238804549161518,0.65701510469,1.76695318818,0.05377397973175829,0.23157774243090765,stairs up
-1.146191965880659,-1.43408203125,-0.69311523437,0.02408650908979959,0.15497578296121622,0.19346360695395415,-0.177734375,0.53991699218,0.0217498886660555,0.14726699585500647,0.08608825158805157,-0.10363769531,0.40490722656,0.015453250188778385,0.12413287854127263,1.1808265805439255,0.75773866038,1.47176885303,0.025430864322779426,0.15924194333371144,stairs up
-1.1311738387366035,-1.58520507812,-0.82177734375,0.025026594498941863,0.15798287074449874,0.19354480245502714,-0.11169433593,0.47644042968,0.01838352146914192,0.13540150016804978,0.05171502154682065,-0.18664550781,0.37426757812,0.012053250282652079,0.10963802663831956,1.1613838696501357,0.85502877962,1.64354224832,0.026259803510896924,0.16182844419070008,stairs up
-1.090234517352624,-1.43713378906,-0.66723632812,0.033214614628417544,0.18198290858554816,0.23623594945419826,-0.03649902343,0.66613769531,0.018379592731064633,0.13537358646577521,0.07804528061122448,-0.21398925781,0.55139160156,0.01872269067219269,0.13663127595170926,1.1343746398899417,0.70980574054,1.48830477378,0.03391473812599946,0.1838908952027264,stairs up
-1.0740628449775274,-1.6162109375,-0.63037109375,0.03304924293038834,0.18154733598991207,0.2339520661695652,-0.48327636718,0.8564453125,0.04052808074940833,0.20104215999436031,0.011417223059048914,-0.52136230468,0.41711425781,0.03268465365815822,0.18054317119326868,1.1314529253001633,0.66264858064,1.69182323399,0.035782452417217024,0.188905313562563,stairs up
-1.2127739880806827,-1.73791503906,-0.78112792968,0.04485197171634753,0.2114683896286741,0.2274253233921068,-0.17993164062,0.53759765625,0.02036685946371481,0.14250060939854262,0.09097896768255193,-0.13256835937,0.33740234375,0.014040723918187892,0.11831762357736254,1.2499756232149852,0.83262093113,1.79132814915,0.04754658915512214,0.2177280444808957,stairs up
-1.0267003170484552,-1.40747070312,-0.64733886718,0.039943266696378335,0.1995871222327678,0.28322363545601625,-0.01013183593,0.64526367187,0.01720359976447968,0.13098464621052242,0.08131536881634145,-0.59948730468,0.59497070312,0.030678046834930833,0.17491400314618835,1.0907590580583468,0.73649456662,1.43771999686,0.0409551341240325,0.20209934339492827,stairs up
-1.062150763333284,-1.5458984375,-0.77880859375,0.033797622012852545,0.18356913969487756,0.23194587300899408,-0.12170410156,0.55407714843,0.019541495303412447,0.13958395405113827,0.08426535340952662,-0.22106933593,0.39904785156,0.014712139973146816,0.1211140492750785,1.1062442098688756,0.78530216284,1.63912303383,0.033273263918008,0.18213956821290403,stairs up
-1.1648636281127869,-1.50354003906,-0.81567382812,0.02226797832435404,0.14902059204526893,0.2113530727,-0.119140625,0.58435058593,0.020198023570053694,0.14192546534468334,0.08923940189448089,-0.12951660156,0.30883789062,0.012502782765404742,0.11166298472079321,1.1999543837946174,0.82937619319,1.5411138757,0.02508334229818028,0.15816070490502407,stairs up
-1.0148225723801152,-1.39819335937,-0.64465332031,0.026177092132241377,0.16156006259711828,0.22463153761867438,-0.25048828125,0.57214355468,0.03164051031925211,0.17762130303653184,0.08273552886190201,-0.30297851562,0.4326171875,0.02634277110903306,0.1620705258279501,1.0694646792124785,0.69720986621,1.52543404159,0.027411480841952367,0.16532539193944,stairs up
-1.112673626261648,-1.61779785156,-0.68688964843,0.03615750258963454,0.1898855022876917,0.1877809663024581,-0.05102539062,0.4130859375,0.011587301030876636,0.10749388014310655,0.08642748614139663,-0.18151855468,0.29846191406,0.010959802092791637,0.10454275737929147,1.1420860124840502,0.68913422684,1.65008421993,0.03505207753080679,0.18696033456248187,stairs up
-1.0717327675080899,-1.60668945312,-0.72583007812,0.021774205042008502,0.14735345786475285,0.20111529746443818,-0.21789550781,0.41564941406,0.011786002110431813,0.108410771434072,0.06065660112188202,-0.1220703125,0.24694824218,0.009241492158413023,0.09599756721280508,1.101721599292837,0.72997958077,1.62059990128,0.021518546081210902,0.14648583797435913,stairs up
-1.1160005537451956,-1.61743164062,-0.77844238281,0.03000342652320938,0.17297288246784215,0.19279505553539109,-0.12048339843,0.47302246093,0.015760473847924228,0.12536526703181372,0.09005140592036313,-0.11083984375,0.23193359375,0.00943630094823826,0.09700485846441549,1.1465467336634356,0.78560470944,1.62075190789,0.030653184755223238,0.17483581250453026,stairs up
-1.1704032983637922,-1.54296875,-0.84655761718,0.024598490893024405,0.1566186259947821,0.19249288151432584,-0.06225585937,0.44006347656,0.009408064608870963,0.09685885329226873,0.0859687033652809,-0.11389160156,0.30798339843,0.013993416777968223,0.11812751342286144,1.1985977049448875,0.883643797,1.5798513252,0.025588568810807937,0.15973944662646852,stairs up
-1.0507386276802515,-1.755859375,-0.69860839843,0.03402688804449528,0.18420597403772396,0.19328333678446927,-0.01904296875,0.37622070312,0.006003323643532349,0.07737282845466846,0.07262160657935754,-0.79333496093,0.34399414062,0.034241208737046586,0.18478518041927922,1.0880345434784635,0.70971689135,1.9314465324,0.03703224229260409,0.19216867662297876,stairs up
-1.047101702004958,-1.36486816406,-0.69177246093,0.013639033582283851,0.11662259217845877,0.1829050956282353,-0.40051269531,0.42419433593,0.014070059061988346,0.11845103263307889,0.07103603159770308,-0.35266113281,0.35144042968,0.014645217346234978,0.12084781474424107,1.078726550022633,0.74668156101,1.41536687261,0.013545008075949928,0.11621990740341187,Null
-1.019565733135565,-1.35766601562,-0.4638671875,0.02644838404340352,0.1623997262747951,0.17464330640607342,-0.38317871093,0.78552246093,0.02613600283420619,0.16143782802591647,0.08248401361423728,-0.45654296875,0.77673339843,0.054854972293682726,0.23388034279269926,1.0822714308621186,0.89274362745,1.35974717252,0.012678403954684853,0.11243926918229187,Null
-1.0985036015802507,-1.35168457031,-0.43762207031,0.027077105948216607,0.16432188611006002,0.22064225985526462,-0.16735839843,0.83288574218,0.028919624955149333,0.16982069631460836,0.02845292370231198,-0.25964355468,0.26354980468,0.013516919835358078,0.11610025085275638,1.144497670622479,0.83037207391,1.40576305435,0.017139802495929987,0.13073660280690358,Null
-0.9959952731058545,-1.34912109375,-0.67150878906,0.028011269099901794,0.16713110470898768,0.34659146861515405,-0.17553710937,0.87780761718,0.054528607726551284,0.23318633435181765,0.025345147823641456,-0.41882324218,0.28161621093,0.02705706544753528,0.1642597800687754,1.100229666547703,0.87266208609,1.39505324224,0.01159170533388545,0.10751388548018082,Null
-1.3038203207253372,-1.63122558593,-1.01123046875,0.015676643023719454,0.125030426335384,0.22099389922488763,-0.30639648437,0.69445800781,0.0489096729698873,0.22084448430527254,0.11705137102508427,-0.18432617187,0.38293457031,0.012025285701965266,0.10950573870598752,1.3495124715492417,1.02319217973,1.67968094846,0.01851253617089652,0.1358695501751533,Null
-1.1658607400837904,-1.46276855468,-0.83984375,0.01851091693021019,0.13587183814473072,0.264811526059543,-0.12353515625,0.73913574218,0.04576530317505699,0.2136405349331486,0.07817815965051075,-0.12524414062,0.35791015625,0.011935242401659274,0.10910159676516462,1.2198933349606182,0.87108950763,1.52244827725,0.023397976337723118,0.15275823562698354,Null
-0.7703430528548844,-1.34069824218,-0.12634277343,0.07615051445274779,0.27555476091094455,0.5563280403239306,-0.07604980468,1.27954101562,0.06281582597447656,0.25026841060048416,-0.05800738913413294,-0.42834472656,0.22485351562,0.020959850956453814,0.14456580976335112,1.0182050464005203,0.48905818925,1.43431838013,0.02910073132877722,0.17034266984190266,Null
-0.22284001530686484,-1.14575195312,0.86218261718,0.4182074354420327,0.645815101306847,0.41651347392008103,-0.51440429687,1.2392578125,0.13217841249081527,0.36307185726538677,-0.500663468641054,-0.78454589843,0.24450683593,0.06010713983209965,0.2448360433082182,1.0336252661893515,0.73015735741,1.48948069421,0.01430553463372462,0.1194440079141957,Null
0.5674254118138122,-0.03527832031,0.82116699218,0.059082442060292076,0.2427121335386019,-0.03161048329762463,-0.69958496093,1.130859375,0.46567568757702366,0.6814030156411781,-0.40841719551492667,-0.78845214843,-0.26501464843,0.01842318288132606,0.1355328593074584,1.0130508117764516,0.84630291221,1.28451710608,0.00510686055357549,0.07135744125821668,Null
0.8079006949700541,0.609375,0.87634277343,0.001870979539697503,0.04319617036776374,0.3088388830645258,-0.41662597656,0.66625976562,0.08560236814446685,0.29218210658243254,-0.4157784314618699,-0.70251464843,-0.20239257812,0.01778229155136496,0.1331694449164516,1.0127416429052574,0.93304913488,1.04606878494,0.0002822158355559354,0.016776502108409048,Null
0.7497046111932945,0.66162109375,0.81274414062,0.00047478652948390257,0.02175781037229568,-0.38295343248626823,-0.59582519531,0.66369628906,0.1597303900088909,0.39907982126467306,-0.34399947897320693,-0.67114257812,-0.05603027343,0.010093224691077703,0.10031848473748493,0.9981875937517202,0.94855733676,1.14585490712,0.0004707816882671711,0.021665852092681716,Null
0.5969831678564723,-0.44799804687,0.80334472656,0.041829612424657305,0.2042386326256887,-0.022596571179666645,-0.55456542968,1.021484375,0.29972330771209793,0.5467090112376539,-0.5379072401220555,-0.88317871093,-0.01501464843,0.02422860022088617,0.15543905092867086,1.0031058896894445,0.64362445968,1.15764089643,0.004801077686760748,0.06919350663070256,Null
-0.08189711058714688,-0.60925292968,0.7880859375,0.17258506749367647,0.4148464041719884,0.31840489274073447,-0.31066894531,0.75646972656,0.050339728203583865,0.22404804302099995,-0.8710720256180792,-1.55554199218,-0.50134277343,0.033284310400791536,0.18218201592111963,1.0553551705577118,0.90108171366,1.56428305455,0.008590368378407924,0.09255323765848382,Null
0.22740639224319326,-0.61938476562,0.81896972656,0.22861838006912302,0.4774704100254609,0.4093034674778992,-0.33178710937,1.00744628906,0.14394940807981355,0.37887489815153746,-0.4025837874187115,-1.04187011718,0.69873046875,0.274162482325128,0.5228714184096923,1.0105850354814845,0.81676480756,1.20421044196,0.004593288582147788,0.06767881668274014,Null
0.05314593608298884,-0.48400878906,0.8642578125,0.1684395674866635,0.40984029316491716,0.5575800208386591,-0.64831542968,1.11315917968,0.20912803762729518,0.4566660498631467,0.20681438765639665,-0.66442871093,0.67333984375,0.2676770005923455,0.5166520100351614,0.9962718252409218,0.68058732638,1.25850505007,0.007397521274006308,0.08588863607463143,Null
-0.15265597490842253,-0.39599609375,-0.02575683593,0.009239939291528158,0.09598912070398319,0.9649114904232112,0.73718261718,1.03686523437,0.005297854950155549,0.07268377683558201,-0.1664017798189014,-0.63708496093,0.23291015625,0.054804474641276135,0.23377359953482713,1.0251596537601126,0.96220216261,1.08612314874,0.00024289040084758928,0.015562975375401149,Null
-0.1591786645602514,-0.24157714843,-0.11059570312,0.000726711390005596,0.02691990843078374,0.9799371644741061,0.93627929687,1.01953125,0.0003300157225524919,0.018140945149722778,-0.2334352631770391,-0.34436035156,-0.08825683593,0.005593524819767874,0.07468534293128028,1.0230434497673462,0.99388926537,1.04177337179,8.783227263483776e-05,0.009358788975672282,Null
-0.15371260683347576,-0.19702148437,-0.07067871093,0.0008381707742654278,0.028909908739765934,1.0068484575282906,0.97485351562,1.04870605468,0.00015495386752433624,0.012430301827159927,0.0024062806038746445,-0.14270019531,0.1884765625,0.010814884301666442,0.10384638975659846,1.0242040593638464,0.99637459928,1.06401855277,0.00015803502854509703,0.012553277910511253,Null
0.1285802783065928,-0.09338378906,0.65063476562,0.06475418449047361,0.25411574138215215,0.7835027213864542,0.59094238281,1.02941894531,0.0161444450209259,0.12688468609952228,0.4049951442365928,-0.49670410156,0.82775878906,0.14456130658216965,0.37968521139166334,1.0093479078123269,0.93894777565,1.08564234914,0.0004840043065386708,0.021969605694859298,Null
-0.12446047057064138,-0.90600585937,0.63403320312,0.1670916545579835,0.40817215348068075,0.4092312915655684,-0.697265625,1.13684082031,0.22671831271336945,0.47545486260940495,-0.6543274815472011,-1.14953613281,0.04284667968,0.060033903677518756,0.24466074004481236,1.0224786046096794,0.48696066231,1.46300336558,0.01821643507168034,0.13477138394900331,Null
0.6296420162629315,0.27954101562,0.74438476562,0.011357752492711693,0.10642666659533538,-0.7075111702658903,-0.78991699218,-0.48754882812,0.003335350624439335,0.05767332726246217,-0.15402932362816438,-0.626953125,0.06079101562,0.0437713538290632,0.20892925192926742,0.9893528192235342,0.94144199034,1.04241795229,0.00021935063067273305,0.014790188303086373,Null
0.6800447614969501,0.60021972656,0.82409667968,0.0026351230620325875,0.05125812548679076,-0.7092950994280939,-0.79809570312,-0.52673339843,0.002761935510426881,0.05247700441908813,-0.07975845113011729,-0.2041015625,0.04675292968,0.006059038920902357,0.07772561018299609,0.9915827460040176,0.95897947259,1.02722095437,0.0001083035731552395,0.010391629678200648,Null
0.7140925995250136,0.63391113281,0.84814453125,0.002372513490720592,0.04864168432280808,-0.6241187526717534,-0.74963378906,-0.01879882812,0.03762939115742142,0.1937170538054725,-0.0867769424220274,-0.60180664062,0.10888671875,0.038536015506373304,0.19603682659566368,0.9925582876909315,0.96373806661,1.02424825339,0.00013385590529225687,0.011553751632461504,Null
0.7914665153395195,0.61962890625,1.01623535156,0.007119654296560214,0.08425125490654309,-0.1536645287848048,-0.56518554687,0.23254394531,0.0504214454471473,0.2242097894719447,-0.5496019701299099,-0.79370117187,-0.3271484375,0.01222517963691717,0.11040139213685332,1.0105677500867867,0.97679780795,1.08181472705,0.00040516812339265554,0.020098542292947177,Null
-0.0026127038253405854,-0.33081054687,0.88244628906,0.06617878639150897,0.25690165963431855,0.8726144733447411,0.14892578125,1.02661132812,0.0287411057838566,0.16930089233113502,-0.425126660418474,-0.75939941406,-0.21862792968,0.00882175120183115,0.0937961285587862,1.0210995224357493,0.78437883406,1.24530914023,0.003018481337580927,0.05486580531434746,Null
-0.2552778101648656,-1.06811523437,0.36547851562,0.12520115659078052,0.3533092438572576,0.8023969507891044,-0.01501464843,1.13452148437,0.09162605729478125,0.30224583814502864,-0.27311720207238804,-0.474609375,0.66357421875,0.056208862185212725,0.23672996121509135,1.0256678009425673,0.58761698035,1.29420640146,0.003838696981900134,0.06186467639080672,Null
-0.04071144979538257,-1.10107421875,0.68212890625,0.26578682323812136,0.514840392482958,0.5975785385682788,-0.13134765625,1.51147460937,0.13317169451788424,0.36442809637710094,-0.4816971242076229,-1.80444335937,0.26318359375,0.1774695061462601,0.4206953966769838,1.041187104500929,0.2941013315,2.59864113859,0.08179563407901018,0.2856083835254079,Null
0.492913607889339,0.08178710937,0.57214355468,0.012178420207500616,0.11019720843621328,0.0061841942821551305,-0.208984375,1.07446289062,0.16348483410983564,0.40375122303687566,-0.7125051213381897,-0.8779296875,0.60192871093,0.11806366303992138,0.343109894407581,1.0211264179554598,0.94880818879,1.11545782973,0.0008389147517825238,0.02892238021339938,Null
-0.5373351027813128,-0.7333984375,0.09313964843,0.04381828172192168,0.20903560530910578,0.3356002722334916,0.14733886718,1.01318359375,0.05117998465505733,0.2259137530210712,-0.649924507351257,-0.96472167968,0.62365722656,0.14813983428536134,0.3843514483718903,1.0305968596104749,0.68564773426,1.40845594636,0.004103429668114102,0.0639684889150048,Null
-1.004565498070532,-1.30053710937,-0.65234375,0.010869723429343975,0.10411184382566657,0.17569166338109246,-0.07849121093,0.48498535156,0.01198927479328885,0.10934208426084867,-0.016993076526722693,-0.80017089843,0.53698730468,0.041118172724959115,0.2024919647061272,1.046745665387339,0.8075948433,1.35460809763,0.008453319088371792,0.09181307272615577,Null
-0.16448666004702253,-1.75231933593,0.99279785156,0.8065940750575055,0.8968435545642973,0.33568478701870785,-0.07861328125,0.94055175781,0.0584845064069919,0.2414958055238723,-0.3971077565370505,-1.11389160156,0.70959472656,0.19128391843007003,0.4367454682677972,1.1273590741054493,0.38913360083,2.03843943624,0.08011646164800769,0.2826506950414653,Null
0.0905662834972067,-0.92028808593,1.01220703125,0.27682265073959245,0.5254040379668091,0.7106459633558938,0.02307128906,1.10522460937,0.06596909722326764,0.2564855278606838,-0.13224715760078207,-0.77587890625,0.92602539062,0.16317297627898383,0.4033821833478151,1.0087344021347486,0.6355579537,1.28833427088,0.017765191983598123,0.13309984426100263,Null
-0.712550423359858,-1.44653320312,0.89270019531,0.6091535746419433,0.7793734821726893,0.3421890952337216,-0.01159667968,0.95373535156,0.06829515596307409,0.26096194288369623,-0.06438827514573862,-0.54931640625,0.26123046875,0.023749842927179417,0.15389077874421173,1.1379546941810512,0.38379958431,1.57544914324,0.033327659675646756,0.1822991465265142,Null
-0.9399461534257777,-2.2900390625,0.31164550781,0.23505532207821686,0.4841512063684233,0.19864400227544443,-0.22448730468,0.8623046875,0.03150370527656017,0.17724614236740185,-0.10291985405774999,-0.90502929687,0.52917480468,0.09316680008955011,0.30480814198875117,1.1019897905235834,0.50113056931,2.31160756237,0.07811277789369095,0.2790981869434077,Null
-1.008508998322057,-1.42639160156,-0.64575195312,0.021964030001472887,0.1479907957612233,0.21431640624651427,-0.05432128906,0.72497558593,0.021937791467556512,0.14790237342031903,0.000371093750799995,-0.26159667968,0.287109375,0.01944846501567248,0.1392583856461454,1.054461820113143,0.80107673217,1.47531219306,0.01434259382291799,0.11958935982529524,Null
-0.8041496487578177,-1.75073242187,0.10437011718,0.20701053653079393,0.4543552401149737,0.3035993207195857,-0.19946289062,1.0166015625,0.07770640278532896,0.27837338991738914,-0.2762690591533978,-1.04504394531,0.2109375,0.1658001302287541,0.4066228213212859,1.1132863636551105,0.70333915204,2.00491987399,0.025089124910199472,0.15817654040757567,Null
-0.446298969654,-1.99328613281,0.84692382812,0.5768353893851745,0.7583952813337352,0.454382147301826,0.0439453125,1.11157226562,0.0690269628866285,0.2623487845089699,0.1543665789163768,-1.08776855468,0.70971679687,0.08292493616072329,0.28754925495804035,1.054616311841884,0.51370008557,2.34312510425,0.044061958915689245,0.20960496915088922,Null
-0.6121286245451099,-0.76806640625,-0.53515625,0.0025767549252077152,0.05069197104236963,0.670734112075357,0.48120117187,0.84851074218,0.008440272882987807,0.09174467461451076,0.3973827990819505,0.04345703125,0.67578125,0.03864690118957509,0.19631792680269733,1.0153659881523351,0.86904640115,1.10603861055,0.0011127611847812006,0.03331222220986277,Null
-0.5825375764230435,-0.67468261718,-0.48828125,0.0020057171522710276,0.04472028040348019,0.6971064028493044,0.40441894531,0.92919921875,0.014937184016527218,0.12204051716938956,0.3905506963275653,0.11328125,0.79333496093,0.029765422528429585,0.1722763650109633,1.0111531260364057,0.84243177823,1.12326457691,0.0019758325507912102,0.04438587049860971,lift down
-0.18535663091634497,-1.544921875,0.939453125,0.7889423442112179,0.8869247404664817,0.4304045738495907,0.0498046875,1.205078125,0.06428683361687343,0.2531775274765975,0.009455095258011697,-0.22436523437,0.24987792968,0.01410878713280418,0.11860663290582854,1.032672648308538,0.44512406762,1.56178671768,0.01835495570719052,0.13528224660338245,Null
-1.039044402362471,-1.48693847656,-0.53796386718,0.03255600499330105,0.18017037893033894,0.1617357120924128,-0.3076171875,0.75671386718,0.02672353142343917,0.1632355559890942,0.008512630019069767,-0.59228515625,0.44787597656,0.025453222688998915,0.15930860228681126,1.0775406712868023,0.71596971022,1.55130769936,0.02873540059504102,0.16926862513111038,stairs up
-1.0127195935121525,-1.611328125,-0.64038085937,0.03576865175401024,0.1888681801883275,0.1466570030423706,-0.36547851562,0.74621582031,0.04970007202602874,0.22263119612140675,0.02568232980520436,-0.6044921875,0.29284667968,0.030745546725714102,0.17510502960805097,1.0634481889707357,0.70202735419,1.63500437024,0.03249506720446976,0.18001812349599386,stairs up
-1.10179589011054,-1.34997558593,-0.56140136718,0.018944632729782605,0.13744385308349236,0.17173385619732956,-0.15197753906,0.50415039062,0.019104412155683932,0.13802223827164367,-0.060954007235,-0.76062011718,0.20666503906,0.036096827020129764,0.18972158342185347,1.1419834069979262,0.75362478941,1.54908149542,0.017481379670502215,0.13202922653744,stairs up
-0.9699140037957102,-1.7392578125,-0.40979003906,0.06444350028026946,0.25351020717693334,0.21910553812057376,-0.22839355468,0.86572265625,0.053417005652441264,0.2308052372663275,-0.035716572746448086,-0.82446289062,0.32067871093,0.0657077475149328,0.2559848006232751,1.0577027808379782,0.6290738611,1.76810374585,0.05449651098488719,0.23312574592672133,stairs up
-0.4270116253603005,-0.94177246093,0.50793457031,0.11851425312396442,0.34378837049731553,0.36449294793691256,-0.55419921875,1.37487792968,0.31911117332078653,0.5641270112918636,0.4589016606870218,-0.27758789062,1.013671875,0.13124145489487557,0.3617773786250051,1.0388510898393442,0.65840568029,1.44035779353,0.013923828101808212,0.11783796016406771,Null
-0.8478073341216811,-1.49047851562,-0.43115234375,0.06157937526823786,0.24779201828434946,-0.04715275418901448,-0.49328613281,0.4345703125,0.08672212119710264,0.2940590973424639,0.3309085569495652,-0.17541503906,0.88391113281,0.12638162460093236,0.35498633924612427,1.0431461046999708,0.61929987113,1.50299629822,0.016281466093859245,0.12741378825902133,Null
-1.1015051416565662,-1.41760253906,-0.53894042968,0.027178035343481163,0.16460915463983697,0.2473982845409036,-0.07824707031,0.6787109375,0.03322870680111473,0.18201269278499868,0.0481453401488253,-0.20080566406,0.47094726562,0.01551377116415607,0.12436656680055942,1.1484382646100302,0.55540882812,1.51812330294,0.03372041903765706,0.18335444229806705,stairs down
-0.6543861947382655,-1.35717773437,1.12060546875,0.5109907968667197,0.7138669329498473,0.4035667688185366,0.03271484375,1.18334960937,0.06741532978441225,0.2592925614315281,0.08149466992607045,-0.31774902343,0.46264648437,0.023032397202322554,0.1515584995363838,1.0784427030939026,0.59320767631,1.40526602546,0.034592501901144684,0.18573840551573173,stairs down
-1.1491420304348072,-1.87329101562,-0.67333984375,0.06163026443051646,0.24788583119568824,0.2153016042252522,-0.0927734375,0.77429199218,0.03140990006126591,0.17696523842282003,0.0186267705625816,-0.30590820312,0.33471679687,0.017783019047438627,0.13315498655673383,1.1890974216679526,0.69534338121,1.90836209793,0.06396059065872464,0.252528803547559,stairs down
-0.06969907963203908,-1.76037597656,0.94677734375,0.62506638382386,0.7895064207074687,-0.04224246573846368,-1.02416992187,1.22985839843,0.2856486093686626,0.5337140697275787,-0.39672169605273744,-1.03588867187,0.58605957031,0.16837484733193317,0.4097615483782367,1.0808494364453352,0.3572277313,1.98192181598,0.0720719287983934,0.26808694589913623,stairs down
-0.8795705875843943,-1.76147460937,-0.31787109375,0.08846698825813909,0.29701478999254116,0.4457756794640282,-0.13989257812,1.38830566406,0.09732285924822931,0.31152641998543,0.07075573558591548,-0.46667480468,0.71533203125,0.05898446394512172,0.2425248657881455,1.0837075816910422,0.60918002799,1.81943231185,0.047578102259361606,0.2178166188244042,stairs down
-0.5314510569845378,-1.72985839843,1.060546875,0.7373073208792635,0.8574625556058738,0.35321232985215684,-0.35766601562,1.45556640625,0.21088947946451717,0.45858341949015474,-0.05340969395613447,-0.69519042968,0.39672851562,0.07866183663515736,0.28007408904800046,1.1587529343930252,0.49044181416,2.00211655112,0.09158222346351244,0.30220140738368356,stairs down
-1.0602374250444537,-1.63403320312,0.10961914062,0.14600227257450119,0.3815669045178212,0.34833156895238093,-0.44091796875,1.35034179687,0.10336026075769135,0.32104631475498024,0.005027108499803918,-0.35009765625,0.53137207031,0.030102796230722813,0.17325840433483614,1.2123557655737536,0.49776826433,1.68651019313,0.05449220162760384,0.23310847776809504,stairs down
-0.8170827513931564,-1.59130859375,-0.05688476562,0.13087718421978256,0.36126390006878856,0.5582067393684916,0.01159667968,1.32922363281,0.09224389191291403,0.30329231347062524,0.009908495002737428,-0.54895019531,0.44934082031,0.04334276975452041,0.20789829380074762,1.0920330725751397,0.48165229851,1.64686931576,0.05264752677497225,0.2291298030469103,stairs down
-1.1792317936895225,-1.57592773437,-0.3701171875,0.028748543650734613,0.16931564994009574,0.2451377611448315,-0.09436035156,0.74743652343,0.03643584880528897,0.19061348565982017,0.07417143060634832,-0.33264160156,0.35754394531,0.012641781001708754,0.11227764862570572,1.2275366848876965,0.49411906319,1.60455361618,0.02701868936570165,0.16414260315607943,stairs down
-0.7552254300118766,-1.64306640625,-0.0185546875,0.20634122643498284,0.45361133121463515,0.5311091233333334,-0.10168457031,1.39440917968,0.12853705634050042,0.3580181679239704,0.14468819754291315,-0.3017578125,0.79333496093,0.05183975979640812,0.22736435601301647,1.0943691066705041,0.58066744683,1.67119060305,0.06154046490901845,0.2477258215333463,stairs down
-1.1633293942535574,-1.68933105468,-0.48315429687,0.0598508739901103,0.24430150323552083,0.2506459126587955,-0.19384765625,0.94860839843,0.04931536265343648,0.22175938397889403,0.08473389355518207,-0.39282226562,0.51245117187,0.02743526384810812,0.16540379188380777,1.2254332652833053,0.48968312247,1.71073195995,0.06094596410702086,0.24652636191840963,stairs down
-1.052031263789322,-1.60534667968,0.1669921875,0.10281514068566631,0.32019478826979964,0.31004204184011297,-0.04833984375,1.03076171875,0.06762633375523702,0.2596830739846564,0.02795341189909604,-0.38122558593,0.2900390625,0.021059622759850117,0.144914223939807,1.15877231788274,0.50587475138,1.61965593206,0.052031070318214606,0.227780793513384,stairs down
-0.8290377995115922,-2.84899902343,0.1728515625,0.5658479961237998,0.7511773526465242,0.6711289389809777,-0.47436523437,1.63818359375,0.20324234641503805,0.4501939919230369,-0.0628498439673464,-0.76977539062,0.99475097656,0.19821357115555255,0.4445895882298422,1.3365513805780724,0.25792200479,2.98004643609,0.32255138654275534,0.5671423146055138,stairs down
-1.0495234402710227,-1.62329101562,-0.80187988281,0.02329929213219014,0.15242408261610124,0.2963166670327841,-0.06323242187,1.1865234375,0.0321059834107049,0.1789267258700076,0.058726224031107964,-0.83825683593,0.37768554687,0.030787105719081612,0.17521313406979938,1.1146791972266477,0.8043573128,2.17843662109,0.03629269629080788,0.19023562242645756,Null
-0.8891415066149446,-1.30725097656,-0.37536621093,0.03990340044387873,0.19948072003295947,0.32581956651099997,0.0693359375,0.875,0.0463676908526343,0.21503230387868932,0.07597825791977776,-0.54528808593,0.4833984375,0.06098873175702934,0.24661573066870615,1.0198634944883334,0.48871112973,1.34286977526,0.009145079902894282,0.09549699944586751,Null
-0.34119904346586893,-0.66003417968,-0.08166503906,0.014839043119352337,0.12164196086560272,0.8554586644147862,0.66857910156,0.98474121093,0.004143551443419692,0.06427866250593893,-0.45387307191145293,-0.55249023437,-0.34533691406,0.002598086903346498,0.05089877156039138,1.0362991750608546,0.86540981606,1.20729971187,0.0018355264237543327,0.04278197054535516,Null
-0.5871406681595028,-1.43237304687,-0.12060546875,0.18407303212651857,0.42844432904111945,0.638249012643674,-0.13061523437,0.99243164062,0.09073001220704617,0.30079790028224773,-0.19689739079679558,-0.58435058593,0.4501953125,0.1072411041777541,0.32702424685887843,1.0734581707441713,0.65763765036,1.47244045588,0.019595012316120108,0.13978870643883765,Null
-1.0156379787362355,-1.470703125,-0.90026855468,0.006168281184679793,0.07842548207532297,0.19075099900830458,0.06665039062,0.35314941406,0.0021358459122550123,0.04614876405713815,0.010374222678965518,-0.47058105468,0.21484375,0.00846370706458178,0.09186613123055615,1.0380836967856033,0.93926535333,1.54815406129,0.007134223423966053,0.08434288815272549,Null
0.21409036313939062,-1.5126953125,0.91333007812,0.7430470501059513,0.8608070329801537,0.36408975447648195,0.01477050781,0.9326171875,0.03554833931915335,0.18828135187820294,-0.3286751617663158,-0.76879882812,0.34802246093,0.08283817702667294,0.28741730705065416,1.0577392842224378,0.58845868974,1.67995368267,0.026732376268733322,0.1632737742717483,Null
-0.59051746357,-2.07116699218,0.76379394531,0.4563633913969588,0.6745554701663004,0.3834858555920527,-0.6923828125,1.1728515625,0.1551303257458363,0.39328793282320895,-0.07581998316058654,-1.205078125,1.03381347656,0.21551736107843772,0.46355727300604405,1.1220663199941057,0.65328177664,2.29265469182,0.06723437796976901,0.2589154489518307,Null
-0.6700369027904396,-0.82946777343,-0.44592285156,0.0026919129871855966,0.05181233078945769,0.7294952057184065,0.54321289062,0.90808105468,0.0021676835268790973,0.04649439054719079,0.25654820033112635,0.15771484375,0.43774414062,0.003595420872975689,0.059879406669612854,1.026197043122253,0.8538416975,1.20194672814,0.002287387398528404,0.04776089788952638,Null
-0.5197304745422848,-0.72521972656,0.87023925781,0.16544223356495946,0.40614197893823367,0.7338063044749554,0.1923828125,1.08654785156,0.022575749339614565,0.15002919377738147,0.14376731442142435,-0.46423339843,0.26904296875,0.04580027798617952,0.21369223691277212,1.029006948170178,0.82931407995,1.24161851195,0.003545949136447187,0.05945945704582856,lift up
