avg_accX,min_accX,max_accX,var_accX,std_accX,avg_accY,min_accY,max_accY,var_accY,std_accY,avg_accZ,min_accZ,max_accZ,var_accZ,std_accZ,avg_magnitude,min_magnitude,max_magnitude,var_magnitude,std_magnitude,Label
-0.4808930602217721,-1.01647949218,-0.22387695312,0.059149322341868135,0.24289828575355427,0.2668240704087342,-0.08605957031,0.78308105468,0.07876593031735651,0.2802972045861884,0.6610391737505064,-0.14575195312,1.01440429687,0.14392359685468395,0.3788921130326455,1.009498430820228,0.88417088812,1.15708726776,0.0024926032053537907,0.0498627397712173,Null
-0.7530512797268798,-1.17651367187,-0.48828125,0.012812209771896467,0.11311712359089957,0.5483658195435509,0.24755859375,0.87878417968,0.015601453288451432,0.1248242198291661,0.4164218354749869,0.04663085937,0.76635742187,0.017395028973672358,0.1318040972753242,1.039408523402337,0.86149230568,1.27276818993,0.006585855769817309,0.08110029621943567,Null
-0.9103671756490987,-1.23474121093,-0.64196777343,0.012629525484456136,0.11228373535550146,0.4238310868409359,-0.47814941406,0.88635253906,0.03395995315711477,0.18412250564715135,0.09952178901892547,-0.48608398437,0.36486816406,0.038627692263309914,0.1963689041646332,1.0472621388576604,0.90124543959,1.43499601006,0.0066287528182760016,0.08134657037535048,Null
-0.444738464353375,-0.89868164062,0.35327148437,0.14220000969822763,0.37662250287785787,0.776262207027825,0.49768066406,1.0634765625,0.017278641543095514,0.13128383350297848,-0.050835266112349994,-0.40893554687,0.80603027343,0.12043580131354714,0.34660454672474117,1.0377267957108252,0.82739712558,1.27371402967,0.005310580355043087,0.07278257967505328,Null
0.42235656737932503,0.19348144531,0.67126464843,0.012833174412938768,0.11314190857903371,0.7613796997033749,0.09826660156,1.00439453125,0.059846498508796316,0.24432945434909054,0.120346984863525,-0.62512207031,0.97839355468,0.2089219053515074,0.45650805095652874,1.0237192019125,0.77734890653,1.3999670657,0.00547777830398388,0.0739194416796009,Null
0.3158847045876,-0.21533203125,0.57067871093,0.05269276189309601,0.22926192441913085,0.81018371581655,0.5107421875,1.28869628906,0.026545687865674194,0.1627246866520566,0.20138519286959997,-0.68334960937,0.72985839843,0.14971751009896553,0.3864495003538213,1.0087854840568,0.75822341239,1.29798146811,0.007490940339525915,0.08644196312368838,lift down
0.11565612792555,0.07116699218,0.37744140625,0.003907422567905071,0.062431194217997366,1.0247552490193002,0.91711425781,1.07458496093,0.0006104174110754267,0.02467572425578909,-0.044978637692575,-0.12097167968,0.11938476562,0.0028293703994484534,0.053125295043414414,1.035579796005225,0.9956763571,1.08308350528,0.0004271344621055174,0.02064138139636622,lift down
0.11203826904262502,-1.44006347656,0.931640625,0.3075344496649788,0.553864255518278,0.31845458984292496,-0.56237792968,1.11108398437,0.29592221902622473,0.5433069238272775,-0.15955810546814994,-1.21435546875,0.9580078125,0.32224493740442345,0.5669561932468085,1.02138052594915,0.79496840919,1.92505468393,0.01964296925913257,0.1399780762690527,Null
-0.78011932372665,-1.20080566406,-0.47924804687,0.027890768170653946,0.16679640658667474,0.094358215331175,-0.25048828125,0.73071289062,0.06583389986537631,0.256260248801317,0.47787780761439996,-0.48388671875,0.869140625,0.09552560405815716,0.3086855844512532,1.015272139291525,0.87564116215,1.33741866648,0.00402126401539071,0.06333412078297317,Null
-0.320866088864625,-0.90808105468,0.24865722656,0.07306996150288068,0.26997645563849354,0.24605590820290005,-0.33776855468,1.0537109375,0.23368164327340296,0.482801656133468,0.762453002925925,0.29968261718,1.09399414062,0.035562104222324135,0.1883433008146781,1.036188605766025,0.87136405548,1.5221505133,0.012407640450453587,0.11125026449104493,Null
-0.913155517574475,-1.25549316406,-0.69775390625,0.01862799038423317,0.13631368386289244,0.462663574214725,0.330078125,0.74084472656,0.006897967342747377,0.08295012009871058,0.16472869872745,-0.08483886718,0.45727539062,0.013697707461401512,0.1168908174013169,1.0466423408378,0.83464249455,1.36511032348,0.019526884493421805,0.1395638466157631,stairs up
-0.17394378662107507,-1.13293457031,0.80895996093,0.36039168582939063,0.5995754386353873,0.6459341430623499,0.23315429687,1.193359375,0.06603749480988298,0.2566561923524509,0.37946624755564995,-0.22937011718,1.01574707031,0.07645480543569427,0.27615877393648935,1.0400766424593249,0.73744343847,1.32614584041,0.011760574644790786,0.10831054061437792,Null
-0.3174041748043,-1.10021972656,0.77746582031,0.44035703114250846,0.6627640142348196,0.5508966064415499,0.02685546875,1.00048828125,0.04898238035636519,0.22104281125038713,0.31301574706635,-0.24853515625,0.94396972656,0.04020680198650855,0.2002655361801982,1.0065247532191,0.49769301465,1.50987062668,0.017385070869495693,0.131687540004064,Null
-0.932617187496225,-1.11047363281,-0.82507324218,0.002696764200278008,0.051865424800895184,0.40505218505475,0.30749511718,0.66711425781,0.005534622414457141,0.07430199094520279,0.23217102050452498,-0.11450195312,0.64892578125,0.017329085694342435,0.13147533221143265,1.0522641099542,0.91630086138,1.39911239471,0.0059972810283378825,0.07734525082878094,Null
-0.6910812377898501,-1.65100097656,0.78039550781,0.3081994823565968,0.5544627883372385,0.6587506103485501,-0.61181640625,1.87463378906,0.2585770079921206,0.5078686498221172,0.09645599365115,-0.71716308593,0.52038574218,0.0614703917464887,0.24762212293557795,1.179942949553225,0.14578088316,2.08351181735,0.1556494268275769,0.39403084049412673,stairs down
-0.52976257323965,-1.14794921875,0.09460449218,0.1667009066327708,0.40777954137767736,0.5684429931609,0.34228515625,1.01599121093,0.026665970731958453,0.16309293609819084,0.3355914306624,-0.29956054687,1.09399414062,0.16884170689464292,0.41038957421870054,1.03089061413535,0.71515253829,1.40907897377,0.015002539648179098,0.12233165289105943,stairs down
-0.6143969726542501,-1.60705566406,0.91918945312,0.40620226982814833,0.6365428219323331,0.45802062987949993,-0.21203613281,1.17346191406,0.08380246018925262,0.28912446115605556,0.16334106445169996,-0.58959960937,1.31567382812,0.12687526492805232,0.3557500200502204,1.0679550089212,0.45901390143,1.82394300496,0.08897918257366179,0.29792068511136927,stairs down
-0.6440570068337,-1.88366699218,0.46643066406,0.27589048974254676,0.5245958096651082,0.5933563232387999,-0.65002441406,1.75061035156,0.19246935074027458,0.43816455511990454,0.31340454101320003,-0.23120117187,1.39904785156,0.12939091989347346,0.35925957550737564,1.14701046895905,0.32086736025,2.32989982824,0.1460921586780561,0.38174196557538836,stairs down
-0.9543988037074,-1.17102050781,-0.0732421875,0.03968266893706227,0.1989559304587818,0.422008056637,0.16076660156,0.8916015625,0.02525193577567012,0.15870981676075033,0.16888305663719996,-0.14270019531,0.79235839843,0.014718310126158157,0.12116729901604129,1.08843791285855,0.70893436181,1.32770307795,0.012276747477505475,0.11066189772822312,stairs down
-0.66005920409795,-1.71533203125,0.06860351562,0.15406001051832469,0.392013852423647,0.75391540526995,-0.04077148437,1.57568359375,0.10573348977150647,0.3247601515689351,0.10201110839695002,-0.40844726562,0.59887695312,0.04830910671450108,0.219518413687132,1.11241153093175,0.44900396436,1.80241621026,0.08455718675896116,0.2904234732112123,stairs down
-0.63143493652055,-1.53674316406,0.74963378906,0.271745303126145,0.5206399330327338,0.6038452148404001,-0.27185058593,1.3359375,0.10338355709111524,0.3211309673612737,0.1608776855448,-1.01293945312,1.20275878906,0.10950177507296528,0.33049662726763623,1.0869418523985999,0.13679387889,1.69217703966,0.09142578491970904,0.30198877538314195,stairs down
-0.7370355224579,-1.39501953125,0.65246582031,0.1799126704069139,0.4236306041009037,0.46436218261390005,-0.19116210937,1.42443847656,0.07174396054716224,0.26751560822836923,0.25392150878720005,-0.24230957031,1.19445800781,0.10077699711601205,0.3170568633908151,1.0621497786265501,0.44424489524,1.57298055944,0.046837215434347136,0.21614838050691304,stairs down
-0.8938238525352,-1.75952148437,-0.07641601562,0.09998094083962127,0.31580213502685855,0.50140930175415,-0.17724609375,1.30578613281,0.11500232064252212,0.3386957555696791,0.17789123534890003,-0.34497070312,0.54907226562,0.025397122858666937,0.1591654172599069,1.10819820078975,0.36558285576,1.87286677603,0.0938885614109154,0.30602914895053396,stairs down
-1.0360797119099998,-1.65161132812,-0.43115234375,0.07687568449077692,0.27691784933360647,0.44315246581705,-0.28479003906,1.11291503906,0.0803534928112995,0.28311236122654776,0.11035949706885,-0.10925292968,0.38488769531,0.011162337365736894,0.10551981578036683,1.1755834180220501,0.49800859191,1.73531154743,0.06816908184285943,0.2607655252103933,stairs down
-1.00280303954695,-1.36462402343,-0.74230957031,0.012555334070380817,0.11191043622113563,0.358179321285625,0.02233886718,0.71362304687,0.020775875769964734,0.14395810529643624,0.1427511596642,-0.02941894531,0.32067871093,0.005739490089359636,0.07566466390684781,1.086191780201325,0.79083537179,1.405516889,0.013026160495025247,0.11398945167772184,stairs down
-0.922861022945475,-1.24182128906,-0.55822753906,0.030823215453892442,0.17534582234903034,0.4535104370080749,-0.01831054687,0.953125,0.03828512804682526,0.19542112277517035,0.067917480466825,-0.19409179687,0.28649902343,0.011379818652870246,0.10654280410350607,1.052169497244025,0.62210066165,1.39541341623,0.03706152335582974,0.19227290383057144,stairs down
-0.89149871825785,-1.16906738281,-0.53295898437,0.020572940548673466,0.143253300825153,0.42040100097285005,0.10925292968,1.32788085937,0.03333484901494663,0.1823499709141991,0.210791931149575,-0.24536132812,0.77355957031,0.048182768711577124,0.2192311834338313,1.049319345002325,0.67055901571,1.72042086188,0.015853649117564268,0.12575378719851882,Null
0.04600097656152506,-1.56311035156,1.0107421875,0.43587932736278473,0.659385796817294,0.12429443359377508,-0.90881347656,1.22875976562,0.4523132981405182,0.6717012095382641,-0.14719696044824995,-0.80981445312,1.03466796875,0.18966960923282264,0.4349660161549872,1.031608656409925,0.51289315902,1.85516795882,0.050309073083618996,0.22401629494505518,Null
-0.35878356933375,-1.142578125,0.64038085937,0.1707311888962174,0.4126794893424882,0.65225830077825,-0.27551269531,1.07104492187,0.055642862666043,0.23559235027771572,-0.1129019165034,-0.8056640625,1.2119140625,0.2737163467477898,0.5225246940393538,1.0251306162666252,0.6081256898,1.32850370617,0.014898020266144424,0.12190477929711806,Null
-0.740231018062625,-0.75122070312,-0.73156738281,1.5568565067141665e-05,0.003940766886593752,0.6853677368128249,0.63000488281,0.72998046875,0.00021518537489902082,0.014650850195868268,-0.17036071777,-0.2119140625,-0.12487792968,0.0004232832957446696,0.020548116397989084,1.0233655198389,0.99495798321,1.0531323659,6.925701667271745e-05,0.008311670959021156,lift up
-0.32589416503765,-0.82214355468,0.21545410156,0.12917681556356447,0.3589622174054751,0.62695617675465,-0.37023925781,1.205078125,0.15597734996928464,0.39444569536802077,-0.2338504028298,-0.97436523437,0.68115234375,0.18283512992463474,0.4270574224853411,1.00614323600695,0.58115046376,1.36196397465,0.008483384598440807,0.09199008716674152,lift up
-0.7395800781207251,-1.04638671875,-0.06665039062,0.08313830514935798,0.28797649103092526,0.59256347655835,0.29821777343,1.06079101562,0.05025797173463074,0.2239024939684553,0.12166961669620001,-0.18200683593,0.32861328125,0.010003284294625917,0.09989132136421738,1.02529832613015,0.87415516462,1.19629321039,0.004729890769873193,0.0686881797906198,Null
-0.028899841309574983,-1.18395996093,0.80859375,0.24689228020104426,0.49626106990226587,0.7798507690393001,0.30151367187,1.45080566406,0.052791272093858005,0.22947612928935193,-0.099037170409625,-1.28051757812,0.84045410156,0.27110757967585897,0.5200286633702698,1.0783325247583249,0.68414151724,1.62055021618,0.025437497857109744,0.15929188338539715,Null
-0.6777194213834999,-1.01745605468,0.68334960937,0.1785981283502733,0.4220801263141841,0.5735507202109251,0.20910644531,1.25061035156,0.059317566685991016,0.24324734894603897,0.0810427856425,-0.22631835937,0.33190917968,0.013548791826244007,0.11625368745411217,1.015903955085175,0.47364420139,1.30360117246,0.01364105821424466,0.11664885583969115,Null
-0.2829852294904,-0.91296386718,0.96301269531,0.43778731998518405,0.6608273993148446,0.6708560180622501,-0.00952148437,1.52490234375,0.07443824375692625,0.2724924735612599,-0.041529846190675006,-0.388671875,0.28662109375,0.019816052380202818,0.14059342889784113,1.018656382226775,0.24341818158,1.60354433951,0.02496626790570755,0.15780954418520854,lift down
0.035257873534175,-0.2646484375,0.26306152343,0.014393646905292767,0.11982346509774092,0.8614785766566502,0.34777832031,1.10571289062,0.021241042076886225,0.14556077586937358,0.44970642089445,-0.07946777343,0.80358886718,0.05446848997717791,0.23309294015957446,1.0161999914448,0.7040961764,1.12017913221,0.0028469364192302673,0.05328995288215398,Null
-0.2141128540047,-0.99743652343,0.1455078125,0.17434394549540966,0.4170228838225441,0.66966522216405,0.45092773437,0.86926269531,0.011385357499244792,0.10656872949180111,0.562713928218675,0.05053710937,0.84838867187,0.0447950895903615,0.21138377862642535,1.019503122482625,0.94051428045,1.18065811799,0.0015080239509036317,0.038784712078683434,Null
-0.3380516603997007,-1.0791015625,0.49584960937,0.2847086642327809,0.5329152536415817,0.6911505416110473,0.28686523437,1.15930175781,0.06273013868918818,0.25014736542309995,0.26387370197316706,-0.34741210937,1.00366210937,0.09352616998499379,0.3054389262043912,1.0377654307533666,0.5022627918,1.60618695903,0.024050080660436565,0.1548873958621043,Null
-0.014931432587719255,-0.91955566406,0.23559570312,0.19382171454590733,0.4396998360674839,0.8866073876056392,0.40197753906,1.041015625,0.042230934201386454,0.20524398227726948,0.15281642827426065,0.02111816406,0.29052734375,0.005072669036495002,0.07113336474723507,1.0240535178464913,0.80510375913,1.16014198011,0.0014875827300617555,0.03852083141032659,Null
-0.8336306762657251,-1.00549316406,-0.68298339843,0.0031189392233967,0.05577761087872273,0.5327133178676,0.232421875,0.67065429687,0.00512765571799163,0.07151808567555937,0.1461968994105,0.03771972656,0.27282714843,0.00492086116183807,0.07006110910436314,1.005705675240425,0.90038306177,1.09241264189,0.0015157297342619953,0.03888367793723146,lift down
-0.8295675659139,-0.865234375,-0.80041503906,0.0002787383456270361,0.01667457644928256,0.5346902465787999,0.51184082031,0.58361816406,0.0001890707015143728,0.013733099604990378,0.29039184569969995,0.27490234375,0.3076171875,6.023576534301026e-05,0.007751462825148086,1.02886016187085,0.99964666084,1.06883361723,0.00037408416953011895,0.01931706393596847,lift down
-0.7859667968713001,-1.02819824218,-0.65161132812,0.005270628857434601,0.07250829114860599,0.6048876953087,0.31958007812,0.87768554687,0.011010462215948535,0.10479950410382992,0.23943115234030002,-0.029296875,0.44519042968,0.014441422107451248,0.12002215858824827,1.0325070369939,0.87414916428,1.24494563098,0.0055490043994612165,0.07439846697656184,Null
-0.6692480468713999,-0.87976074218,-0.42211914062,0.00785594192066205,0.0885228900672611,0.6286010742151,0.36669921875,1.04602050781,0.015899904837869468,0.12593710762033083,0.44873046874640005,0.220703125,0.71997070312,0.012431347280512794,0.11135649470197737,1.0356659699451,0.82077638134,1.3080540868,0.007903776522477531,0.08879198770818984,Null
-0.1532922363278,-1.00512695312,0.31774902343,0.1455258593664711,0.3810013710186027,0.47663696288769997,-0.39001464843,1.18151855468,0.12565465107631024,0.354034623234253,0.6810058593716,-0.55859375,1.29431152343,0.10779807621329121,0.3279155089695484,1.0322004074973001,0.69497167613,1.39165284179,0.02711152236722306,0.16444982080046486,stairs up
-0.8128967285119001,-1.29077148437,-0.35986328125,0.04839350387694972,0.21971008196543315,0.47746582030849993,0.12780761718,1.01635742187,0.04051530391051389,0.20103237463338489,0.15793334960789998,-0.53698730468,0.78625488281,0.12574652779583465,0.3541640318783728,1.0494925558965,0.80599906661,1.4633783411,0.026467885784983526,0.16248604884888138,stairs up
-0.9885571289023,-1.39318847656,-0.73059082031,0.01785155544297666,0.1334425964764221,0.3175512695275,-0.16564941406,0.60021972656,0.014461986636158452,0.12010758373045416,0.15758666991939999,-0.17639160156,0.47131347656,0.020148977412727056,0.14176954880789894,1.0659034053979,0.7912217425,1.47501983487,0.019146724785862452,0.13819861784365933,stairs up
-0.50664916992,-1.2587890625,0.9931640625,0.5497681838952961,0.7405361324307935,0.44922485351229996,0.01477050781,1.05859375,0.03826853308040531,0.19537876483309105,0.16171630859100003,-0.40563964843,0.64599609375,0.05421721384848997,0.23255466199125904,1.0462407704619,0.57341729889,1.50134047078,0.030753945943693253,0.17514868277790166,stairs up
-0.935194058307631,-1.23791503906,-0.69177246093,0.01806847464941853,0.13425131697359868,0.4236740911360349,0.26025390625,0.80871582031,0.010985066574311033,0.10467890137619765,0.1375123592352868,-0.01281738281,0.32470703125,0.006908781537671978,0.0830153760217461,1.043927128207232,0.8307046478,1.37964928359,0.0191338185458688,0.13815246392174724,stairs up
-0.7870555294450124,-1.16845703125,0.18334960937,0.0902479157054421,0.30003621523584034,0.6353527250709022,-0.41027832031,1.61340332031,0.08269091652532715,0.287199705989581,0.15876513793974936,-0.25170898437,1.17431640625,0.055069652687206296,0.23437498481608293,1.1053000669018045,0.20551402677,1.78542074251,0.054220549000421815,0.23256108423416447,stairs up
-0.9525073242154001,-1.22607421875,-0.67260742187,0.012854645670579002,0.11323651821034836,0.4891015624965,0.22692871093,0.71350097656,0.008523607636457568,0.09220790973320252,0.1900048828091,-0.05407714843,0.60900878906,0.014720929140884008,0.1211780789500799,1.0991417145542,0.86896689746,1.3468693025,0.010515110206007393,0.10241495218224912,stairs up
-0.9736985660806484,-1.45349121093,-0.71472167968,0.021044271277225003,0.14488544370546916,0.43609238621835406,0.1494140625,1.14782714843,0.02232783160563629,0.1492385715140941,0.10468792617758105,-0.12670898437,0.36389160156,0.011181532664141515,0.10561083534744223,1.085776988600399,0.79407897987,1.6456370634,0.024792778765216125,0.15726077510539382,stairs up
-0.9615426505677944,-1.10424804687,-0.8203125,0.0019925706303503235,0.044582246679547924,0.2640105512768421,0.03503417968,0.43225097656,0.006990990735344596,0.08350730180832176,0.23779847567729326,0.03393554687,0.45239257812,0.010603787431346655,0.10284557123667219,1.0333716591523057,0.8822413006,1.21999577894,0.0025014962545364247,0.04995224559881822,Null
-0.637717590327575,-1.45336914062,-0.03991699218,0.11644827145663875,0.340818354520406,0.7304199218714251,0.1826171875,1.44372558593,0.08450480257359289,0.29033349887182996,-0.031105346678624995,-0.47497558593,0.42639160156,0.04010237810447262,0.20000530532766234,1.064250609288425,0.56616213569,1.5381452664,0.04911076090971246,0.22133229318704983,stairs down
-0.9510886591433835,-1.49072265625,-0.1767578125,0.03341102370123635,0.18255762596980027,0.4425100837994236,0.18310546875,1.23791503906,0.026898585457367178,0.16380222970466823,0.1434607637222055,-0.21411132812,0.49682617187,0.01337144508065658,0.11548996790618102,1.0837034530875187,0.76320942489,1.51711084347,0.019853292282975915,0.1407250320952408,stairs down
-0.7926512454182294,-1.42028808593,-0.27490234375,0.08465042636393222,0.2905844593983351,0.5140953159058353,0.22131347656,1.01416015625,0.03561088144248163,0.18847301199867317,0.27083658042034914,0.0322265625,0.69775390625,0.02480940145520881,0.1573134851932589,1.033635399809676,0.51311472858,1.49749165656,0.04235486427624818,0.20554620204059937,stairs down
-0.03591339111402501,-1.32568359375,0.77600097656,0.46461109538729845,0.6807713034851206,0.504509277339825,0.07080078125,0.84777832031,0.030275455414400528,0.1737808009414864,0.505005493159775,0.01538085937,1.37622070312,0.09292084247537116,0.3044479271881856,1.0346210773253,0.73715843114,1.41092275356,0.02620369693619852,0.16167308895996893,stairs down
-0.5009921264631001,-1.39611816406,0.68737792968,0.4520277928582418,0.6714891833649267,0.546018676754725,0.19201660156,1.03076171875,0.05421409697731924,0.2325479772753914,0.137906494137525,-0.23620605468,0.39807128906,0.011911847493981392,0.10900489840023905,1.0333712607318,0.68708410471,1.46203491486,0.017192879949219544,0.13095761814169687,stairs down
-0.9205130004842,-1.60046386718,-0.24890136718,0.10069566834663637,0.3169289023988973,0.40775512695000005,-0.03735351562,1.04992675781,0.045540531119228456,0.21313535556408839,0.215912475582325,-0.08520507812,0.91137695312,0.03452870443871547,0.18558659078074224,1.0767563119504,0.5559619983,1.67164534479,0.07800810257219486,0.2789499638210487,stairs down
-0.05332519531187508,-1.61157226562,1.13659667968,0.9413287964365665,0.9690074687253319,0.353065795894675,-0.16027832031,1.24938964843,0.04034013535651201,0.20059732056565643,-0.01938293457055,-0.44226074218,0.94873046875,0.06300403754618329,0.2506920969083745,1.05713026393245,0.39059039916,1.68885387752,0.0525429802842891,0.22893584872967881,stairs down
0.27036621093635005,-1.21997070312,1.14880371093,0.5933900383486502,0.7693546407559901,0.20844299316284995,-0.91552734375,1.25,0.23215879048877947,0.48122592772268363,-0.2219812011705,-1.03356933593,0.28137207031,0.09860402941674934,0.3136200238237467,1.0304112150956,0.62209724835,1.50822424331,0.025982182458997652,0.16098828219112768,stairs down
-0.89811401366775,-1.50561523437,-0.27185058593,0.0662655689589569,0.25709901796109513,0.51081481933205,0.25573730468,1.29309082031,0.03777880224910307,0.19412458691129342,0.1512554931608,-0.1474609375,0.67138671875,0.020146605032767707,0.1417612024504088,1.0736272012636001,0.61268184307,1.5797705852,0.061778362823088996,0.24824165024433606,stairs down
-0.24316772460625,-0.84362792968,1.01318359375,0.14070115320974746,0.37463235355041496,0.016702270509999995,-0.42199707031,1.16796875,0.14110837222066241,0.3751740946415554,0.79045471191005,0.02160644531,1.13269042968,0.08062670450397784,0.2835932611024421,1.0200685282544,0.70072405229,1.27498834174,0.005231575676505022,0.07223916345939894,Null
-0.7470086669891001,-1.3447265625,0.908203125,0.29935244494895047,0.5464467621247088,0.42161865234030005,0.109375,1.08703613281,0.035811212875590234,0.18900181174634612,0.17638244628575003,-0.23791503906,0.80151367187,0.024915461542451684,0.15764889117464656,1.04550223628785,0.54200530165,1.48018911836,0.03308170366261554,0.18165626717363484,stairs up
-0.96339721679335,-1.24487304687,-0.80187988281,0.006536411126106381,0.08074695101544772,0.40852722167620004,0.255859375,0.54467773437,0.005304862173820342,0.0727433847053173,0.1251330566374,-0.0673828125,0.29150390625,0.007384184934861932,0.08582379898678907,1.05977872082885,0.88631328269,1.29800879083,0.00675030326513941,0.08205746466334773,stairs up
-0.8805957031209002,-1.25671386718,0.11596679687,0.08786774733846554,0.2960541808016218,0.4466485595666,0.13928222656,1.64562988281,0.055044133740516615,0.23432141047323293,0.11153869628694998,-0.48278808593,0.47119140625,0.02795730362155831,0.16699524053847886,1.0549985699837,0.33347681305,1.70627854117,0.04491693028561444,0.21167106075205558,stairs up
-0.8620379638629501,-1.30358886718,-0.18249511718,0.05912686710022015,0.24285602716932844,0.5041046142544,0.24609375,1.36267089843,0.05561140193634153,0.2355257383631366,0.12648071288710003,-0.08666992187,0.67028808593,0.01360225592470859,0.11648283257586424,1.05298933693955,0.70313654996,1.62290431565,0.03254277085501482,0.18017051348063945,stairs up
-0.5197528076144501,-1.56921386718,0.1552734375,0.23519700901049637,0.4843645491651615,0.71299377441025,0.31201171875,1.22229003906,0.08363073318779551,0.28882807404202593,0.12365478515360001,-0.28698730468,0.35632324218,0.015409630336425974,0.1239802656094304,1.0539513886258,0.60767637606,1.61580760337,0.016422916070036958,0.12799163558554078,Null
-0.24046936034935001,-1.20727539062,0.64379882812,0.15641855086979206,0.39500317023109777,0.8900756835893501,0.32214355468,1.57495117187,0.0833705276776186,0.2883783996044512,-0.062109375000000015,-0.77124023437,0.68225097656,0.12370470083838056,0.35127686955773874,1.06543292774745,0.48436321736,1.86492992932,0.08155943023196048,0.28522891097569436,stairs down
-0.719125671383425,-1.724609375,0.15002441406,0.16001782346304658,0.39952193795133323,0.6854827880822001,-0.07592773437,1.5634765625,0.13445813426371345,0.3662266906276141,0.18644073485995002,-0.23327636718,1.05627441406,0.033524835071714346,0.18286886827460563,1.1072011283662249,0.19234179529,2.04837567521,0.12338344238242689,0.350820443783527,stairs down
-0.5609503173806251,-1.67053222656,0.83947753906,0.32679181143463637,0.5709420565224196,0.312444152830075,-0.72534179687,1.33166503906,0.1714200779762133,0.41351121844669797,0.16475311279117502,-1.00146484375,1.05627441406,0.19837264122938641,0.4448333503980035,1.0381479457459,0.31338896671,1.85241845622,0.057172788505378526,0.23880924717044583,stairs down
-0.3784002685536999,-1.47766113281,0.81335449218,0.2953358349154463,0.5427683624974448,0.5927969360311749,-0.20886230468,1.46374511718,0.11523901326337964,0.33904412062476647,0.287922363278125,-0.16687011718,1.1162109375,0.06721087378036832,0.2589263343036343,0.98539973193515,0.34935542425,1.84387617568,0.08328108656065897,0.2882236698195645,stairs down
-0.6669253540012251,-1.09143066406,0.35827636718,0.12729722997379758,0.3563411103126653,0.6091836547817251,0.33862304687,1.21032714843,0.03908864986377862,0.19746120692206653,0.259192810055225,-0.03491210937,0.76477050781,0.030728425417125105,0.17507599593771356,1.03291286501895,0.75408733742,1.47168563102,0.012819647736064092,0.11308226481957254,Null
-0.392776794432175,-1.11535644531,0.29284667968,0.18753210686492947,0.4325081231581288,0.7426394653287,0.24670410156,1.24658203125,0.07755416458419308,0.27813715892115637,0.26465301513317496,-0.03918457031,1.0205078125,0.04444816702705816,0.2105636402836219,1.0365720893216999,0.82785001723,1.263561126,0.0101324412496001,0.10053412428860212,Null
0.016284484864074997,-0.4990234375,0.6591796875,0.08925307790990378,0.29837886187719304,0.9038504028285499,-0.46166992187,1.35583496093,0.05450587523893931,0.23317291984885802,0.14222167968465002,-0.97619628906,0.47607421875,0.09260809053282622,0.3039351416116507,1.031902549072125,0.69323078091,1.41811470457,0.008412026671013045,0.09160238318043648,Null
-0.04974822998055,-0.86071777343,0.79760742187,0.18952103991302993,0.43479562706316094,0.812977294918375,0.25170898437,1.17651367187,0.04098373295811559,0.20219118088017662,0.23835174560337496,-0.1455078125,0.77893066406,0.06851420716174522,0.2614247915631585,1.00452975587735,0.69105015221,1.21283264144,0.00943350898314982,0.09700476901004375,Null
-0.24935546875002493,-1.12036132812,0.330078125,0.272745312176334,0.5215970177214333,0.7480050659148251,-0.21960449218,1.11486816406,0.14783804003098389,0.38401620399523045,0.10154785156087501,-0.3916015625,0.47448730468,0.027038727720251416,0.1642288978863062,1.035941972319,0.75832924479,1.25502313207,0.0053423050651225205,0.0729996527557475,lift up
-0.31026428222287494,-1.09912109375,-0.04736328125,0.041328632903039016,0.20304017169215902,0.07424041748122498,-0.27014160156,0.76696777343,0.15847838635792688,0.39759551103103774,0.8231619262655001,-0.04931640625,0.97192382812,0.04444073831782527,0.2105460435914926,1.0097124661852,0.67481591619,1.20986813735,0.003497739429200736,0.05906771606070218,lift up
-0.7863476562463751,-1.13916015625,-0.00073242187,0.06884209303624503,0.2620495903520065,0.4702908325158999,-0.11145019531,1.15148925781,0.053894608614962175,0.2318617521141095,0.287433471675825,0.02844238281,1.23645019531,0.07653523209956659,0.2763039884245569,1.0543374815281248,0.90660796823,1.56464744342,0.009303592214568442,0.09633448621356747,Null
-0.646604919431525,-1.08679199218,0.83447265625,0.287280910253498,0.5353155218914021,0.5396154785119499,0.07507324218,1.21484375,0.062384960183803274,0.2494574067518216,0.13085571288845,-0.37072753906,0.5087890625,0.03422276551040423,0.18476257358195738,1.0472383561767,0.70966351771,1.44387492262,0.01265838976360262,0.11236878476335682,Null
0.03286163330052503,-0.95935058593,1.16088867187,0.7682115728551594,0.8753805137898727,0.32232391357115,-0.61535644531,1.12756347656,0.10068306004818124,0.3169090601388051,0.002171325682699998,-0.63830566406,0.23876953125,0.046979568017380575,0.21647660173177408,1.00284646494515,0.57475101688,1.31346221121,0.01289302257990797,0.11340542325417334,Null
-0.691283569331925,-0.94165039062,-0.37316894531,0.057490025097982386,0.23947087512939322,0.531717834469125,0.3427734375,0.90893554687,0.038949976207237724,0.19711063204890708,0.323453674312875,0.11767578125,0.80969238281,0.044784318174918736,0.2113583624545796,1.0028636549435999,0.9377620728,1.04481244093,0.00035574578782358114,0.018837633167519272,lift down
-0.326954650875625,-0.49072265625,0.15942382812,0.02444932532953916,0.156167224526196,0.847240295406075,0.67883300781,1.15979003906,0.010869465173610603,0.10412632477273255,0.40449951171487497,0.05676269531,0.73022460937,0.020331206692294098,0.1424091944909575,1.02030730120415,0.77432017581,1.22592752871,0.0028262658453532623,0.0530961409213502,lift down
-0.53416351317985,-0.96008300781,-0.30029296875,0.06385393041054956,0.2523772881709509,0.6411563110317501,0.33068847656,0.90075683593,0.029940375681743008,0.17281644812499375,0.5034887695275501,0.13635253906,0.7451171875,0.032492809481027424,0.18003215673130413,1.0368216929659502,0.95439890637,1.09743175722,0.0008874083306606978,0.02975213958413825,lift down
-0.9243737792934,-1.0517578125,-0.80334472656,0.0031255872641589473,0.05583702441927354,0.39156127929322504,0.24035644531,0.59545898437,0.0051239349653848095,0.07149213332927859,0.162768554684,0.00830078125,0.30090332031,0.00378861254021816,0.0614747184529349,1.0213692938430499,0.91134016451,1.18139739882,0.003101279909194353,0.05561948138396624,Null
-0.8974029540975751,-1.06323242187,-0.56811523437,0.008810490659223586,0.09374681025280555,0.4281631469688,0.25268554687,0.75439453125,0.012013128375111612,0.10946732642288215,0.20714691161717502,0.03247070312,0.53039550781,0.012552715180525332,0.11189876403505992,1.0307877617324,0.87284194964,1.20671752753,0.0021524150486128346,0.046336098357450235,Null
-0.02025848388774999,-0.9287109375,0.32080078125,0.10386938208630916,0.3218846200598801,0.7099801635705251,0.36096191406,1.06115722656,0.03499044933829977,0.1868233743806005,0.595727233883225,0.0615234375,1.01965332031,0.059819651329419014,0.2442746450229648,1.026667218967125,0.86444411344,1.28437937645,0.003519179518542194,0.05924847314273878,Null
-0.8364062499963001,-1.35620117187,0.04016113281,0.05300011393383524,0.22992958411000672,0.3294873046836,0.15441894531,1.01354980468,0.018748081632748662,0.13675237266192786,0.3048168945278,-0.97424316406,0.48022460937,0.12261614369730858,0.34972789899872914,1.0412900787787,0.79007890598,1.64940252576,0.01067071521267266,0.10316994923252108,lift up
-0.79259033202765,-1.04846191406,0.07788085937,0.044241116384068774,0.2100726388493004,0.4529449462853,0.099609375,1.16259765625,0.02223308312513693,0.1489211214614102,0.26806549072,-0.98657226562,0.45751953125,0.09778157021970119,0.31230932790128435,1.029544949602625,0.64805050297,1.52636811005,0.009333811282818526,0.09649081176263095,lift up
-0.8281945800742,-1.21838378906,-0.06579589843,0.030390843190508263,0.17411164832523984,0.4215734863246,0.02612304687,1.07531738281,0.030488716467010193,0.17439178500102195,0.3696789550743,-0.01354980468,0.53491210937,0.007646274475427139,0.08733360629928534,1.0161983991559,0.07207711867,1.66467659772,0.03607852607916814,0.18970590334507312,lift up
-0.9211865234341999,-1.21716308593,-0.73107910156,0.006412586030520242,0.07997846313504618,0.41733642577780006,0.26477050781,0.65930175781,0.008161912101844453,0.09023030157097914,0.19601928710549998,-0.16027832031,0.4248046875,0.013035018131927577,0.11402820083908084,1.0403084848551,0.90349819596,1.38850022984,0.006492845080291366,0.08047740656600856,Null
-0.6610449218714,-1.40502929687,0.14172363281,0.17930974281480078,0.42292016794870846,0.5647216796837,0.23181152343,1.10229492187,0.03357237562500444,0.1829984827421854,0.4288183593718,-0.13415527343,1.02795410156,0.08875332209632295,0.2975423310910267,1.1000316936695,0.5705804326,1.44843143865,0.030664435519382752,0.17489360889004577,Null
-0.11305908203189999,-1.52734375,1.36450195312,0.29605228153092056,0.5434263067124128,0.7891149902305,0.205078125,1.56176757812,0.13679841833155765,0.36940008430660753,0.3045312499964,-0.19714355468,1.19958496093,0.05398464264977664,0.23205534047539653,1.056207344326,0.37162674222,1.86525496626,0.09851469274190935,0.3134779194936297,stairs down
-0.6777880859341999,-1.39440917968,0.05029296875,0.13132520944487994,0.3619349339608816,0.6534875488246,-0.08947753906,1.21875,0.07185637193660085,0.26772510343028977,0.1283911132791,-0.23986816406,0.62048339843,0.030093569378230392,0.17325800257068882,1.0531775790512001,0.38658253361,1.58527891456,0.026502149112249296,0.16259118592183486,stairs down
0.09442260742149998,-0.26806640625,0.69116210937,0.054956619748653186,0.23413506401067216,0.8613256835902999,0.20654296875,1.95104980468,0.10008456294096629,0.31596574424075446,0.2598522949209,-0.255859375,1.27624511718,0.15679596937099394,0.3954794298665437,1.0343207208792,0.60420476585,2.03426539642,0.059708253352776554,0.24404709119224227,stairs down
-0.8941430664025001,-1.59069824218,0.26904296875,0.1199099424126211,0.34584702912789284,0.4972790527312,0.23132324218,1.53881835937,0.049525073086986275,0.22226394310429393,0.1799658203092,-0.13244628906,0.57873535156,0.018971914061597494,0.13756629048005728,1.0929458099377,0.48750690858,1.78699298333,0.07275322780713622,0.2693906916313524,stairs down
-0.83751525878565,-1.09924316406,0.28735351562,0.10766814771297906,0.32771783189765036,0.4331375122035,0.19506835937,0.86376953125,0.014412709549107222,0.11990278468507082,0.206155700679925,-0.02819824218,0.80981445312,0.03446254071043394,0.18540869547747177,1.039679579433225,0.87235669669,1.24211046591,0.006775436278567894,0.08221008264119112,Null
-0.0018139648422000043,-0.32629394531,0.46887207031,0.04086102400095945,0.20188826474304308,0.6566235351525,0.39184570312,0.89526367187,0.010220028350249521,0.1009677090924316,0.734290771481,0.46435546875,0.8837890625,0.008330386890468588,0.09115679307238939,1.0140955084454,0.90218772199,1.09213499999,0.001216947230097017,0.03484113749609468,Null
-0.5598706054654999,-1.01696777343,0.185546875,0.10955592845543052,0.3305783396326685,0.7602734374964999,0.47961425781,1.12609863281,0.022228781956007467,0.14890671576902584,-0.0489135742162,-0.4013671875,0.67749023437,0.05539970245479159,0.23507701546228335,1.0361687726961,0.78812030211,1.25193578318,0.006951437286314872,0.08327099550923531,Null
-0.4363720703097,-0.97839355468,0.22705078125,0.08750502032918898,0.29544247795191203,0.8192919921835999,0.51416015625,1.14001464843,0.025408508640228075,0.15920109097813215,0.13061645507749997,-0.39392089843,0.83459472656,0.08285577240148838,0.28748675268694496,1.0244156813321998,0.72216303722,1.37566527614,0.024634586967294834,0.1567577765212195,stairs up
-0.4959765624995,-1.14794921875,0.21655273437,0.27914801558398766,0.5276837552407954,0.6834005737261751,0.2607421875,1.12292480468,0.05816916793783709,0.24088118444160908,0.30071990966447504,-0.06884765625,0.65783691406,0.030557892600023877,0.17458951248148846,1.07748613548745,0.82476897653,1.29839554086,0.010303908530150936,0.1013812051557169,stairs up
-0.9954113769495001,-1.26098632812,-0.59899902343,0.014627964304051068,0.12079484423306708,0.44392425536744995,0.24450683593,0.76684570312,0.011798479857987482,0.1084849466900478,0.143845214841375,-0.09362792968,0.40637207031,0.011330438968524757,0.1063113957725297,1.1116875553570251,0.80778391914,1.31146474154,0.009303304268914799,0.09633299542857843,stairs up
-0.9582684326135,-1.27783203125,-0.64807128906,0.01626467244333981,0.12737350887147397,0.41635223388247494,0.19641113281,0.77514648437,0.01436099841312508,0.11968749273458888,0.17591461181339998,-0.23095703125,0.48486328125,0.01658292931025155,0.12861365396790467,1.0749005488436252,0.78746878319,1.33865366428,0.014288632595093446,0.11938555613475908,stairs up
-1.017470092769525,-1.32067871093,-0.75366210937,0.011086138818069687,0.1051590389411415,0.4288809204066,0.18920898437,0.69006347656,0.012341941261208304,0.11095533519419101,0.164364624020725,-0.09118652343,0.40393066406,0.014396232013301972,0.11983422479938156,1.1278404436485001,0.85073513119,1.3485700688,0.011395054535824579,0.10661410272325617,stairs up
-0.9725390624965251,-1.33703613281,-0.58935546875,0.021038261398039163,0.14486430113918358,0.40059844970399994,0.15502929687,1.14855957031,0.018239504322812912,0.1348847862511035,0.149918518063,-0.07275390625,0.50769042968,0.010624709731936714,0.10294730670399722,1.0786946223911,0.75329241692,1.41396370958,0.015020089155927134,0.12240318187464458,stairs up
-0.9654843139607501,-1.14611816406,-0.67736816406,0.008511570331253788,0.09214277728300604,0.43471679687125003,0.25073242187,0.7509765625,0.01179883653361147,0.10848658646246291,0.1661703491179,-0.05920410156,0.43493652343,0.01206589381389632,0.10970747048110069,1.08148217509275,0.7598626043,1.35097855979,0.011471582755006593,0.106971509282234,stairs up
-0.5472048950163251,-1.2578125,0.01232910156,0.19366272244185997,0.4395208364068253,0.65061889648115,0.20031738281,1.21166992187,0.07434390650515947,0.27231975091589766,0.346599731442225,-0.08801269531,0.99255371093,0.06342750953479963,0.25153318023863697,1.0719270696915748,0.74386683756,1.41452765849,0.02450870157607765,0.1563567389725734,stairs up
0.060919189451625,-0.49597167968,0.31970214843,0.024276607577985023,0.15561463960386265,0.7688800048787999,0.36596679687,1.31359863281,0.04818639775827747,0.2192394393440235,0.635662231441375,0.21374511718,1.23083496093,0.04138441926834501,0.20317715969117728,1.0299444957228001,0.53629151932,1.47822913212,0.051860875992212334,0.22744499071694632,stairs up
0.28332122802397497,-0.08874511718,0.61315917968,0.02243386924478717,0.1495920605235291,0.7526571655234501,0.57531738281,0.97607421875,0.010526595609284315,0.10247086961796072,0.5876330566369999,0.37927246093,0.80126953125,0.00946793547110089,0.09718161159614065,1.015555777505,0.9126914493,1.19021128152,0.0030527603189722655,0.05518268223070382,Null
0.33061340331612504,0.09411621093,0.56884765625,0.010381508467712923,0.10176224592914428,0.7111010742145001,0.50085449218,1.17907714843,0.011871729942838024,0.10882118643895097,0.6304010009732001,0.3505859375,0.80041503906,0.010042774348229802,0.10008829807904232,1.0157186672732,0.64830258126,1.47900811261,0.012938590387290833,0.11360565087759766,Null
0.376889343257575,0.08618164062,0.6005859375,0.010245181855321403,0.10109188345600799,0.8287780761679001,0.42553710937,1.38671875,0.034662663301680476,0.18594624665054757,0.4856112670861749,0.25109863281,0.74072265625,0.015456002625659012,0.12416667273908433,1.0403498583804,0.54402542209,1.60143830352,0.04272891193309556,0.20645117983015457,stairs down
0.33198974609009996,0.00476074218,0.57629394531,0.00995458403923707,0.09964786791065314,0.8518588256799501,0.34704589843,1.33251953125,0.024447133961687822,0.15616022581561415,0.45049682616785,0.21423339843,0.85888671875,0.015235300785619691,0.12327697487225926,1.028619973340025,0.43728119623,1.63496757271,0.030357812003699927,0.17401700340395096,stairs down
0.2647827148399,-0.00573730468,0.49597167968,0.0111334552440951,0.1053832131128334,0.72724517821915,0.39562988281,1.10107421875,0.03092577779291359,0.1756373062547684,0.63221405028945,0.39123535156,0.95764160156,0.020661385256463615,0.14356089924949084,1.0143420696949,0.67955294186,1.4965821557,0.032445135940036174,0.17990003640962968,stairs down
0.265401916499825,-0.03186035156,0.45739746093,0.010957386226855647,0.10454660568994341,0.8498904418902,0.28894042968,1.44543457031,0.034123158111376936,0.18449349640596682,0.511197814937925,0.25170898437,0.84118652343,0.014059009796204171,0.11842238923325969,1.0343744009547,0.41596878934,1.61324834443,0.04324456180203504,0.20769316406066415,stairs down
0.276587829586175,0.09655761718,0.44360351562,0.005656103971993073,0.07511300627762871,0.8384817504842501,0.53881835937,1.20202636718,0.016291325293820828,0.12747782936882113,0.48173736571842496,0.28369140625,0.67407226562,0.007343304387953243,0.08558589911301603,1.010937653092525,0.72446834086,1.34569029116,0.018893164192250334,0.13728048397995146,stairs down
0.32512054442997496,-0.00830078125,0.60656738281,0.01114625698261351,0.10544378284259806,0.8633212280230501,0.35424804687,1.359375,0.03787404508288403,0.19436913327526267,0.42168121337529996,0.20825195312,0.70812988281,0.011153799435032339,0.10547945267418085,1.0210592084736752,0.42111115711,1.50344469493,0.04641976533360348,0.21518298241326952,stairs down
0.234665222164675,-0.03894042968,0.57507324218,0.016706872030970165,0.12909339584538296,0.81148742675395,0.37341308593,1.14477539062,0.030031107167740385,0.17307810202281812,0.5335583496055001,0.27990722656,1.12121582031,0.028774511275075333,0.1694183431535312,1.0296384634921751,0.76904627239,1.32940901788,0.013466131783341426,0.11589851791064057,stairs down
0.23012847900012504,-0.00671386718,0.46411132812,0.01169231828784751,0.10799577534388968,0.82550109862955,0.40100097656,1.24865722656,0.039044729449766225,0.1973502410085729,0.5378509521442499,0.27868652343,0.89392089843,0.02047501268194465,0.14291194894143663,1.0274027101572,0.58471278306,1.4857195587,0.039583681115532836,0.19870762922631832,stairs down
0.273868713375725,0.08117675781,0.4833984375,0.007587943443705856,0.08699984819007785,0.875289306636775,0.4111328125,1.36413574218,0.029950654045019672,0.1728461090389573,0.440301818844075,0.15490722656,0.71801757812,0.015776704729735067,0.12544824816596972,1.0284925316851499,0.46623664021,1.4488618622,0.030462416428754847,0.17431655224815273,stairs down
0.28843170165614995,0.05407714843,0.46984863281,0.009094520237267496,0.0952459129657243,0.8050646972619251,0.40100097656,1.23791503906,0.020638702386479954,0.143482074248018,0.5197335815397,0.34924316406,0.9267578125,0.012737989652643063,0.11272153600138464,1.0080154852698748,0.53450622899,1.38602005455,0.027457379861065414,0.16549542716163715,stairs down
0.26423339843437504,-0.16271972656,0.57080078125,0.024305897771452412,0.1557084873313712,0.8537878417929999,0.04272460937,1.66027832031,0.07291879506211739,0.26969704869438615,0.4688284301714,0.07885742187,0.86401367187,0.022113275254554053,0.14851933229858552,1.025256481671025,0.09108081496,1.86222833197,0.09082267017550151,0.3009910521926902,stairs down
0.0849523925748,-0.05029296875,0.28039550781,0.003700769710902522,0.060757861932636055,0.95232421874615,0.6220703125,1.06286621093,0.008192270865635233,0.09039795455911126,0.313721313473,0.15649414062,0.81408691406,0.02290458764298831,0.15115332008884502,1.0230015066712,0.88827635798,1.10724339737,0.0007397901140450612,0.027165062833719868,Null
0.07798095702905,-0.13732910156,0.21276855468,0.00721953547940845,0.08486157340463309,0.9469262695275,0.587890625,1.28637695312,0.01862766377599983,0.13631248885028777,0.3321673583946,0.111328125,0.919921875,0.02594679088788207,0.16087859991516076,1.02327346201185,0.70797070636,1.45795673605,0.017705735010994903,0.13289646599314603,Null
0.21953063964475,0.00695800781,0.68530273437,0.014400655747882593,0.1198526349669163,0.85439331054295,0.19140625,1.64892578125,0.06791038387561078,0.26027025937652143,0.49502624511314997,0.24755859375,1.01879882812,0.028676404241549863,0.16912927963822819,1.0296282833243,0.60106455022,1.74078173008,0.07399317055571464,0.27167662326620107,stairs up
-0.11553161621209998,-1.14990234375,0.52331542968,0.2937989958781846,0.5413543187123283,0.7964031982381,0.35131835937,1.52062988281,0.05773852114676344,0.23998786395127678,0.3960534667928,-0.18017578125,0.84130859375,0.03859157832781017,0.1962016803750433,1.0727036431313,0.62164096597,1.68323607307,0.0430322042064794,0.2071825854070829,stairs up
-0.97873657226215,-1.47082519531,-0.57299804687,0.022428098087966104,0.1495728178605531,0.48091857909780006,-0.03161621093,1.09741210937,0.026688216858383844,0.1631609521798579,0.15392517089635,-0.26477050781,0.53076171875,0.02409018210800984,0.15501598837777933,1.1248124122896,0.75504963402,1.63460235965,0.020773367229883627,0.1439494140724752,stairs up
-0.65581604003575,-1.50073242187,-0.03588867187,0.09959871946645543,0.3151979103163428,0.6794940185514,0.07434082031,1.62512207031,0.10786937894661523,0.3280239404361345,0.14111389160005,-0.38903808593,0.65405273437,0.05018052966512693,0.22372992276618725,1.0469744410911,0.53240921665,1.69698229533,0.07275083331222984,0.26938625842635194,stairs up
-0.6699456193465586,-1.37084960937,0.08728027343,0.1539366060799005,0.3918580409653825,0.42264699578857856,-0.33898925781,0.87133789062,0.06641502923660741,0.25738959909503273,0.4360570741079053,-0.00744628906,1.10632324218,0.11661806281902712,0.34106780074826615,1.06556671798808,0.79935253436,1.48845271627,0.018346082855852434,0.13527871978174527,stairs up
-0.6352545181274436,-1.17785644531,0.04077148437,0.05692839966895957,0.23829754924370006,0.7800127760767418,0.23583984375,1.70971679687,0.08167923727405195,0.28543743168371805,0.14462853911937343,-0.44494628906,0.59912109375,0.05018906214906136,0.22374824027437792,1.079823057440351,0.52084342628,1.71782281315,0.055330008703257896,0.23492836568249315,stairs up
-0.60831848144305,-1.49047851562,1.07727050781,0.44674954880007095,0.6675572446824848,0.480172729488,0.11779785156,1.31127929687,0.050079252103927704,0.22350403569883895,0.1040649414043,-0.44128417968,1.04077148437,0.0704284767445374,0.26505170354607427,1.0559834467776499,0.36536513247,2.09661136297,0.06234068333535879,0.24936886659529173,stairs up
-0.513945922849325,-1.20385742187,1.0302734375,0.5388270998155272,0.7331302967863137,0.4479742431610749,-0.39453125,1.17724609375,0.08105738295858327,0.2843496782153741,0.128212890622675,-0.32360839843,0.69067382812,0.04373829619506922,0.20887544244018144,1.0618697873009502,0.74397697551,1.41835670313,0.015695394799950965,0.12512456318785328,stairs up
-0.7599755859347499,-1.28393554687,0.46337890625,0.19808760056113014,0.44451364608943933,0.5157977294888,0.19738769531,1.35424804687,0.0721832608334134,0.2683333797374637,0.26070617675444996,-0.04138183593,1.25634765625,0.05228585435002649,0.22837499800580496,1.0975427150552002,0.41186159829,1.71041144379,0.028800212677387322,0.16949398852376404,stairs up
-0.8996149762278305,-1.46923828125,-0.34655761718,0.05052895448041598,0.22450600685200917,0.29862964658309227,-0.08959960937,0.74011230468,0.024527459810841083,0.15641705174197587,0.14678452793630922,-0.21081542968,1.02758789062,0.0681557199937432,0.26074078239648546,1.0226007124993266,0.76875766851,1.49271982993,0.01721818662387985,0.1310543723140258,stairs up
-1.0075720306589224,-1.29675292968,-0.76171875,0.013986569165141556,0.11811653189576621,0.23850886982671682,0.04797363281,0.60083007812,0.011661372468290833,0.1078524268195972,0.01882942218731829,-0.181640625,0.36279296875,0.011122410730277461,0.10533059866041528,1.0467040111093233,0.79715499446,1.31217630686,0.013565332639847251,0.11632426364447396,stairs up
-0.9683557128870252,-1.333984375,-0.77185058593,0.019380175112886006,0.13903857261603267,0.23266571044577503,0.08215332031,0.43225097656,0.006304530683495601,0.07930176137253737,0.014022521972525,-0.14282226562,0.21691894531,0.005072743465650286,0.07113411001050171,1.0016988674376,0.81091080733,1.376365271,0.019241492257242237,0.1385402054516996,stairs up
-0.7774401212947368,-0.90808105468,-0.74865722656,0.0005427211191989445,0.023267163898779787,0.6558375920234085,0.45642089843,0.68994140625,0.0010891654778336479,0.03296112467428811,-0.09458277039862156,-0.15625,-0.04541015625,0.0006358719488280856,0.025184882068334864,1.0225982029469172,0.98995526836,1.06695185666,8.497880141428477e-05,0.009206835610681807,Null
-0.8312586453755362,-1.0205078125,-0.5908203125,0.0066458068992834305,0.08142010694384136,0.5620089790136159,0.24621582031,0.77770996093,0.013245293974845909,0.1149446097759896,-0.0592464152111222,-0.49877929687,0.21850585937,0.028703111961181343,0.16920854921770484,1.026487203351596,0.86888599737,1.27410521875,0.004988727286608609,0.07054279956298269,Null
0.048974058682005,-0.99328613281,1.001953125,0.3759601782857563,0.6123870689358382,0.7098673196628069,-0.01477050781,1.54724121093,0.13053147462279852,0.3608383683449685,0.0667333005363408,-0.31433105468,0.55786132812,0.08087563315864196,0.28402981768854696,1.0363988576430576,0.58710812932,1.68296594265,0.022592621944060524,0.1501199481462033,Null
-0.7927267402745137,-1.26892089843,-0.16845703125,0.06437129769022895,0.25339844270105655,0.45769548296842893,-0.0634765625,0.93408203125,0.04140248354045603,0.20322213327250177,0.29462811476798006,0.01672363281,0.76928710937,0.027204735679263955,0.1647327940807471,1.023701607787182,0.76705029225,1.3117513849,0.009411954972436173,0.09689418848944761,Null
-0.35696533203040004,-1.12658691406,0.40319824218,0.274193699380358,0.5229801288117045,0.7134924316369,0.31665039062,1.15991210937,0.053424050113220496,0.23084733047609074,0.3300988769496,-0.12890625,0.83947753906,0.03567723554315873,0.18864793254711495,1.0460739058918,0.64873293385,1.45804865703,0.013611125639782378,0.11652080426122591,Null
0.16555334869954888,0.05029296875,0.23364257812,0.0006126963946937328,0.02472166690895169,0.9539641951522557,0.89404296875,0.99743652343,0.00018030875793298087,0.013411072152666468,0.33101032610401,0.30456542968,0.40515136718,0.0002876028308208127,0.016937591969374253,1.023683209483208,0.97376142473,1.06870949568,0.00017445643525506574,0.013191633753311003,Null
-0.1303234863242,-0.15881347656,-0.0205078125,0.000699127495706531,0.026407947231226903,0.9742077636682,0.94274902343,1.10241699218,0.0005911909234141399,0.024284005973183347,0.29818847655860004,-0.13354492187,0.34069824218,0.006162298687520372,0.07840212331819574,1.0306443519402,1.00770836669,1.10463784469,0.00018802086294599687,0.01369491915962383,lift down
0.32230957031199997,-0.16687011718,0.84790039062,0.18306871688741433,0.4273301359548561,0.3658813476551,-0.66845703125,1.20532226562,0.3636593094104709,0.6022874406269358,-0.1784912109374,-0.94177246093,0.3603515625,0.2178287174431683,0.4661374750538304,1.0142596361771001,0.76517224062,1.20743638557,0.0035433326958187574,0.059451445433052426,lift down
0.01567823366957394,-0.1572265625,0.15856933593,0.007798994909427219,0.08820118228386034,0.9619471040851378,0.57275390625,1.1953125,0.011436662585875949,0.10680823597047365,0.11315183710967422,-0.64794921875,0.42321777343,0.09611642729518488,0.3096377463968067,1.0233401807286715,0.79773997129,1.24725541165,0.006244883974321518,0.07892548787331004,Null
-0.1405501139737656,-1.72570800781,0.71813964843,0.28114137593742045,0.5295661198087518,0.8378687071348381,0.30163574218,1.16613769531,0.05163543161278231,0.22695079852339425,-0.21859566172249376,-0.869140625,0.48474121093,0.05224996298374898,0.2282973145356478,1.0615643636926184,0.74977273279,1.97522188416,0.02677684920502195,0.16343216947704028,Null
-0.34679687499629996,-0.89721679687,-0.16381835937,0.010801870398732217,0.1038020506672936,0.8606066894494,0.58911132812,0.94860839843,0.003426496275967166,0.05846306556516899,0.4465002441365,0.22155761718,0.81176757812,0.009552264528773871,0.09761344101839632,1.0402361628979,0.98548019522,1.25685341325,0.001909092203908996,0.04363850906480678,Null
-0.4939636230428999,-0.57666015625,-0.45751953125,0.0006998542481633241,0.026421669374642392,0.8921972656212,0.83898925781,0.96350097656,0.0009161470767030904,0.03023006300045259,0.07575073241790001,0.04504394531,0.12158203125,0.000195515297719392,0.013965189202982304,1.0229184485568998,0.95671908678,1.09127725645,0.0012020356574135509,0.034627020782475884,lift down
-0.44987872116234406,-0.66687011718,-0.27416992187,0.005860608173204524,0.07645909488235492,0.8479518367133418,0.67590332031,1.04992675781,0.006181064314251432,0.07852165426670202,0.3464720766406733,0.23498535156,0.46862792968,0.003160398456874377,0.05614728100241779,1.0259923590398254,0.91052239547,1.19803260642,0.0039698205694944574,0.06292790134412174,Null
0.0002215010185463192,-0.53857421875,0.97473144531,0.182353596074704,0.42649334053197807,0.8245944450932831,0.38525390625,1.16735839843,0.02919498200511448,0.17065114011968768,0.275665665626391,-1.12780761718,0.63854980468,0.10240303277176492,0.31960347865256905,1.0298566382985463,0.78729937699,1.38593920435,0.00854336605734222,0.09231443068305382,Null
0.18395538329735,0.06420898437,0.45629882812,0.003398234475157001,0.05822146416030009,0.9884570312458,0.89245605468,1.16967773437,0.0015529795457644535,0.03935857081881965,0.20304534911735,0.04919433593,0.38525390625,0.006064010543967912,0.07777435642683256,1.030469925311025,0.93753847202,1.214144079,0.0012368110229705807,0.0351243362273674,Null
0.7999560546836,0.28454589843,1.10217285156,0.022955959040444607,0.15132273174524538,0.47161010741829995,-0.189453125,1.1552734375,0.0493737241838208,0.22192406330400777,-0.15537841796640003,-0.66491699218,0.41430664062,0.055471002911072084,0.2352282410846844,1.0037324508167,0.66287261722,1.2463644206,0.006506854349268326,0.08056418070951356,lift up
-0.5242971931759649,-0.95239257812,0.60522460937,0.2677661793836943,0.5168124284518335,0.6536724501647869,0.36083984375,1.19421386718,0.024059922502503158,0.15491811367575056,-0.018118110215488707,-0.25219726562,0.83923339843,0.07177719651216191,0.2675767250511034,1.0229692411797995,0.55169595017,1.40659624711,0.01877648719777844,0.1368555016527326,Null
-0.7920007111092021,-1.00708007812,-0.60192871093,0.007350175009835456,0.0856261957367288,0.6494122360079551,0.46960449218,0.88671875,0.009939372536154647,0.09957201449693184,-0.007860597528802991,-0.22033691406,0.31494140625,0.012388926808930946,0.11116668444100926,1.0371631172504738,0.90173515008,1.17670603278,0.002967699827696043,0.0544086305653437,Null
-0.8050854492148249,-1.0615234375,-0.53393554687,0.014924325477000925,0.12201235455194044,0.63153015136325,0.39892578125,0.88256835937,0.012810946630827753,0.11304388202928402,-0.069049377439425,-0.24975585937,0.1337890625,0.008031068017153656,0.0895041359218152,1.032109658487375,0.79092035544,1.2987254683,0.022242913560602682,0.1489540408203187,Null
-0.79610229491805,-1.08752441406,-0.486328125,0.02251766709606312,0.14987118778578812,0.6239727783163,0.2265625,1.07287597656,0.024597142241154352,0.15663859481478842,-0.132785949703675,-0.41943359375,0.09252929687,0.013375241657563743,0.11550672514368951,1.0300525267228249,0.53881918903,1.50913224746,0.04018407875023825,0.20020893724647423,stairs down
-0.677907409665925,-1.89978027343,0.98303222656,0.3991275410756517,0.6309752152208219,0.594826354976725,0.0,2.07153320312,0.15269345902819714,0.39027134839829924,0.178840026853875,-0.48962402343,0.83129882812,0.0631077575521119,0.2508983622071528,1.1408299819571,0.25569024939,2.24283736975,0.15765312470184045,0.3965589387343146,stairs down
-0.68292327880485,-1.14587402343,-0.06555175781,0.07082695620310014,0.2658004680443441,0.42154724120759995,-0.07751464843,0.72265625,0.04091688058047073,0.20202620715892172,0.48308380126562506,0.00842285156,1.05944824218,0.07980185857670194,0.2821388912047756,1.03090655536985,0.86156133491,1.24651926123,0.00576916848920239,0.07586003933547217,Null
0.039103393553949956,-1.14440917968,1.05065917968,0.4942073301777192,0.7021195139378159,0.628933410641275,-0.14318847656,1.30236816406,0.0708303100181354,0.2658067610936375,0.042161865233899976,-0.61987304687,0.89001464843,0.1497030260828526,0.38643080689516135,1.0356351846966,0.24450711018,1.8045942398,0.03937595200094527,0.1981855497278823,Null
0.5312429809532,0.34484863281,0.7421875,0.006925294859314259,0.08311426846315843,0.8156628417932,0.68688964843,0.92395019531,0.0030729322789199297,0.05536469947739832,0.28639282226214996,0.08972167968,0.50244140625,0.010972323768786194,0.10461784245225203,1.024308816989675,0.87356474364,1.1324956385,0.0012585432643115982,0.03543158063297232,Null
0.8067971801718251,0.53259277343,0.99914550781,0.010097328174882913,0.10035977707451181,0.5142236328088249,0.18688964843,0.86633300781,0.03111502251235065,0.1761738770535228,-0.12028717040915003,-0.42443847656,0.373046875,0.06847451770414623,0.26134906047255246,1.0188639617133501,0.93397076228,1.14781253054,0.0011483875503270251,0.033845480960553766,Null
0.6680133056612001,-0.279296875,1.01440429687,0.10159350034140442,0.3183386822089815,0.606763916011625,0.33386230468,1.15588378906,0.037007242335072174,0.1921320489383135,-0.22520843505577504,-0.67504882812,0.49438476562,0.05080838496040621,0.2251252184851915,1.024964046414175,0.87424414208,1.24044241174,0.003516164321963784,0.05922308596450268,Null
-0.027742004392675,-0.21057128906,0.11145019531,0.004513995294432057,0.06710223771377506,0.9293276977501,0.7529296875,1.05358886718,0.004692130739275926,0.06841345198444336,0.39374481200795003,0.06628417968,0.66418457031,0.02552326171745752,0.15956018790150592,1.026210344493375,0.92002715785,1.11821178351,0.0009919385799564504,0.03145566297992397,Null
0.477497558590925,-0.02380371093,0.76525878906,0.05296125827834847,0.2298452852086651,-0.019205322263949966,-0.61474609375,1.00378417968,0.2404363679841298,0.48972980005730654,-0.633696594234475,-0.95288085937,-0.11242675781,0.04737769599387045,0.21739193120694653,0.9818515848651499,0.69716344346,1.14421375284,0.006071520649625502,0.07782250219571098,lift up
0.22755218505685001,-0.30334472656,0.64050292968,0.09742701517970054,0.31174259837524815,0.8510745239220501,0.44226074218,1.45666503906,0.03023839553344711,0.17367440670580536,0.13460754394494998,-1.48657226562,0.69384765625,0.17135128681809272,0.4134282387561927,1.0339267082124999,0.73932059864,2.0854540704,0.023550627482263737,0.1532701892526987,lift up
0.2257043456995,0.05981445312,0.42724609375,0.006940773541770204,0.08320710070610428,0.8102783203085501,0.63989257812,0.94787597656,0.004697452063587582,0.06845223468542581,0.5713775634722499,0.41577148437,0.69958496093,0.0035676416803592727,0.05965502976412278,1.02246596858295,0.91138376294,1.2064674505,0.003706189252435054,0.060802333666595126,Null
0.37971679687134996,0.16296386718,0.58337402343,0.013890895933141289,0.11771222830831313,0.7520745849571501,0.56616210937,0.87255859375,0.004464991184892127,0.06673701152231719,0.53636291503515,0.23376464843,0.73620605468,0.01344198364629089,0.11579455378892033,1.01396164340775,0.92975447918,1.09799407023,0.0010890882980656618,0.03296006033551058,Null
0.4698443603477,0.43310546875,0.51611328125,0.00027259510226483987,0.016489803349621177,0.8716827392543,0.81628417968,0.90637207031,0.000402557063755816,0.02003872927848536,0.260180969234825,0.205078125,0.3173828125,0.0011286302391478086,0.03355307234144049,1.0246697375785,0.97500807838,1.055669384,0.00013018491936014052,0.011395589368775104,lift down
0.41985473632475,0.396484375,0.45739746093,0.00031169087516152213,0.017632686918720535,0.8927862548791,0.86474609375,0.94177246093,0.00042576610554428393,0.02060829178462939,0.31623229980115,0.24096679687,0.34509277343,0.0006074441461278606,0.024615554752280944,1.03645223908715,1.00994383016,1.09311571803,0.00045760292771653964,0.021364899260170836,lift down
0.2046630859339,-0.0419921875,0.38562011718,0.004934438039733556,0.07015769341016152,0.8013208007777,0.55554199218,0.93115234375,0.007568644754333301,0.08688914283411632,0.5764367675747999,0.46545410156,0.85668945312,0.007523307243119937,0.08662851132861592,1.0163378602842499,0.87333495232,1.18617772846,0.0033233376754000458,0.057576291398556974,Null
0.23841247558245002,-0.07165527343,0.38012695312,0.007265915239732466,0.08513372100192224,0.8355700683556,0.63977050781,0.94897460937,0.0029527890039134264,0.0542716042825679,0.5251324462852,0.37768554687,0.74072265625,0.003977545099144781,0.06298889772330453,1.02186470396015,0.91047460693,1.09367861514,0.0007370619640413879,0.027114927791371386,Null
0.25864044189089996,-0.06188964843,0.42626953125,0.009193069507342064,0.09576057034904141,0.8333343505822001,0.56018066406,1.00280761718,0.004953302153570203,0.07029167019061561,0.51097320556285,0.40393066406,0.71166992187,0.0047646386871445364,0.06894002531495529,1.0187702978042499,0.78965950089,1.20250589988,0.003413982937509517,0.0583562162941168,Null
0.1154748535117,0.00341796875,0.17797851562,0.0015161020878308147,0.038888453718439846,0.9120812988245,0.84631347656,0.95080566406,0.00021934758901328655,0.014791863305234852,0.44996520995704997,0.40026855468,0.54467773437,0.0009694978075779015,0.031097814441837495,1.0248153836040501,0.99510635355,1.09707657518,0.00014741080236371505,0.012126098934026795,Null
0.095693359373375,-0.16723632812,0.54406738281,0.02473746077379655,0.15708474503229797,0.930141601558775,0.08178710937,1.18273925781,0.044710039444021805,0.2111830114981121,0.08325500488012498,-1.17492675781,0.43859863281,0.09459623110751189,0.3071803062205374,1.008514122484275,0.46190199725,1.65418324536,0.027854536906208056,0.1666880336555163,lift up
-0.1161706542934,-0.16149902343,-0.07788085937,0.0007242254311245644,0.026877776462102532,0.9970629882776001,0.97155761718,1.01623535156,6.232145735283791e-05,0.007884519878182552,0.18679321288675,0.111328125,0.22473144531,0.0010725520592373538,0.03270887768006204,1.02191572964215,0.99905748206,1.04206628366,6.478255881479282e-05,0.008038694074148851,lift up
0.01864562988384998,-0.30700683593,0.80444335937,0.08081597209031206,0.28392592724174787,0.9530969238243501,0.53002929687,1.1943359375,0.012967745569141358,0.11373357554046432,0.09268920898225,-0.22631835937,0.32116699218,0.008502413812370298,0.09209320158317535,1.0070286012459,0.77715465028,1.19803290494,0.005269681799826509,0.07250177649773103,lift up
0.123268432617275,-0.5869140625,0.79736328125,0.15127714894208408,0.3884571483056128,0.7661770629849,0.42077636718,1.27331542968,0.021575148459567702,0.14670109266266146,0.27331085204895,-0.77905273437,0.85290527343,0.20971985920799274,0.4573790108432751,1.0261958958052,0.71085693615,1.34311202895,0.00721712263420776,0.08484739140139926,lift up
-0.8242660522429,-1.04248046875,-0.5830078125,0.007374163294627469,0.08576554020345759,0.5833364868126499,0.33679199218,0.83679199218,0.010927298133982728,0.1044029687731521,-0.06585174560335,-0.23559570312,0.2333984375,0.0139300398681284,0.1178779655765151,1.02637607602455,0.92429558538,1.21245790831,0.0027423631418906857,0.052302076765994285,Null
-0.8700048828091499,-1.07373046875,-0.73327636718,0.0037323533532332355,0.06101657536973173,0.521549987789275,0.23693847656,0.67297363281,0.008696003420232168,0.0931357257537707,-0.046773071287025,-0.24572753906,0.12158203125,0.006111619134167997,0.07807906304722526,1.0237097157833501,0.94095002987,1.14996595591,0.0017653526779969398,0.04196354723211501,Null
-0.666776733394575,-0.86096191406,-0.08581542968,0.059255547015304534,0.24312015166942924,0.6615905761685251,0.53479003906,1.10632324218,0.022990375495795048,0.15143612368604645,-0.16926147460545005,-0.60339355468,-0.0546875,0.01550543131831964,0.12436505835653293,1.002220626125625,0.68844653124,1.20569678799,0.004013575408919536,0.06327354479083053,lift down
0.016743469240124983,-0.29333496093,0.89123535156,0.11066386426224126,0.33224569914685975,0.3742749023413501,-0.74108886718,0.93542480468,0.27145226043813453,0.5203591353930852,-0.6670068359341249,-1.18151855468,-0.05395507812,0.04828867511357752,0.2194719877929609,1.004413531033575,0.72929627878,1.1990695699,0.00575680397032904,0.07577870387122768,lift down
-0.5612359619116001,-0.95007324218,0.3193359375,0.17598914052605039,0.4189858800421981,0.520380859371725,-0.0078125,0.96948242187,0.06239371204719885,0.24947490408271703,-0.3203643798786,-0.9990234375,-0.02160644531,0.12127762919916966,0.3478137937548937,1.0208876192190002,0.67805712927,1.17267605423,0.00497762319075089,0.07046402722506012,lift down
-0.81192504882435,-0.83935546875,-0.78967285156,0.00016278619905062133,0.01274281105380578,0.6166165161093001,0.57678222656,0.65759277343,0.00031835301617792766,0.017820132817616227,-0.0798281860315,-0.10852050781,-0.03088378906,0.0003594181030370976,0.018934612691563164,1.023035304645625,1.00726298942,1.04939020535,4.8093740781481473e-05,0.006926290957614167,lift down
-0.8273843383750251,-1.06225585937,-0.69128417968,0.00637254138242783,0.07972835147531748,0.5899508666953,0.38195800781,0.77514648437,0.00729188782364785,0.08528574385023989,-0.09188323974345,-0.25158691406,0.203125,0.01130953807443369,0.10621329591556607,1.0294599386309,0.86438189116,1.22635540762,0.006188636959753847,0.0785694938723323,Null
-0.7970321655237251,-1.07592773437,-0.62255859375,0.007155021178726567,0.08448155790336581,0.596605834956875,0.35620117187,0.84631347656,0.010618572754564477,0.10291757052456138,0.003491821290625001,-0.37561035156,0.47668457031,0.04666425596038104,0.21574891731009935,1.02433748105205,0.81369281289,1.28713661014,0.006236058328735249,0.07886994473760844,Null
-0.8360229492151752,-1.48620605468,-0.03771972656,0.0689531815679448,0.26226093611902046,0.44042266845342504,0.06237792968,1.05517578125,0.0349475841354957,0.18670890491660264,-0.0063104248058500016,-0.54443359375,0.17626953125,0.021034073514709376,0.1448498820535336,0.990275082152,0.56045465009,1.56406281516,0.0370166253163617,0.19215640440295192,stairs up
-0.97445526122665,-1.27294921875,-0.79992675781,0.010773044086483535,0.10366345294397311,0.30384063720355003,-0.06433105468,0.51477050781,0.007931233477006017,0.08894608138256291,-0.04226287841625,-0.21923828125,0.10571289062,0.004515316704086263,0.06711205862083243,1.0274703522474,0.82786508295,1.29534852146,0.01116246654017499,0.10552042633454696,stairs up
-0.9609344482387,-1.29272460937,-0.78515625,0.015783614672717924,0.12547571731628446,0.304102172848125,0.10021972656,0.60327148437,0.011002329626426166,0.10476079324995635,-0.04903961181455,-0.23413085937,0.15393066406,0.005987906529430997,0.07728477704637195,1.0170754735136749,0.80452485894,1.3290055161,0.016568848368340005,0.12855903798418514,stairs up
-0.9685144042935999,-1.41235351562,-0.73937988281,0.026515731612761082,0.16263284503361916,0.275953369136225,0.07702636718,0.78503417968,0.016394086468030998,0.12787924480485846,-0.037832031248725,-0.21020507812,0.10607910156,0.005205019129474335,0.07205557980927396,1.01807871458475,0.74715301454,1.43490507869,0.027179906642124718,0.16465708874967822,stairs up
-0.70324768066045,-1.228515625,0.01818847656,0.12300006757669328,0.35027498827028963,0.5653356933554501,0.06164550781,1.10620117187,0.07195202325952726,0.2679032347721439,0.17514617919710002,-0.37573242187,0.71496582031,0.04722381297561971,0.2170385989707376,1.0371155258604,0.84918843507,1.36015530914,0.010826847815398813,0.10392199332124225,stairs up
-1.004654235836225,-1.33264160156,-0.78051757812,0.019709874532520745,0.1402162609906192,0.419636535640875,0.123046875,0.85620117187,0.013487965370348309,0.115992437067778,0.13645843505545,-0.09033203125,0.41320800781,0.009877055807617078,0.09925907096128814,1.1088245730057,0.86969715259,1.37709387742,0.01756504751522196,0.13236742384904945,stairs up
-0.8463354492159999,-2.75903320312,1.03259277343,0.429487986783169,0.6545336254282212,0.9069085693330001,-0.50891113281,2.93542480468,0.47018968870652167,0.6848461246767448,0.19900207519332497,-0.25268554687,0.82678222656,0.0629597492879857,0.25060397026935893,1.4974333188386248,0.78188756676,3.00925674938,0.2970355473760103,0.5443279879884648,stairs up
-1.0891912841763502,-3.08813476562,0.49377441406,0.4203391964859054,0.6475247860079879,0.8786886596648,-0.22021484375,2.64013671875,0.3745650520623218,0.6112516989196561,0.179612731931375,-0.79418945312,1.04138183593,0.12006079055960936,0.34606450061110045,1.582045731385375,0.71235729804,3.53197273732,0.4027189612192745,0.6338076709982503,stairs up
-0.0120056152353,-0.26611328125,0.13549804687,0.004623923198260935,0.0679143827938183,0.4605944824184,-0.07702636718,1.33605957031,0.06059123480670668,0.24584498514244685,-0.8273876953095001,-1.01599121093,0.44116210937,0.08215728407143416,0.2862724067409494,1.017557911903,0.6667358889,1.35288095938,0.008462874461013254,0.09187881842329451,Null
