avg_accX,min_accX,max_accX,var_accX,std_accX,avg_accY,min_accY,max_accY,var_accY,std_accY,avg_accZ,min_accZ,max_accZ,var_accZ,std_accZ,avg_magnitude,min_magnitude,max_magnitude,var_magnitude,std_magnitude,var_pressure,range_pressure,std_pressure,slope_pressure,kurtosis_pressure,skew_pressure,Label
-1.008708534436492,-1.287109375,-0.82385253906,0.008352255576429187,0.09115111897086947,0.1643916424615707,0.07568359375,0.35290527343,0.0029936117865255255,0.05457049043564341,0.11411017772026176,-0.1533203125,0.30163574218,0.008746801522078688,0.0932791871196988,1.0339442490916753,0.82882669698,1.29669137596,0.008530073723237446,0.09211630502461567,3.407711924781678e-05,0.023384470610039898,0.005822259442082362,-8.52048407061396e-05,-0.4098103140551843,-0.13602770360799324,Null
-1.00742614745635,-1.26623535156,-0.84008789062,0.011831645507027302,0.10850109344837114,0.14387573241835,0.00891113281,0.34521484375,0.006366541683666946,0.07959088500103897,0.0969372558566,-0.08825683593,0.22607421875,0.008233582971517073,0.09051196084860547,1.0293668130528502,0.85813409339,1.28184614617,0.011766910581517121,0.10820386327950374,2.8123237167862404e-05,0.018773839600044084,0.0052898602043932215,-6.125872032095527e-05,-0.9609842822277801,0.20336868923814996,Null
-1.010942775396784,-1.35388183593,-0.826171875,0.013295830625869639,0.11501746565910832,0.13322042340296483,-0.06164550781,0.47180175781,0.011447280702755035,0.10672280299506334,0.11187958836849246,-0.28881835937,0.23901367187,0.011299750847259815,0.10603286367766196,1.036315368820804,0.84269523036,1.3857172291,0.01425384460256171,0.11908911471142039,8.092329778911783e-05,0.041004258269936145,0.00897310693413848,-6.782318642740092e-05,1.9375538011294706,1.2286532587291024,Null
-1.045620117184,-1.36645507812,-0.8330078125,0.010412483383044659,0.10178615311588034,0.1260620117164,-0.0576171875,0.84143066406,0.02836004768165192,0.16798287842290255,0.078310546872,-0.17712402343,0.21887207031,0.007528690380975854,0.08655083436380596,1.069101261516,0.84053352772,1.61440981168,0.018530462282102596,0.1357858975398111,3.823610402344205e-05,0.031049710250044882,0.006168056703964778,-4.161156084659643e-05,0.4672882203678266,0.19803048807961415,Null
-0.6263385222287563,-1.27905273437,-0.06530761718,0.19770361816608653,0.4435313045047756,0.08413924032199006,-0.19213867187,0.572265625,0.04284024756219159,0.20646334299865604,-0.4044438452263184,-1.0927734375,0.22729492187,0.2517571127860924,0.5005043354826288,1.0143057534008457,0.57327184649,1.37473974149,0.02410968735719729,0.15488621198763272,0.00024829510792857156,0.06513324519994512,0.015718136304414425,-6.992559753519582e-05,-0.38240129991928473,0.11702533926010468,Null
-1.03995117187175,-1.24865722656,-0.88977050781,0.007774667248627829,0.08795336214372189,0.04331787109125,-0.07299804687,0.15344238281,0.0048414238189741655,0.06940617191489021,0.11347290038695,0.0068359375,0.22729492187,0.0037350522078823203,0.06096209434429651,1.05109443269645,0.9030217105,1.25829607985,0.007759656347144386,0.0878684133543372,0.0001543110464800709,0.043234597860077884,0.012391105327922548,6.582739699155719e-05,-0.884660211440802,-0.4943912717133427,Null
-0.38184631347585,-1.24328613281,0.36096191406,0.33267294518186935,0.57533432059626,0.10779846191204999,-0.23095703125,0.79711914062,0.04948450628985578,0.22189430762957058,-0.6238458251931001,-1.07360839843,0.23400878906,0.180972445367932,0.42434370873278227,1.0458848835288002,0.80135459843,1.38932401364,0.012955027802088155,0.11353524854897581,0.002097758361751982,0.20921878373007985,0.04568664542230281,-0.00022948692448831155,0.6501848657182894,-0.11647756975819665,Null
-0.7470071303763316,-1.67114257812,0.24328613281,0.2594127764653259,0.5080444809994917,0.4144882125440201,-0.00439453125,1.08227539062,0.14361036243148842,0.3780062199471953,-0.025477117031306524,-0.75036621093,0.34533691406,0.07792270086279421,0.27844412276375063,1.0805200812006532,0.78758651243,1.78468871306,0.04168406293070748,0.20365312489080384,0.001111673141541327,0.09826932542000577,0.0332578839427233,0.0005595419102192026,-1.5318577733269416,-0.19210108108802126,Null
-1.005660400387,-1.17028808593,-0.91125488281,0.001751120861684739,0.041741648953728644,0.08670349120705,-0.00500488281,0.15075683593,0.0013218661254884888,0.03626646929135846,0.12127075194989999,-0.01940917968,0.25170898437,0.0034590697092290977,0.058666637543692175,1.0189967817902,0.91343528062,1.17966937373,0.0015852884779459404,0.03971601736775996,2.4173594329718297e-05,0.01688829149998128,0.004904357894573937,6.258042064584696e-05,-0.9092594900754585,-0.4699008360957099,Null
-1.0178173334877272,-1.27001953125,-0.85656738281,0.005789117891471815,0.07589387275876075,0.12012766828207071,-0.12963867187,0.41552734375,0.01595066355672367,0.12597660358126636,0.16857848504287884,-0.01245117187,0.490234375,0.02017873049040185,0.14169268756766276,1.0555385520907072,0.92551409411,1.28233603063,0.00637887050312243,0.07966588972345624,3.9591346492225205e-05,0.030134040409961926,0.006276256065267726,-7.69506162917901e-05,1.0088069906442225,0.38965654037480923,Null
-1.0663219333892784,-1.27001953125,-0.89306640625,0.011568030965399961,0.1072772200413728,0.03840810244701031,-0.14904785156,0.22534179687,0.009286711309724811,0.09611889337585194,0.1275276105384536,0.03552246093,0.19445800781,0.001444569079720558,0.03790940315213185,1.0796658723618557,0.90606274807,1.28233603063,0.011345391316032478,0.10623986971705222,9.239218209467775e-05,0.03980395659004898,0.009587279787998521,-9.078401828016062e-05,-0.1391012028779306,0.5574383097219392,Null
-1.0573451265336702,-1.31848144531,-0.7578125,0.02967200584960043,0.1717969034390652,0.0688476562486702,-0.087890625,0.2412109375,0.00999014214975625,0.09968451783385514,0.10352536464936168,-0.05969238281,0.27233886718,0.006772433356772339,0.08207563447873784,1.072162487662447,0.76741585217,1.35044851865,0.030252323064235653,0.17346874776798224,0.002023815424817337,0.16562773035002465,0.0448670307592715,0.0008110779880453404,-1.1683548040337743,0.1075242100397214,stairs down
-1.0065064789106453,-1.31823730468,-0.72119140625,0.026961750206081568,0.16375834195488276,0.0632553920927957,-0.11926269531,0.35498046875,0.008092857245573966,0.08971815457521798,0.10821664461209679,-0.01623535156,0.22302246093,0.0038591488373016744,0.061954828103007197,1.0200206854837097,0.7336427203,1.33725054388,0.02717582922763531,0.16440718542352273,0.0019288455796779426,0.13903189617997214,0.04380040458891667,0.0007980669240062019,-1.2562862723076702,-0.1946543151694747,stairs down
-0.9015619663546446,-1.47741699218,-0.07202148437,0.16418265609244428,0.40408598479572705,0.08567201374601094,-0.14685058593,0.82568359375,0.03273721419133633,0.1804392482541128,-0.08331665706333335,-1.07580566406,0.28881835937,0.18325856848300967,0.42691586470928855,1.0805279577353555,0.75743477049,1.70114307839,0.03786253105100716,0.19405059127512522,0.0007247834028290155,0.08919241983994652,0.026848144028707718,0.0004331009411399273,-0.9275949017819287,-0.5868420393744911,stairs down
-1.0557351583926922,-1.359375,-0.03784179687,0.08009671245027225,0.2822350449955186,0.08020287817565934,-0.14379882812,0.38586425781,0.021349722665852246,0.14571347397326903,0.08775983537609892,-0.88854980468,0.34020996093,0.06182737541930642,0.24796706346882882,1.122478944379011,0.67747402412,1.39154670473,0.029438025303010464,0.17110312069402966,0.00019819197167907267,0.05698495514991464,0.014039337762220664,0.00012753039798289002,-0.2881639550196833,-0.24830314527486283,stairs down
-1.0672828113923727,-1.60693359375,-0.69226074218,0.05482010595966585,0.2334745978621644,0.04842260328333333,-0.15588378906,0.29345703125,0.013238509493333016,0.11473323692107545,0.16196040783536722,0.01806640625,0.35986328125,0.007172361219992767,0.08445021850291773,1.0886427670108474,0.70722027354,1.66848625356,0.05765713698533034,0.23943974283458053,0.0014341023612689406,0.17193295243998818,0.0377624163427267,0.0006950070938203449,-0.31212364325598285,0.22950972003512787,stairs down
-1.088076869415657,-1.57409667968,-0.66430664062,0.04775500465659967,0.21790392129492486,0.05749023437319999,-0.12487792968,0.27319335937,0.010403790411625435,0.1017071294487356,0.19360142298742858,0.01806640625,0.41394042968,0.00825298936783559,0.090586033297583,1.1138192893832002,0.68041984522,1.62842890379,0.05042493338755636,0.22391246260772543,0.0008091117870784348,0.11562237763007488,0.02836350280117518,0.0005014464858356506,-0.6962880508270803,-0.49608652734046443,stairs down
-1.057410444134104,-1.23083496093,-0.89624023437,0.007519508929730923,0.08646411718276494,0.021387000992947977,-0.12634277343,0.16821289062,0.006214152061100139,0.07860173094143495,0.16161686009352602,0.01904296875,0.26037597656,0.0036273622748569274,0.06005326687919263,1.0744963710967053,0.9079153692,1.24189789713,0.007455575484157145,0.08609575873473671,7.25097069146364e-05,0.02946278705996974,0.008490616918740038,6.456262252411213e-05,-0.3300263063924893,0.8210895351371598,stairs down
-1.0406551585445294,-1.34729003906,-0.75952148437,0.018474003586567974,0.13551875507558067,0.05395220588094118,-0.078125,0.22668457031,0.006258073105494256,0.0788749701157221,0.13022030100694115,0.03100585937,0.2412109375,0.00296877973428164,0.0543260188499027,1.0544519768988236,0.78380564394,1.35776647131,0.0186097339675905,0.13601567903830694,0.0001634397248579682,0.04651881673999014,0.012746698188619076,4.656889142668817e-06,-0.6888881527682882,0.5039170280969582,stairs down
-1.0785901673404734,-1.53381347656,-0.71960449218,0.05164608571683947,0.22658439393855692,0.04542315781976332,-0.16955566406,0.22302246093,0.012927157012720038,0.1133607734597393,0.14604882234319527,-0.01977539062,0.31591796875,0.008210020003855331,0.09034068852866087,1.0980973007324852,0.72293602966,1.56532494283,0.0536023552223476,0.23083583240651154,0.001437152606415693,0.14345533264997812,0.03779747008516931,0.0007508803825840149,-0.7820449970412597,0.1361205686044188,stairs down
-1.0423532508908433,-1.46252441406,-0.69885253906,0.04455059628623732,0.2104334079944904,0.05546772048975904,-0.15344238281,0.27819824218,0.009921697914785175,0.0993072436946987,0.14244208278006026,0.00244140625,0.29077148437,0.006251571830836971,0.07882836900232598,1.0604440403716264,0.71021172922,1.47595954371,0.04596007940398331,0.21373631290860837,0.002225686408410929,0.1768225359498956,0.04703486641803791,0.0009536981278847086,-0.9954441594414427,0.034277013873342185,stairs down
-0.8513701467766059,-1.53515625,-0.09191894531,0.22034333321962196,0.4679828192133734,0.060942678740121214,-0.26989746093,0.71362304687,0.050991812338132124,0.2251283435092844,-0.13565710819230306,-1.16955566406,0.35534667968,0.2238453020422559,0.4716870401527483,1.075164353175212,0.48965034804,1.63027049871,0.07947751369029127,0.28106197143893014,0.001201281174372264,0.11616286046000823,0.03455431496074508,0.0006424431692463507,-0.8675045992513724,0.5434994517849553,stairs down
-1.0610366632864199,-1.337890625,-0.96911621093,0.00802137170303427,0.08928525669388022,0.08799310377765432,-0.2275390625,0.26965332031,0.00993188251466889,0.09935076546213258,0.16940043884679012,-0.11059570312,0.56066894531,0.020157598379823446,0.14153857693291572,1.0897939396048149,0.98942744466,1.45371046372,0.012540274556808681,0.11163720461658899,4.165199733737687e-05,0.030960255900026823,0.006433885780980395,1.6865868046356097e-05,1.213177834572459,0.7636694183153128,Null
-1.0137039184539376,-1.16381835937,-0.94665527343,0.0027744654753833506,0.052508333302078866,0.09097290038681251,-0.24670410156,0.23266601562,0.010520588863793246,0.10224888842131506,0.126024627682875,-0.10461425781,0.34594726562,0.009805660595447003,0.09871360198435401,1.0362153805855627,0.97161663368,1.18249997503,0.0030572831590554507,0.0551196438605272,7.269815876387902e-05,0.030758120740074446,0.008499635008140336,0.00016260971809102152,-1.131197696032477,-0.06697042311033308,Null
-1.0379500479027672,-1.134765625,-0.94543457031,0.0029578408828181534,0.05421474070739655,0.04413264052534589,-0.22924804687,0.31811523437,0.01695845432205471,0.1298144729089672,0.1428629557255346,0.06494140625,0.39526367187,0.004109130378489717,0.0639006008673128,1.058234320095157,0.95424889917,1.2148463565,0.003735757401057888,0.060928335538495436,8.289426722383758e-05,0.034919882319968565,0.009075952822223947,0.00012335330079435406,-0.7537141767807896,0.2793813763905909,Null
-0.9974497412380893,-1.025390625,-0.97094726562,9.663108443149244e-05,0.009798755013637146,0.07513622113503185,-0.00476074218,0.20349121093,0.0016461854571002404,0.040443790616257816,0.13174885548923565,0.07690429687,0.15905761718,0.0003592947070069433,0.018894607846907743,1.00989229966,0.9841653964,1.0407832389,0.00011620419015822639,0.010745419306885398,1.0194604792074171e-05,0.011545336739914092,0.0031827144081097857,3.4962389356241863e-05,-0.8833308957842778,-0.27146738345925203,Null
-0.9997879419530128,-1.00805664062,-0.98913574218,1.8796442436608367e-05,0.004321568282578569,0.05448326697365385,-0.00561523437,0.19348144531,0.0018533862720054657,0.04291276722345765,0.1395161946573718,0.09643554687,0.15783691406,0.00019683721726917504,0.013984828931216794,1.0119519707505769,1.00015063194,1.02145337555,1.8206411928065637e-05,0.004253199285161229,8.894800356795502e-05,0.026557143939953676,0.009400948040378908,-0.0001707355473218769,-1.612097444954762,0.33389684071309084,Null
-0.9974656627985804,-1.00903320312,-0.9853515625,3.0652478885521465e-05,0.005518579614106131,0.03023957283012903,-0.01440429687,0.07397460937,0.0004620899501744569,0.02142682255233987,0.13960275957219356,0.11975097656,0.17028808593,0.00010376803834868268,0.01015374645800898,1.0079217824841291,0.99557557185,1.01945670721,2.7631380494896777e-05,0.005239571883652514,1.1726687025988084e-05,0.016027576320084336,0.0034133606578647863,5.392640076414529e-05,-0.5981050992376802,0.2394284974467214,Null
-1.0010496440650656,-1.03674316406,-0.97094726562,0.00019606380666335697,0.013956142489902661,0.0531704551280921,-0.10363769531,0.19091796875,0.004482643612281971,0.0667319453926332,0.13405809904052632,0.01025390625,0.26770019531,0.0024218348751538603,0.04904999236468051,1.0147687540538817,0.98522062915,1.04902500741,0.0001985714850306508,0.014045109244208993,8.136009755889764e-05,0.03884115919004216,0.008990263275297785,0.00016537410200067812,-0.03710913819537298,0.0909796387380214,Null
-0.9981456638574226,-1.01525878906,-0.98071289062,3.67915030711068e-05,0.006049946788861854,0.05945893906680411,0.02709960937,0.11474609375,0.0003886551368069082,0.019663462559098236,0.14013797720216498,0.11315917968,0.16247558593,0.00012893812482789034,0.011325788949051991,1.0099446877288145,0.99588723379,1.02619261123,3.220521118584126e-05,0.005660318448869752,1.5882745337345802e-05,0.02204188055998202,0.003975031511324064,3.031495800852553e-05,4.505432562906802,1.5542058997442119,Null
-1.0068267112520348,-1.2041015625,-0.87829589843,0.0020796538112309755,0.04547046074871645,0.037467069401337205,-0.16320800781,0.11535644531,0.0026031581945639903,0.05087262086720047,0.13096867050889535,-0.04162597656,0.25061035156,0.001855096631878539,0.04294544430256091,1.0182120809517443,0.91787905965,1.20429030251,0.002012355921928402,0.044728695243615814,8.435296799787953e-06,0.016842739550043007,0.0028959030329990974,1.8181549845437818e-05,2.937402353418374,0.8950981449643929,Null
-1.04364440917625,-1.28198242187,-0.82958984375,0.011360877105024996,0.10632061286269878,0.040704345702199995,-0.09838867187,0.16381835937,0.005202340832113776,0.07194671033447747,0.16900573730114998,0.05615234375,0.283203125,0.004452814708001466,0.06656238152636561,1.06274144223035,0.85374714659,1.28512621905,0.010959814321723018,0.10442708101883535,7.587857119560279e-05,0.030705995390007956,0.008689026317121198,3.2775328585721495e-05,-0.8592250130426069,0.14219732678945157,Null
-1.0878668063985977,-1.23962402343,-0.91040039062,0.00782779405415434,0.08820466882543473,0.04335282488439025,-0.16259765625,0.22204589843,0.009801166050427322,0.09869854529223196,0.14245456602146342,0.01794433593,0.30847167968,0.005877477074649168,0.07643061428383097,1.1049734588272562,0.93554936769,1.26478726129,0.008072945076597997,0.08957521868095379,7.38869298945054e-05,0.04135271635004756,0.008569504059989297,-5.541938072164853e-05,0.15276518461197064,0.5814015178061146,Null
-1.022733918909725,-1.25231933593,-0.86206054687,0.005881005133803899,0.07647674103139462,0.03930865277192308,-0.21411132812,0.22766113281,0.0072628668778503625,0.08498800512945431,0.1637177519717033,-0.07080078125,0.34899902343,0.008155688427046587,0.09006040723965612,1.0439733475395603,0.8779142843,1.25254553646,0.005666656368761998,0.07507010652855343,0.0003282242972445469,0.06951900744991235,0.01806712116082434,-0.00030433278772571597,-0.3183728526303362,0.44202874056721375,Null
-0.9994287648874034,-1.17395019531,-0.90856933593,0.0015473159994516142,0.039227124445622104,0.05452294112198895,-0.00744628906,0.16870117187,0.001586142933370122,0.03971623991195249,0.17154116129635358,0.02770996093,0.25439453125,0.0014589941560330497,0.038091119894793024,1.01723122429442,0.95479670085,1.1744499083,0.0010706089180313831,0.0326296483528925,2.1131948038391234e-05,0.01856181042001026,0.004584233517640269,7.151463501862516e-05,-0.4948693534687507,-0.2839056006609221,Null
-0.9919156733211341,-1.00720214843,-0.98095703125,3.373098037868117e-05,0.005792849846647276,0.06863057244360825,0.04772949218,0.103515625,9.96952129024661e-05,0.00995898187830731,0.1790664515506701,0.16845703125,0.18981933593,2.5067266888308958e-05,0.004993801575191974,1.0103427324254124,0.99787523619,1.02691987579,3.708319180621771e-05,0.006073881899822368,8.073940549266048e-06,0.010816787130011107,0.0028341351942015925,1.9122800572163505e-05,-0.6658527680334463,-0.3937552871111992,Null
-1.0093095653512183,-1.05310058593,-0.9814453125,0.0004669397669141718,0.021553874693201733,0.03679397505279188,-0.13439941406,0.11901855468,0.004871375848313102,0.06961787164319785,0.18821507177639593,0.16174316406,0.23583984375,0.00020563997937632234,0.014303710064629762,1.029800968666142,1.00192707615,1.08064393852,0.0005128906821696591,0.022589536873712082,2.2138644395587933e-05,0.02456473996994646,0.004693214835273,-5.048230561672613e-05,1.629271288167434,-0.8788683167537109,lift up
-0.9989391347949723,-1.05932617187,-0.96936035156,0.00042239598712773713,0.020495421626325318,0.07158445916436464,0.02819824218,0.17529296875,0.0010136814654473985,0.03175029157916591,0.1795937553918232,0.12634277343,0.21630859375,0.00016852652482999845,0.012945865712939287,1.0180294208375689,0.98603320103,1.08658353538,0.00047209210672137037,0.02166757630741904,0.014530320015451613,0.39428689468002176,0.12020832751650994,-0.0022962503656045793,-1.28320956365325,-0.05992226442936708,lift up
-0.9912921046671728,-1.00280761718,-0.98059082031,2.312617513253318e-05,0.004796362755419726,0.040972804519790566,0.00415039062,0.07836914062,0.00035307560289908905,0.018741052252558427,0.18259673592575915,0.16650390625,0.2001953125,5.481091288763451e-05,0.007384033095628212,1.00900100064911,0.99784384676,1.01981544187,2.6249658563598e-05,0.005110012308815833,0.015582000996219413,0.4230545100100471,0.12450068208315625,-0.0022544597030434055,-1.1864294253321541,-0.08771924343214296,lift up
-0.993846386150231,-1.0087890625,-0.98193359375,3.5030885252020304e-05,0.005901558657322966,0.041860944270404626,0.02221679687,0.07104492187,9.513334680388022e-05,0.009725401948769493,0.17962964007936416,0.15258789062,0.19470214843,6.589511218261868e-05,0.008094085221963443,1.0108692054234103,0.99771131932,1.02500240424,3.2080261834853235e-05,0.005647550512863556,0.01699885139743295,0.4349122665099685,0.13000227744466783,-0.002598020120105491,-1.2683203511835865,0.10066806088247274,lift up
-0.9791253407761981,-1.01245117187,-0.92834472656,0.0003706573343701189,0.01920226099760845,0.06295267740489584,0.00170898437,0.16479492187,0.001488299243924166,0.0384778856664716,0.19835344950010414,0.1650390625,0.25939941406,0.000644067467729641,0.025312308264331587,1.0020445758176042,0.94984574665,1.02864100137,0.00039226203958240126,0.019753961833673846,0.013815681421287187,0.4034673319399644,0.11723363317417908,-0.0021106884243407413,-1.1670983241863138,-0.11629710914280128,lift up
-0.9782387181293157,-1.04431152343,-0.92663574218,0.0006548761777619722,0.02552311620936811,0.08372417248810528,0.04858398437,0.13232421875,0.00041908701498729147,0.020417671117338027,0.18864746093394735,0.11071777343,0.26965332031,0.0013125521165976294,0.036133695459541704,1.0006167819440002,0.95897744481,1.0595162725,0.0006922450127463547,0.026241219825732694,0.0008560288961314015,0.12548998996999217,0.02918087525912485,-0.00045687583347805364,1.3078123552385454,1.4471225548241835,lift up
-0.9938599322436157,-1.09265136718,-0.89074707031,0.0008700059159336726,0.029412423026215138,0.0863257801438418,0.02026367187,0.17248535156,0.001096481306149277,0.033019486617905124,0.18196959414350286,0.09912109375,0.28344726562,0.001799009022891341,0.04229474116372678,1.0155054065371751,0.93196042088,1.1219256966,0.0008202642392161758,0.02855923629892204,4.220330223523284e-05,0.02964408093998827,0.006478029445706508,-7.50201823806155e-05,0.3176156164635664,0.6981559226681544,Null
-1.0029770068863482,-1.18786621093,-0.85888671875,0.005451024946941126,0.07362337408244853,0.10131150148977529,-0.05725097656,0.27954101562,0.004415270251557508,0.0662605867956496,0.15287249275415732,0.0283203125,0.28894042968,0.00497451419901155,0.07033183838083816,1.0238915019235393,0.86654468286,1.22414326048,0.006034423325421001,0.07746303680326382,0.00010826914016383161,0.04026683721997415,0.01037597641513345,-0.00017048656135527777,-1.2471922257836965,0.003740622898093784,Null
-1.0085035754754301,-1.18505859375,-0.89147949218,0.004234839263890728,0.06490047234696414,0.07916062877725806,-0.091796875,0.22827148437,0.0057733900198573655,0.07577829694950798,0.16533439389736557,-0.10791015625,0.28771972656,0.006768734333499509,0.08205085794003465,1.031095285908656,0.91412714379,1.19419068321,0.004233364992767533,0.06488917448946856,3.2709435791727074e-05,0.02432854401001805,0.005703821404115939,2.1772571906881357e-05,-0.4930471069916589,0.29190829358820436,Null
-1.01614331949089,-1.26428222656,-0.81872558593,0.007468600134639136,0.08619453298285903,0.09338634550664923,-0.18371582031,0.26928710937,0.011207732864909323,0.1055890791476567,0.15740231818387435,-0.07116699218,0.44738769531,0.017002012623728215,0.13004997828077142,1.0460280713868586,0.82329791729,1.26628967774,0.007399306740382297,0.08579374636018887,4.450476037021582e-05,0.025915340310007196,0.00665370206378508,-3.7625433496601225e-05,0.10533534316340631,0.789681176602271,Null
-1.0362527781475863,-1.26257324218,-0.81872558593,0.01043367583538532,0.10185142208707233,0.05234922211660921,-0.1923828125,0.2705078125,0.011009605530688348,0.1046247195249975,0.21522329045132188,-0.23522949218,0.71765136718,0.02947288811202884,0.17118266179024058,1.0762499316621263,0.82329791729,1.43924459554,0.01527876744793089,0.12325160623541362,4.297912915255538e-05,0.022527089950017398,0.00653698115823909,-5.560198395317932e-05,-0.7779023724188021,0.3994726113942996,Null
-1.001236476250899,-1.10473632812,-0.94543457031,0.0005965556151956141,0.02435578327944288,0.044020749206910105,-0.0693359375,0.20043945312,0.004146928842758229,0.06421550817138354,0.1651727912096629,0.00634765625,0.310546875,0.001913458898265691,0.04362005420875025,1.0186786672880899,0.97553699817,1.10530606747,0.0006055888316331953,0.024539491583686443,3.0412955414770454e-05,0.0207993925299661,0.005499281418029766,7.657319192174208e-05,-0.685510539332904,0.09938499253546013,Null
-0.48934604810576093,-1.38830566406,0.05163574218,0.25894647387368863,0.5074831584209439,0.08390277364690217,-0.03271484375,0.69006347656,0.02160432533950508,0.14658414146106438,-0.49244623598695647,-1.09094238281,0.16918945312,0.29258527238806525,0.5394396491157561,1.0202984765863587,0.67014749358,1.56372557258,0.018113187116183455,0.13421902205669795,0.00015658923946745157,0.04592697528005374,0.012479511648781975,-0.00018045030399074511,-1.1897471434168214,-0.47657226282160625,Null
-0.9896149032381034,-1.0185546875,-0.93200683593,0.00038022354407950027,0.019443208359152923,0.05779888985804598,0.04528808593,0.09631347656,8.51181439840522e-05,0.009199399939589086,0.13169773145252875,0.10729980468,0.15100097656,7.694631985711141e-05,0.00874666219926479,1.0000692024066091,0.93959646261,1.03021744851,0.00041016815215104435,0.020194327518397122,3.1059660346258145e-05,0.02286602835999929,0.005557081657773683,8.809336992290311e-05,-0.5863287887430708,-0.6702233360911207,lift down
-0.9988823925235233,-1.06005859375,-0.94982910156,0.0009414523635640435,0.03060350261069779,0.05366539831212435,0.0341796875,0.0849609375,5.5043580933306656e-05,0.0073998906094683466,0.13505024489595854,0.12145996093,0.15002441406,5.675361624934987e-05,0.007513957416803039,1.0094676663046633,0.95956734148,1.07049148343,0.0009644041418594452,0.03097429949502206,0.009864447226414235,0.34127126807004515,0.099062283947468,0.0017623809736499417,-1.1245169736041158,0.3254988345126541,lift down
-1.0162175210638202,-1.06005859375,-0.99072265625,0.00039465836567367357,0.019810128314678987,0.05491723906764044,0.03869628906,0.07360839843,5.255399808110059e-05,0.007229021434528306,0.13448170865174158,0.11633300781,0.14636230468,4.637082258793933e-05,0.006790457447674733,1.0265935882035393,1.00190586774,1.07049148343,0.00039793371267419543,0.01989216252745594,0.001303470077079811,0.1234854271799577,0.03600204454580654,0.0006494537560702121,-0.18942329904757216,-1.0069984427955228,lift down
-0.9948371073885787,-1.01782226562,-0.96911621093,0.00013943373274371182,0.011778197964812455,0.059894387487817245,-0.00756835937,0.15710449218,0.0015415072233123793,0.03916225623670542,0.17740224460299492,0.12121582031,0.26379394531,0.002281678395323146,0.047645527297837914,1.0141801866742133,0.99119227349,1.04146569777,0.00014153622703733042,0.011866666298167518,0.00011292773825372348,0.034970899040104086,0.010599740610208562,0.00016616965614975023,-1.5094036564731796,0.2407452313631,lift down
-1.0165020170621428,-1.22692871093,-0.85375976562,0.005747085317144579,0.07558357279178525,0.07401820591214285,-0.09423828125,0.26354980468,0.005018109205186822,0.07062746992167354,0.14491707937684523,-0.01086425781,0.26599121093,0.0059641359326913996,0.07699763063606721,1.0347598817951786,0.85485880806,1.24361799752,0.005691622230480818,0.07521797342874877,4.6641467448771954e-05,0.029046298429989292,0.006809099769157358,-9.020571596103965e-06,-0.19422585580917495,0.27638246150514345,Null
-1.0261878188734692,-1.36254882812,-0.87231445312,0.009718000798368414,0.09832811989274505,0.06467359892933673,-0.08325195312,0.23693847656,0.004609432023899247,0.06771938063489084,0.17277495714688773,0.01232910156,0.34106445312,0.005343337839175775,0.072911425108997,1.047062078347908,0.90621103827,1.40776925671,0.010379670996600601,0.10162043835526348,6.43693226382432e-05,0.032780860260004374,0.00800255632450179,-1.625270012914422e-05,-0.0989015762515919,0.515736098871705,Null
-0.9829913165080539,-1.00073242187,-0.97082519531,3.303694511467683e-05,0.005732221823427272,0.012179977825405407,-0.05578613281,0.07495117187,0.000458608333840558,0.021357185438953614,0.23743929475929731,0.19714355468,0.34191894531,0.000992753020502544,0.031422711340036956,1.012029305693027,1.00110847162,1.0424706559,7.114238212204434e-05,0.008411767275975271,6.408211009861978e-05,0.026618908590080537,0.007983465432649089,-0.00014011427721406252,-1.3660505314469178,-0.009499866953176615,Null
-1.0147963814082064,-1.19580078125,-0.82836914062,0.00578776040479448,0.07587031820945003,0.053320179813586964,-0.07385253906,0.19982910156,0.003845315125852811,0.06184186829391454,0.14077626103548913,0.00024414062,0.21813964843,0.0028483603396708673,0.053224807378078186,1.029180039895598,0.83554646446,1.20579708298,0.005705749932630846,0.07533087296804292,5.8383488428380436e-05,0.03414722220998101,0.0076201172471842505,-6.306191299202755e-05,0.11293179732207648,-0.6197598401509035,Null
-1.0610254681260847,-1.47131347656,-0.67956542968,0.053190606532152386,0.23001994424736086,0.05436456266449735,-0.17431640625,0.31127929687,0.012058420007000128,0.10951994723766957,0.15699533936582014,-0.02709960937,0.33618164062,0.008417202903321827,0.09150228105476325,1.0824577750317987,0.68594716006,1.51790526508,0.0552319450881855,0.23439221952635586,0.0012607257641494287,0.1427167751099887,0.035412642621820915,0.0006006652105430413,-0.6983991956431059,-0.011129953765817395,stairs down
-1.0021638569037894,-1.40454101562,-0.6806640625,0.03940338462172035,0.19797979287510425,0.0858886718721579,-0.04748535156,0.27990722656,0.007104698753708559,0.08406726831753991,0.11416593852542105,-0.14001464843,0.29846191406,0.009040336079898334,0.09483013953215687,1.019575982830053,0.69477604949,1.43284716902,0.04067809136697842,0.20115664579938064,0.0022531311676644923,0.15471057436991487,0.04734208046306712,0.0008351366233823367,-1.1889443902199859,-0.008263031519798847,stairs down
-1.019014002909322,-1.37622070312,-0.70349121093,0.030608542266314268,0.17445805412473928,0.08159607278112994,-0.08544921875,0.44030761718,0.010321722069413349,0.10130847573358244,0.13202145678531071,-0.0283203125,0.27917480468,0.006295102917730396,0.079117238099689,1.0377492512010735,0.71691172248,1.38769432996,0.03269689941458746,0.1803113173633516,0.0012685845258207874,0.138053155839998,0.035516438188634716,0.0006638245127790108,-0.7744699460453135,0.07447187111235282,stairs down
-1.119118555787401,-1.58752441406,-0.78991699218,0.01635766166638727,0.127535271587042,0.029509291136327685,-0.16467285156,0.2255859375,0.011555263606533528,0.1071913225562376,0.1787336963680791,0.02868652343,0.40698242187,0.004761543704661286,0.06880873729257639,1.1405776698515255,0.79853120429,1.63909618353,0.01691086247604069,0.12967390207798507,0.0002551603165973204,0.07517767705996903,0.01592855087218329,0.00013005468565957328,0.38292934802347833,0.2628514253574527,stairs down
-1.0769531249960542,-1.26428222656,-0.88549804687,0.008676425626672249,0.09289524222849217,0.02316696579254054,-0.17004394531,0.15747070312,0.0075281963194274645,0.08653036095122613,0.16487542229372973,0.06762695312,0.24609375,0.0016700712515419073,0.04075590557663282,1.0941855613508649,0.90773898334,1.28323407186,0.008128615647681251,0.08991483295163714,0.00020962570443230834,0.05943943201998536,0.01443927257573795,-0.00017250617481074398,-0.5755065858552326,0.2623876158814655,stairs down
-1.0558141072559895,-1.39892578125,-0.69067382812,0.031599134668534416,0.17729792960476387,0.03699111938447917,-0.18774414062,0.25671386718,0.01004969994138228,0.09998678789813972,0.15766143798458335,0.03479003906,0.27075195312,0.004159010927156573,0.06432223108623461,1.0735865723940103,0.71004871733,1.41972471964,0.0316542763703865,0.17745255801938745,0.0004501476084475507,0.08485731094003768,0.0211613584075681,0.00026053608649950717,0.02317156078202043,0.8815590498446662,stairs down
-1.0387839832492527,-1.39758300781,-0.67919921875,0.045243684714745956,0.21209352545097748,0.06686576755500001,-0.20532226562,0.27429199218,0.015366180381293658,0.12360367712892675,0.1530144351621839,-0.05480957031,0.31616210937,0.006974717396996043,0.08327444274358542,1.0619345695479885,0.69624939493,1.42896386369,0.04671623153296751,0.21551739475897896,0.0024669140867892643,0.16896408303000499,0.04952510898144302,0.0009354409114339753,-1.1475192249719641,0.35113796150397764,stairs down
-1.0568355091794737,-1.48181152343,-0.72497558593,0.04074886539038334,0.20127237250045035,0.03281763980152047,-0.21276855468,0.32006835937,0.01523979505442704,0.12308807190756388,0.18800755550614034,0.04736328125,0.36694335937,0.005676940323449903,0.07512484171049028,1.0831046369223976,0.73824009452,1.51247106358,0.04175866327791552,0.20375097685333424,0.0017752270238477908,0.1479990599799521,0.04201006521375426,0.0008154150601900199,-1.0399323235154856,-0.08998772073991385,stairs down
-1.0953985916905262,-1.70727539062,-0.68115234375,0.05860987632763278,0.24145683526114858,0.017892937910210537,-0.21789550781,0.19494628906,0.012121740023483905,0.10980865809116036,0.1719771535733684,-0.05236816406,0.38818359375,0.008532013680274887,0.09212550322856068,1.1172255692467894,0.69706433593,1.75124065239,0.06076768362261179,0.24586145226287218,0.0012000145743378669,0.11193051339000704,0.03454994512524067,0.0005820140933078175,-1.311680610273342,0.10832045146914014,stairs down
-1.0550976304113755,-1.27392578125,-0.86694335937,0.009056266598157604,0.09491232714284271,0.009380683696984127,-0.21484375,0.14416503906,0.004240352782883319,0.06494549294503318,0.1447786199947619,0.02612304687,0.24243164062,0.0037351663496003927,0.06095411031818832,1.0689959726577776,0.88464932382,1.27926239666,0.00851418523390268,0.09202791225917006,0.00014010958323293699,0.052857436640010746,0.011805433608585962,3.701182965560843e-05,0.39848142206882686,0.8161591348182755,stairs down
-1.0847031577301676,-1.23486328125,-0.912109375,0.008088668056179991,0.08968545013813925,0.02812390886821229,-0.15148925781,0.15771484375,0.007971691835760695,0.08903458454162327,0.1341307229801676,0.02624511718,0.21545410156,0.002702806669063829,0.05184310166710425,1.0987446125262013,0.93409468168,1.24549636751,0.007705506236771616,0.08753547118680402,8.873726044389489e-05,0.03525607714993839,0.00939369584129343,-3.462648452576514e-05,-0.6383777320518917,0.4799803860406017,stairs down
-1.1491620968515384,-1.63830566406,-0.75964355468,0.041600460906269975,0.20330713535209713,0.030453412959487176,-0.24609375,0.43774414062,0.02586710500022628,0.16031621946822414,0.1504806127270513,-0.02758789062,0.33654785156,0.008121837937220776,0.08983192569193117,1.173492549306731,0.80056113962,1.67046524041,0.042437478227507666,0.2053422584629493,0.0005188219813962175,0.0803607111099609,0.022704541384141422,0.0004535338025155993,-0.9279662032728964,0.515966648787515,stairs down
-1.0991951861743783,-1.44116210937,-0.71704101562,0.045862753089409854,0.2136225179808241,0.06666375155308457,-0.14038085937,0.35107421875,0.016365669636644594,0.12760975039028655,0.17354329426641793,0.04333496093,0.361328125,0.004852787156978831,0.06948844463140882,1.1235384117856715,0.72968818656,1.45486840394,0.04743629931642916,0.2172562952535385,0.0019796490441135427,0.17980846261002625,0.04438242945011091,0.0007083933373352923,-0.227823975866968,0.5407856677310722,stairs down
-1.0848590998312708,-1.62377929687,-0.68994140625,0.058330402028682705,0.24084877955713124,0.06873570226121548,-0.19519042968,0.45703125,0.024643419993140916,0.1565479750794181,0.1706489014983978,-0.04516601562,0.39794921875,0.008925863740060125,0.09421544234227423,1.1152108382807182,0.72380598212,1.67186679125,0.058786436652987405,0.24178843998453114,0.0027003021254772613,0.1769378329400979,0.05182068437606654,0.0009535541946769797,-1.2139020802746432,-0.07506306166953092,stairs down
-1.2168698588339153,-1.7607421875,-0.67651367187,0.07608779214122774,0.2751094531825971,0.06774837756253968,-0.27124023437,0.64855957031,0.04915497507307021,0.2211219026688206,0.14218672494820106,-0.31994628906,0.48791503906,0.0330291029731988,0.1812576779466471,1.2583842495093651,0.73512105381,1.83172003292,0.07990547451198003,0.28192675329517214,0.013773810513465915,0.6085032015799925,0.11705098551127993,0.0005064641957412115,15.370873972816451,3.9741395029965765,stairs down
-1.0862338595880556,-1.27319335937,-0.90808105468,0.01091023231184142,0.10416150877415788,0.047646755639944444,-0.11450195312,0.17895507812,0.006508532291782923,0.08045106449917737,0.18489244248805556,0.05810546875,0.34765625,0.006484344479069215,0.08030143425290974,1.1088774967528334,0.92461332861,1.29104109838,0.010579210949724483,0.1025691842395139,0.00015349357999080003,0.048082656409974334,0.01235479007833561,9.736783880148295e-05,-0.86862923474275,0.4341411976124306,stairs down
-1.0583213888149463,-1.28466796875,-0.92138671875,0.008142000199748829,0.08999014393324706,0.021953623781075265,-0.11450195312,0.16101074218,0.006044188743673903,0.07753510885571165,0.18123831799973117,0.09118652343,0.27331542968,0.003093571335556354,0.055470165238637514,1.0781399553693012,0.94262500082,1.29903161312,0.00821873324754119,0.09041319875798656,9.205862559068466e-05,0.035572490280060265,0.009568891615198853,1.5476684067897817e-07,-1.0504158469295537,0.4332719921487866,stairs down
-1.038673281042251,-1.40698242187,-0.69470214843,0.02853780131719912,0.16848854188002746,0.05420241430696335,-0.10229492187,0.294921875,0.009039827150837426,0.09482878367286447,0.14786229957104713,-0.14245605468,0.27893066406,0.008101031588831836,0.08976980456077553,1.0583739466905235,0.71193618635,1.42216765881,0.028445008046463438,0.1682143908908054,0.0005600076913031531,0.11059369052998136,0.02360245143754723,0.00022161054480394508,4.721218272682944,1.9953996777847507,stairs down
-1.0841389492373965,-1.48815917968,-0.66418457031,0.04601676008311054,0.2138795725680896,0.034899107802366866,-0.26342773437,0.25341796875,0.014235072021932341,0.11895730673874678,0.1607680461783432,-0.01062011718,0.35571289062,0.007353087973779853,0.08549607346238362,1.1057938373959764,0.68661464774,1.50641146482,0.0471253017342289,0.21644041626963553,0.002031490314474934,0.18129394423999656,0.04493850978533402,0.0008754761814064371,-0.42447420741527386,0.5174062026057838,stairs down
-1.0589974721234896,-1.38012695312,-0.70520019531,0.0450138840431561,0.2116115231513429,0.08428064981984373,-0.16711425781,0.72485351562,0.035460859768620276,0.1878195085465264,0.20082664489385416,0.07580566406,0.37561035156,0.004768634913615056,0.06887523701186063,1.0975064978636457,0.72049570587,1.44151047844,0.04944663971900733,0.22178616985091182,0.0030018904151595314,0.22537736564004263,0.05464664279941854,0.0009259686103558463,-0.3369773008577148,0.29522407713912424,stairs down
-1.0784554317045976,-1.56457519531,-0.63903808593,0.056532484951832836,0.23708139027141967,0.04926729750298851,-0.1572265625,0.24230957031,0.012381192045451484,0.11095060058119649,0.16752326351149424,-0.06628417968,0.39709472656,0.011393100851208562,0.10643130770647169,1.102435880889138,0.65985185049,1.59888594201,0.05837328038450106,0.2409103604281095,0.0026328533871571064,0.17716172795007878,0.051163678971039656,0.0009677014413291683,-1.109614676675988,-0.07609679040872162,stairs down
-1.0405918866693102,-1.25048828125,-0.92041015625,0.004756443362489283,0.06876850646259279,0.03935083849545977,-0.22509765625,0.39392089843,0.012256955668394395,0.11039254229538381,0.11337666127649426,-0.29748535156,0.45593261718,0.018136984497042635,0.13428607133264486,1.0609899674863217,0.92127395691,1.34523126554,0.006520362483768516,0.08051639048144577,7.559419305624385e-05,0.03478110737000861,0.008669471937255644,-7.547525749754137e-05,-0.5372980577565918,-0.2134717031662858,Null
-0.2563602613353804,-1.05773925781,0.27746582031,0.1493612527047358,0.38542120694912874,0.3329626995560326,-0.59045410156,1.1083984375,0.18644761932090656,0.43062085068188305,-0.6742354683220652,-1.25146484375,0.0732421875,0.10203709588527271,0.31856325345386843,1.0166137685912502,0.61944790263,1.43212312631,0.033322123900919466,0.18204676707224973,0.017752514989479436,0.6520493781599725,0.13287600960953788,-0.0008392950762614427,10.226900074725924,3.1314208502254055,Null
0.03784506078598927,-1.60083007812,0.69396972656,0.35769783255333626,0.5964771663017464,0.2994051846564706,-1.15905761718,1.64465332031,0.29801376316587436,0.5444447691716363,-0.2443220985119251,-0.98034667968,1.97875976562,0.480509118900986,0.6913317231403692,1.0634613543102676,0.46877512864,2.49183549756,0.15076987296044725,0.3872513614634701,0.48009337837855076,3.8009054139399723,0.6910325854177549,-0.0028970537601666242,6.139620959650506,2.3396726872332336,Null
-0.26401310078526313,-1.43176269531,0.72412109375,0.6112010727716742,0.779504199791321,0.48171158282771925,-0.05200195312,1.06958007812,0.13309948035687963,0.3637597020323016,0.07252047354555556,-0.54406738281,0.41235351562,0.05198574343759791,0.22733616791451464,1.02957120966,0.56155234884,1.72072483529,0.038848143421267176,0.19652216489749091,0.041544983784654155,0.9018961987600278,0.20322901038755878,-0.00038914014924875187,2.4112822175672486,1.4210775416789427,Null
-0.8396705959126087,-1.55078125,0.52893066406,0.21239832912993997,0.4596128701251397,0.21234064516451087,0.068359375,0.84191894531,0.04961013549608531,0.22212725000430755,0.12600907035141304,-0.13635253906,0.69421386718,0.019459084893434998,0.1391162427514308,1.000686440309837,0.25936945484,1.73999462338,0.04482162357324861,0.2111350937029636,0.10662177022810708,1.2246533834099864,0.32564137342414434,0.003958978135405665,2.4120682385207264,1.9948932338988294,Null
-0.04416828486190744,-1.134765625,0.74340820312,0.3979304994908957,0.6289915128149668,0.6817965645295375,-0.52563476562,0.9912109375,0.12331611876820119,0.3501475529446477,-0.13063851946213872,-0.91589355468,0.53564453125,0.07948434497443799,0.28111367432706097,1.0311524628218494,0.47938907858,1.24683552371,0.017950705198095843,0.13359245448891469,0.11658742425585804,2.295754251130006,0.3404607297600038,0.0017619924955005564,15.382939815321386,3.1931048627120977,Null
-0.6243146260551041,-1.12561035156,0.28479003906,0.06536328507585312,0.2549957868267952,0.7336800893107291,0.19311523437,1.44750976562,0.04384406284426153,0.20884374146782805,-0.1617806752499479,-0.41943359375,0.29797363281,0.01900709446690541,0.13750672413821663,1.032207493302396,0.4277509747,1.4921134461,0.016408020686709778,0.1277597833656318,0.0061262410306022665,0.37003068144008466,0.07806621244324939,0.0002894153251281686,5.309437083081379,2.4213723098545428,Null
-0.2698160807278787,-1.79150390625,0.88330078125,0.49742257837073023,0.7031414481294459,0.47714029947660613,-0.37719726562,1.48120117187,0.19347546197291457,0.4385235266385407,0.002038944128727289,-0.96179199218,1.24108886718,0.3809311924550878,0.6153231009489409,1.1069062359500608,0.53080646849,2.29059948926,0.14206712053148976,0.37577401144808265,0.8238116401360037,4.161463464600047,0.9048860935592931,-0.004677022616716847,3.6552191798460436,1.9926391117744193,Null
-0.2619979533743085,-1.39807128906,0.85461425781,0.6375474915801143,0.7963393004985487,0.4796532164194148,-0.22119140625,1.32958984375,0.09507991483918635,0.307529137824887,-0.052075974483510645,-0.68676757812,0.48120117187,0.05508387573716118,0.23407451035542876,1.014453319770798,0.30958179248,1.55291601594,0.05612637780751836,0.23627914263580782,0.007759919506954598,0.32128832556998077,0.08785580993516828,0.0010175715272575253,-0.8726458276443285,-0.47074915234137776,Null
0.10066378846168368,-0.10754394531,0.20849609375,0.0060509587922384,0.07758921673468866,0.9629697215759695,0.72473144531,1.23168945312,0.02326722501999123,0.15214635943149143,0.27941707688586737,0.08093261718,0.46862792968,0.007927123167272442,0.08880697417048376,1.0142211954341327,0.8189006281,1.29155181622,0.02405114238064031,0.15468817818610123,0.0007759709140461305,0.0997102505799603,0.027785101741227888,-0.00048168951820995296,-0.9646400591910154,0.13857997112438405,stairs up
-0.25067944796522007,-1.64086914062,0.15771484375,0.26941783339799125,0.5174199277333779,0.7789483220284276,0.1611328125,1.2060546875,0.10052962503783425,0.3160654413964669,0.3053799995057862,-0.02600097656,0.75927734375,0.02950909611126524,0.17124107075063305,1.0574195884840254,0.54503202521,1.7005549866,0.041929388028208676,0.20412173129107045,0.0018286676733174796,0.13827026195997405,0.04262823734062098,-0.0009054296600243476,-1.245871415579161,0.08921635574380066,stairs up
-1.1022411059268817,-1.494140625,-0.80310058593,0.020428114312045588,0.14254222441254188,0.13579534714860217,-0.07006835937,0.32824707031,0.007593937316861311,0.08690862843744679,0.22678563927655915,0.00427246093,0.43774414062,0.00888585999974886,0.09401109806235643,1.1396101525294624,0.8304291914,1.56143360464,0.022929014604510186,0.15101569564930306,0.0016029967459346495,0.13974307518992646,0.03992966921801046,-0.0007187327734388406,-0.6953180208283078,0.591386978363446,stairs up
-1.093994140621111,-1.43762207031,-0.77478027343,0.01719385701082038,0.13074137883398687,0.09664899145438598,-0.20837402343,0.29650878906,0.015588153300983157,0.12448692505540225,0.22914667854169588,0.00756835937,0.55517578125,0.01643658053204829,0.12782980942667366,1.134602539522164,0.79514440847,1.45772455201,0.020399543260214408,0.14240873458321746,0.0014573693209577587,0.12479584778998287,0.03806371885864305,-0.0007630716222842961,-1.1253014086775026,0.18212646422893108,stairs up
-1.0777996889060824,-1.23742675781,-0.90356445312,0.005205885982729499,0.0719656273432046,0.11309185224391752,-0.07983398437,0.3232421875,0.011070176725781911,0.10494338454211476,0.1429103576001031,-0.03247070312,0.32727050781,0.010004605574433376,0.09976490085499208,1.102054837425773,0.91375721618,1.2467062769,0.0065192473533606625,0.08053348983845066,2.8409015481473778e-05,0.02384417441999176,0.005316255943551107,-5.239716858087413e-05,0.2951262114739288,0.7029182743345114,stairs up
-1.0405921465042591,-1.15600585937,-0.89538574218,0.005039209566646716,0.07076795415125292,0.08573555651685186,-0.05200195312,0.1962890625,0.00379727388764222,0.06143153852356967,0.11081874517456791,-0.01977539062,0.27038574218,0.006951450112921094,0.08311762705370543,1.0552540172630867,0.89793810855,1.17334228845,0.00462135844012865,0.06777043261022642,1.8694653605867292e-05,0.016311520270051005,0.004310365936847448,-4.421467043933892e-05,-0.6675970363528871,0.22804368372632858,stairs up
-1.0657472001704256,-1.26904296875,-0.8701171875,0.008585467622176197,0.09241103960678711,0.08103585750271278,-0.03942871093,0.30798339843,0.004829931906470585,0.06931263073429336,0.1453415890921277,-0.08862304687,0.31213378906,0.010251530463224967,0.1009802012568176,1.0854573799003724,0.87522573624,1.28283202961,0.008878627620708623,0.09397553340122779,0.0002110707708812014,0.04622120951000852,0.01448958432857244,-0.0002077277907883675,-0.45616042010461033,-0.8333198580031848,stairs up
-0.6448815701263906,-1.779296875,1.03112792968,0.7847297641371711,0.8832249955428934,0.3331941683583432,-0.09912109375,0.79577636718,0.059066540084703405,0.2423159795192138,0.21142289200964492,-0.09313964843,0.66552734375,0.04097731995961169,0.20182876556808807,1.1717209022013018,0.66459143273,1.87283317611,0.07866410529871536,0.2796401924259543,0.0027775163120732273,0.1484803994100048,0.0525459922763809,-0.001012638064505983,-1.5515428806373102,-0.05779365794433242,stairs up
-1.1769055488740001,-1.40649414062,-0.89526367187,0.01655275124095826,0.12832718081980324,0.14147511017317949,-0.11560058593,0.35144042968,0.014163062494352778,0.11870312297761229,0.22564978966056412,0.05261230468,0.3984375,0.00757117082835931,0.08678907944719083,1.2147739714944104,0.9065714792,1.45349922283,0.018549671092705368,0.1358475048511427,0.001265748789553566,0.1329519151599925,0.03548602217944353,-0.0006192654191609805,-1.1490369775404292,-0.2509893832007136,stairs up
-1.1125852217544099,-1.38598632812,-0.8681640625,0.017833442212046337,0.13312653939103344,0.07266519676689441,-0.12902832031,0.28369140625,0.010268661190675996,0.10101920949198763,0.19854622597708071,-0.07788085937,0.4384765625,0.015566570706254168,0.12437798813166726,1.1430442006291304,0.88357600389,1.40834140495,0.019515319015537897,0.1392627224132528,0.0008751953507740601,0.1039493708099144,0.02949168280730212,-0.0006184147063614649,-1.0708932375524063,0.34067199051261543,stairs up
-1.052700168479945,-1.22192382812,-0.83361816406,0.009545208234534334,0.09743080639840505,0.08296287452587912,-0.11865234375,0.25048828125,0.009963441482081095,0.09954243968335122,0.15724265968027473,-0.04077148437,0.31164550781,0.009588071064517702,0.0976493182534932,1.0764392354665384,0.84780232977,1.24727343381,0.010056413345887636,0.10000579146981257,3.5691878541199595e-05,0.02562162680999336,0.005957832602418916,-8.871716866654868e-05,-0.04308315267911356,0.5524626139821647,stairs up
-1.0507268415144,-1.17846679687,-0.93762207031,0.0030708594940703185,0.055256779905571526,0.07218889508771428,-0.06860351562,0.24108886718,0.006242711555319337,0.07878476323414553,0.12375279017514287,-0.056640625,0.28820800781,0.00782497910141429,0.08820581009843112,1.0672757518136002,0.94322612761,1.20143026658,0.002988454851327385,0.054510347333902184,1.17353832967429e-05,0.014976900620013112,0.003415892850137231,-6.409389692003582e-06,-0.5702804226384517,0.11216125088562781,stairs up
-1.0993582041443979,-1.20666503906,-0.9931640625,0.002986871283812548,0.05450901956799252,0.09939015972471206,-0.10864257812,0.2919921875,0.009949671989361798,0.0994865793253406,0.15429431855020942,-0.03369140625,0.30407714843,0.009458260937318348,0.09699866621014461,1.1228530377880626,0.99823474049,1.23861110517,0.0037719595413766385,0.06125529415570882,7.46577011488148e-05,0.03643681443998048,0.008617820091666386,-0.0001252602492852658,1.0444559146331756,-1.297076161118404,stairs up
-1.0653105586371685,-1.25756835937,-0.85034179687,0.00832995735358121,0.09099327935400384,0.07516442723813253,-0.07287597656,0.23083496093,0.003962536234821622,0.06275878850497238,0.18271940299921688,-0.05822753906,0.39978027343,0.012800913561992209,0.11279982103209106,1.0908871656121688,0.88421625593,1.28793619252,0.00888360735376113,0.09396856733403336,0.0006959491391821144,0.0906219812600284,0.026301267545277094,-0.0005392482922692436,-0.8411407694468083,-0.08482898549713855,stairs up
-1.1135885799588823,-1.38220214843,-0.79382324218,0.019358561452235426,0.13872522323406053,0.09701358570517647,-0.1240234375,0.2822265625,0.009210920817529215,0.09569085081849402,0.2254279641513529,-0.02185058593,0.4423828125,0.008194186745070539,0.09025511424052449,1.147172228222353,0.83399247784,1.42207269027,0.02097560509346023,0.14440297497332164,0.0013008575064162207,0.11321786912003518,0.03596116521245247,-0.0007245076955572243,-1.2676951978520608,0.2234107015709941,stairs up
-1.0903771441878805,-1.36901855468,-0.78869628906,0.020577517759939018,0.14305832175825067,0.08329242208402174,-0.1025390625,0.22351074218,0.0062005474898013035,0.07852928665242885,0.19315570333407608,-0.0546875,0.49328613281,0.014929328685635295,0.1218531535485853,1.119570940395,0.8399088546,1.40910990562,0.021326608091313783,0.14563894607060518,0.001765956149822256,0.14489497532997575,0.04190893176939115,-0.0007847363171342609,-1.2615349838593086,-0.06424619571844141,stairs up
-1.0393374935572526,-1.32739257812,-0.75695800781,0.015877259895162997,0.12565835508803755,0.07392095209186815,-0.0947265625,0.18591308593,0.003146099849387549,0.055935798791818696,0.14533074347153846,0.00402832031,0.33837890625,0.006783824686153747,0.08213739053647805,1.0570870982847802,0.7736509202,1.33797227373,0.015123105006277103,0.1226377226742495,0.0007727532290691119,0.09756372347010256,0.027721964796999777,-0.0005066864854686144,-1.004579178548993,0.5543670725332137,stairs up
-1.0267992886595456,-1.224609375,-0.857421875,0.005025925101724977,0.07069206963373996,0.10994581742460227,-0.03356933593,0.24304199218,0.004179448616347234,0.06446473260015043,0.15443489767897728,-0.0322265625,0.30529785156,0.009019825628336631,0.09470256923169887,1.0504841314068183,0.89884708853,1.26527572451,0.004887506242739948,0.06971180904915751,1.210135616847243e-05,0.012759448380052163,0.003468803606860692,-2.9638620051234152e-05,-0.8675944782751186,-0.4853534090418981,stairs up
-1.0064816942359476,-1.20190429687,-0.90014648437,0.0022781839819034653,0.04757408843602235,0.11747951133202615,-0.03833007812,0.32824707031,0.003864353470664676,0.061960441076852495,0.10505147696745099,-0.08154296875,0.20166015625,0.004412112779699747,0.066206309678688,1.022607139291307,0.92265735984,1.23146291866,0.0026200781809390984,0.05101914823814714,1.3890713924148304e-05,0.014194327780046478,0.0037148250220235017,4.702945459509125e-05,-0.7465461973663312,0.18381233021408902,Null
-0.764415681667202,-1.89697265625,0.31311035156,0.2821171862925943,0.5297692320372693,0.3427165135168394,-0.072265625,0.74975585937,0.055832275502248,0.23567560141152064,-0.16289619090088084,-0.982421875,0.28161621093,0.15037632761941955,0.38677794102410007,1.0671253015916062,0.332175975,1.9990547487,0.07575280830550235,0.2745183176184506,0.0006073937959033834,0.10013861827007986,0.02458142953104832,-0.00033808327201643914,-0.7349944689273613,-0.6169831196588382,Null
-0.991433662276842,-1.02307128906,-0.96594238281,0.0001481186586976494,0.012134762779350631,0.12411695334994151,0.03735351562,0.22180175781,0.001983679449189771,0.044408095935027724,0.14030519005461986,0.09313964843,0.18969726562,0.0004371052535328373,0.020845840891159702,1.0101363642160819,0.9769248824,1.03882497209,0.00021091078076745226,0.014480241171634375,0.00011592753804622318,0.0371627188800403,0.010735436610927355,0.0001860702955013103,-0.32506953835026,-1.0398809399174305,Null
-1.0227191385761254,-1.29150390625,-0.92419433593,0.0060190107842637555,0.07737892244530423,0.11399194207785339,-0.04174804687,0.28588867187,0.005882992081272291,0.07649961487230625,0.15915667947874348,-0.03637695312,0.29370117187,0.006141327181393357,0.07816120288187123,1.0468579142418322,0.92585169045,1.31520923786,0.006350064037769583,0.07947840983056263,1.3216940739061127e-05,0.015180144029955045,0.0036259815355911894,4.002227647519226e-05,-0.06171170782302049,-0.1694548789822257,Null
-1.0868885667974681,-1.27111816406,-0.67456054687,0.015075636527675226,0.12239371350937102,0.094341036638038,-0.13061523437,0.421875,0.014968298711628341,0.12195721644836448,0.13056656076639242,-0.15747070312,0.29040527343,0.009249313040553438,0.09586851977891683,1.1100818305852533,0.70910304103,1.30660537991,0.014126911693167153,0.11847995973862455,5.905011806933047e-05,0.02840770993998376,0.007660051118944379,-0.0001316101261421843,-0.6655467047245271,-0.4893510557622374,Null
-1.0521936793745197,-1.28857421875,-0.892578125,0.01028264816588385,0.10111653726492753,0.11851441119073448,-0.07507324218,0.34216308593,0.007908278060837586,0.0886769334368905,0.1407677601920339,-0.04138183593,0.30163574218,0.008273776867238585,0.09070298983585817,1.0760197254962147,0.92582118274,1.30243479817,0.009398124270441061,0.09666968254396222,2.7912919466136844e-05,0.019215454229993156,0.005268322252497342,6.863070444304823e-05,-0.9607772038366655,0.16871923602373382,Null
-1.0006526328960894,-1.11975097656,-0.97033691406,0.0005682305443198228,0.023770908102241004,0.12181457860139663,0.02844238281,0.15698242187,0.0005244513395955071,0.02283684399919518,0.12322077404452514,0.04174804687,0.193359375,0.0007543722675900823,0.027389010522106887,1.0162299615513408,0.99210785373,1.12088987776,0.00044372198931033147,0.02100578719104099,8.595746621218617e-05,0.03493612735996976,0.00924539111686132,0.00017067204874153243,-0.9068994528020671,0.24594092947822,Null
-0.6026565876376062,-1.48449707031,-0.07800292968,0.24547461270839202,0.49413449250517555,0.07321946164287234,-0.25390625,0.73681640625,0.05120159697353342,0.2256750940034399,-0.4201218625320213,-1.13977050781,0.39392089843,0.2934474920647906,0.5402653062612408,1.0462142547587767,0.50044921722,1.64206818728,0.043744835971479136,0.20859566312308245,0.00031298007984956633,0.05724366384993118,0.01764412911397987,-4.701413068647653e-05,-1.0990870057154687,0.5419152859773821,Null
-0.9878290524241508,-1.01147460937,-0.95166015625,0.0005193514072335386,0.022717505280768734,0.042408301391006285,0.03393554687,0.05590820312,2.5908632716568808e-05,0.005074020628751218,0.07201841342031447,0.05725097656,0.08471679687,4.7375686128541996e-05,0.0068613209980604595,0.9913959763296224,0.95492400347,1.01499051302,0.0005175342153003246,0.022677726586424495,4.33834768041003e-05,0.02712210624997624,0.006565868164129448,-3.1190048943656593e-05,-0.53877742287407,0.49425693227947626,lift down
-1.0018081664997915,-1.01794433593,-0.95593261718,0.0002799863629867725,0.016689161173634514,0.0463714599575,0.0341796875,0.05944824218,3.999089383375078e-05,0.006307345553270937,0.07611401875411458,0.04809570312,0.09948730468,7.652720463772969e-05,0.00872517194368731,1.0058271043501563,0.95986086536,1.02165027533,0.0002709452755898957,0.016417493788015627,0.012949281512325711,0.36927303984998616,0.11349818209020948,0.0020385814662928665,-1.200794343852106,0.21867597514280812,lift down
-0.9990372307520339,-1.54833984375,-0.69018554687,0.01877914942640654,0.1366493781068608,0.07954639499163842,-0.12854003906,0.53588867187,0.014682115358228876,0.120827006724263,0.1181950973220904,-0.12036132812,0.44836425781,0.014198192442487363,0.11881909217788249,1.0268827993266103,0.88076724228,1.5583214247,0.01133907217417232,0.1061838482044985,0.017368218590813153,0.42509412973004146,0.1314157260834924,0.002566629606939564,-1.2767434890380585,-0.09823131230919994,lift down
-0.8774188497757065,-1.4609375,-0.20764160156,0.1154242436184886,0.33881696820945817,0.09666243843222826,-0.25122070312,0.71130371093,0.04017677661468054,0.19989603439753784,-0.1431234608540217,-0.95324707031,0.23779296875,0.1428254044593178,0.376894122314321,1.0317226863332067,0.60768195468,1.52456520108,0.03221973771537916,0.1790101406211025,0.016343648427472778,0.43333490625991544,0.12749440870578016,0.0023854170506644387,-1.2598622185285386,0.21562061546389572,lift down
-1.0239675214175485,-1.0654296875,-0.9775390625,0.0007715026741340935,0.02768619218178579,0.03874275453387097,-0.05798339843,0.16491699218,0.003490789615859886,0.0588920061853199,0.1321415070531613,0.07177734375,0.24365234375,0.003285331457903958,0.05713261565059639,1.0366049150492904,0.9945760122,1.06883505321,0.00042377737650732425,0.020519340362617763,0.004144472092852772,0.220154156550052,0.06416956882527312,0.0013610472441014196,-0.5234302265077155,-0.8351339823598355,lift down
-1.005033255907946,-1.05505371093,-0.95007324218,0.00033441922954865805,0.018237641241059224,0.07090899492967569,-0.0322265625,0.31958007812,0.00567403311117242,0.07512231800152894,0.1294196051484865,0.08459472656,0.22192382812,0.0012113327398887946,0.03471001289756106,1.0191242209352973,0.98955776867,1.08761935045,0.00043831603291509595,0.02087933804174598,2.0689636260496517e-05,0.019254100339935576,0.004536276048568711,6.886211435476263e-05,-0.664889979865122,-0.3017327308758375,lift down
-1.0002214298648837,-1.01599121093,-0.97509765625,6.407639144272375e-05,0.00798146943132485,0.05184865552069767,-0.03344726562,0.13525390625,0.0013192117164498693,0.03621521615135155,0.13691533997604652,0.10095214843,0.18383789062,0.0005401354524037584,0.023173155374399537,1.0117931625672676,0.98865722018,1.02900415127,6.421253651821224e-05,0.007989944168611252,9.323703608298761e-06,0.0126334111999995,0.0030445847055355093,-2.839061523585165e-06,0.10442316638818161,0.8074904447497563,Null
-1.0036614768825907,-1.021484375,-0.994140625,2.4887499930751386e-05,0.004975796333644306,0.08424369534927462,0.04162597656,0.11315917968,0.00043478429748771433,0.020797392363153342,0.09556966988808291,0.08032226562,0.12194824218,7.40030719272669e-05,0.008580188594746978,1.0119671970850257,1.0025050333,1.02570640424,2.032925696867721e-05,0.004497101736787336,1.2628099533402032e-05,0.01841898715008483,0.00354438555547664,2.7905450166268426e-05,0.4756819685061595,0.3467200959219811,Null
-0.37979647007920725,-1.08715820312,-0.15063476562,0.10922063493554707,0.3294763351960695,0.8301637230821951,0.060546875,1.01342773437,0.08700237559015477,0.2940610026847676,-0.11432852395890244,-0.20959472656,0.1005859375,0.0073958898584246665,0.08573676556206228,1.0223300086504876,0.82872687366,1.15155720133,0.003729593756132159,0.060883925060642156,0.00013064013165738593,0.03315844049006955,0.01139489120126837,-4.371512045558448e-05,-1.4474206479340628,0.24755749118836493,Null
-0.23466904357924526,-0.44738769531,-0.06274414062,0.007521808187795431,0.08645519775040057,0.988169928013522,0.91650390625,1.04028320312,0.0005028840831001209,0.022354446764003093,-0.006057451356226407,-0.20947265625,0.20385742187,0.012912055675618473,0.11327333215848971,1.0253538778366669,0.97242632986,1.13256678711,0.001047140642462052,0.03225763246516843,0.00015334362992800634,0.04793417361997854,0.012344197202837744,-3.886581891924828e-05,-0.21130939233533308,0.8052079281334025,lift down
-0.23678253333230367,-0.30822753906,-0.05114746093,0.0036850916943181765,0.06054583404765298,0.9281696099847121,0.86767578125,1.02380371093,0.0016526508434691553,0.04054624793062903,0.25683465927246074,0.0517578125,0.34375,0.006947923332343696,0.08313571296617508,0.997504896089529,0.9537026734,1.05842221548,0.0007380244858588388,0.02709539598003829,0.0006381781972342905,0.10359589300003336,0.02519597091061092,0.00038296349116297856,1.560172079050857,1.5797879507811898,lift down
-0.6977368573202795,-1.21496582031,-0.26586914062,0.08847550993476291,0.29661630660324223,0.34787106647033517,-0.16735839843,0.9443359375,0.1799821201209308,0.42305630052789023,0.42738180319983243,-0.09729003906,0.81555175781,0.05391041112088661,0.23153668314062967,1.0522970630898885,0.94936618523,1.21966011959,0.0037652348999829117,0.061189868999201424,0.10165415287618397,1.338257724970049,0.3179406431722536,0.00026312154917664833,2.5733987231694577,1.8501852857418515,lift down
-0.99760822673,-1.06677246093,-0.974609375,0.0003241275812429126,0.017954015162822287,0.16547972291054944,0.11364746093,0.22082519531,0.0006892422041065906,0.026181198578924567,0.15052879249296702,0.10192871093,0.17858886718,0.0001824233771734317,0.013469263191623587,1.0227891316315385,0.9998377728,1.08243984123,0.00035821339513170277,0.01887445865883168,0.004444867134317647,0.24153988815999128,0.06648642558767762,0.0011128572350778672,0.8689782832604007,-1.3720168755770321,lift down
-0.9970092773404592,-1.27380371093,-0.85278320312,0.009091031169288753,0.09510335618263187,0.14084298269704082,0.01977539062,0.31176757812,0.0049806885995461415,0.07039372786703262,0.21672462930122446,0.0009765625,0.32006835937,0.007006132552717413,0.0834888434371255,1.0360841064396429,0.88778670945,1.28827605098,0.008376584137757402,0.09128990340440267,2.6492200927040048e-05,0.03280277422004474,0.005133910462463868,-2.3344216266394443e-05,2.3212606330775465,0.46057321174340504,Null
-1.0270351063080112,-1.30383300781,-0.80444335937,0.010081829501834389,0.10012265667502473,0.1237973299859091,-0.22900390625,0.40344238281,0.015161375671955432,0.12278123428277278,0.24061861904835224,-0.10766601562,0.40209960937,0.014822339173319985,0.12140066448379902,1.0771536740627843,0.86760589884,1.31164300846,0.007645510395736269,0.08718985030243195,1.6789081265759643e-05,0.017089391639956375,0.004085791081120989,-2.0403069000142406e-05,-0.25583231935304784,0.17493531645433,Null
-1.0420466597324194,-1.29467773437,-0.93859863281,0.0068138890945151735,0.08232408688943395,0.11462008568182794,-0.20654296875,0.21960449218,0.00504568056510845,0.07084174793327926,0.14780089675381722,-0.15283203125,0.3642578125,0.010531827517023048,0.10234844790438642,1.0660441691642475,0.96989095318,1.3047490705,0.006700979666460561,0.08163916274717813,1.4194411245781798e-05,0.015391568919994825,0.003757405648426316,-2.1034291027807253e-05,-0.6103953266897877,0.3146540586158984,Null
-0.778636120208,-1.14135742187,-0.02453613281,0.10851336972765205,0.3283493314616989,0.44118809853503216,0.03771972656,1.02893066406,0.09862704826364076,0.3130347340575099,-0.02536857358961289,-0.52575683593,0.25891113281,0.045589537485746186,0.2128271867911876,1.022637903079742,0.79143171316,1.19059575763,0.006920517829712062,0.08292086183575813,0.0002061193732271932,0.08383204176993786,0.014310470670780742,3.609481301378827e-05,6.111433417066062,2.1224748363061985,Null
-0.7183469742023281,-1.23815917968,-0.06506347656,0.15907779508834466,0.3977890315642838,0.48224942645883595,-0.00390625,1.00402832031,0.13395130807179084,0.36502406905852924,0.0005948505703703222,-0.373046875,0.27954101562,0.04144263687082258,0.20303537539026503,1.0342680552179364,0.84144229014,1.28788003729,0.011640466524569331,0.10760518925497072,0.00013645234172525943,0.03973780498006363,0.011650337834724838,0.00015450122079798472,-0.7451445762539022,-0.5877131092971529,Null
-1.0102153959693452,-1.06872558593,-0.94616699218,0.0006556371978104952,0.02552909311829497,0.10227021716607144,-0.03344726562,0.23071289062,0.004395260882004614,0.0660991574443262,0.14877464657374997,0.06079101562,0.43981933593,0.007343079379481754,0.08543635393467762,1.0315933620664286,0.95470780134,1.15179883713,0.0012711444950394243,0.035546844568251454,0.00011429963746820155,0.036059774909972475,0.010659234610574615,0.0002103654267334604,-1.3325537115772565,0.07492677119122025,Null
-0.9994336944225257,-1.02136230468,-0.98291015625,6.0775485549509094e-05,0.0077757449707922055,0.059681685925000005,0.00622558593,0.11535644531,0.0005293931299008791,0.0229491677263987,0.14033807183891753,0.08837890625,0.17102050781,0.0005691272425755752,0.023794822903213393,1.011542050101237,0.99799436367,1.03381746196,6.070146588091206e-05,0.0077710084111965,7.827064464256046e-05,0.032542731360081234,0.008824238647691553,-0.0001500369044061487,-1.3523356470737768,0.1429486592151157,Null
-1.0011532232592546,-1.01525878906,-0.98962402343,2.745574351499915e-05,0.0052235247627041076,0.09236855832291925,0.05529785156,0.11840820312,0.00016091101288356226,0.012645614480861387,0.09870408336192546,0.07189941406,0.12194824218,0.00013012728821755769,0.011371853155548646,1.0103813611409938,0.99680280693,1.02418759209,2.8420484315442415e-05,0.005314504639958604,1.3378994169187374e-05,0.01646346993993575,0.0036463536343204037,-4.443997320661979e-05,0.262141307905134,-0.6626940315651106,Null
-1.003837995627742,-1.01794433593,-0.99255371093,2.1366803181658045e-05,0.004609981333556043,0.08805929204177419,0.07287597656,0.09997558593,4.1755784023375555e-05,0.006444477524274896,0.10645843833618282,0.0927734375,0.11962890625,4.3448068756818627e-05,0.006573771899701787,1.0133431855362365,1.00266392352,1.0267363954,2.02543896611402e-05,0.004488373323718689,5.37080436944373e-06,0.011530692569976964,0.002311261360628627,2.5320404819861865e-05,0.7723053381268423,-0.6835590095677454,lift up
-0.8069140339424561,-1.05932617187,0.46313476562,0.1887845760883573,0.4332211591317067,0.2744204872506433,-0.16198730468,0.87976074218,0.06753788016474338,0.2591195125829139,0.28057397317766086,-0.12121582031,0.52038574218,0.02698515955994132,0.163790572406651,1.0338472314843277,0.63450370666,1.27606296197,0.018054949002146478,0.13397523840269104,0.009835376226457793,0.41193383321990495,0.09888305924889272,-0.0014462976364295426,0.53221763932215,0.8419896401116093,lift up
-0.8050201890358031,-1.54931640625,0.12719726562,0.17396094016992011,0.4160043126559078,0.445627479351658,0.15539550781,1.30249023437,0.08617110108101211,0.292787668271721,0.1873804596392228,-0.24536132812,0.630859375,0.03135137755971332,0.17660389347049402,1.0607006726927979,0.5447518962,1.62757273732,0.04688293349419714,0.21596299854452197,0.026574749680389517,0.680869515370091,0.1625947621446158,-0.0023590066431495595,0.497485292564503,0.9283642845345232,lift up
-0.9744528553936196,-0.99475097656,-0.93041992187,0.00033109064991537036,0.018139995009213605,0.2092277667237423,0.19482421875,0.22265625,5.023466528145693e-05,0.0070658670487701546,0.1316352329328221,0.11938476562,0.1552734375,5.320683691363329e-05,0.007271892092246674,1.0053635231978526,0.96194118713,1.02437668578,0.0003406024204866486,0.018398718300058025,0.015464245522792842,0.42040242899997793,0.1239732747444943,-0.002631007615914169,-1.2151397399061756,-0.09114116469037678,lift up
-0.9741310451303804,-0.98852539062,-0.9375,0.00022540911438616556,0.014972777459491547,0.20970750891239132,0.19384765625,0.22729492187,5.139328536892703e-05,0.007149403753838515,0.12798541524749998,0.11267089843,0.14135742187,3.4972589866629266e-05,0.005897670849025153,1.0046722347866848,0.96705036115,1.01839311146,0.00023385103658756545,0.015250577269103418,0.0006856650747403534,0.11068620846992872,0.026113954777412872,-0.00044514159833260116,0.8120521208744038,1.2565544996567406,lift up
-0.987559000647448,-1.1787109375,-0.88586425781,0.0029773080744153143,0.05442243343996789,0.12828127542765624,0.01977539062,0.22705078125,0.002490336065285994,0.04977314099939809,0.19615364074354166,0.04370117187,0.357421875,0.007790932535436731,0.08803609919694684,1.0201067517093227,0.89489679488,1.19017992536,0.002791391362286423,0.05269585245166689,6.087553136474963e-06,0.009062280680041113,0.002460863086511686,-4.365643886595301e-06,-0.958635470341191,-0.08362583725392447,Null
-1.02493658298,-1.23498535156,-0.87719726562,0.007273586167372293,0.08502490830459854,0.13630266887000003,-0.0859375,0.32348632812,0.008212897640955683,0.09034832038728509,0.21054300447359756,-0.0693359375,0.61022949218,0.019534293968375208,0.13933837382353634,1.0673986593607927,0.89538488511,1.2647891699,0.008923523576383293,0.0941759621520216,5.1156663412684376e-05,0.0317073200400273,0.007130549245199614,-0.00010262847085470059,1.0761033060124268,1.021019172505066,Null
-1.0042424128574359,-1.50671386718,-0.716796875,0.01477046757813292,0.12122178678171985,-0.02256610576748718,-0.40270996093,0.2763671875,0.0166100740779984,0.12854918984937921,0.17636217948399996,-0.01745605468,0.36950683593,0.006911844296948997,0.08292405526492315,1.0316701533149744,0.75045894448,1.52083346996,0.013939867263111645,0.11776408945143871,7.167898968918395e-05,0.03595489526003348,0.00844460805050627,9.828454335541319e-05,0.529544912013161,1.0553528938547796,Null
-1.0528196196282125,-1.34411621093,-0.8505859375,0.010468659416754797,0.10203026651898416,0.09972257986754189,-0.10656738281,0.22314453125,0.005875935384940512,0.07644023109774094,0.15655006110005584,-0.05871582031,0.32678222656,0.008652267030316494,0.09275737352359806,1.0759705076982682,0.87509333589,1.35463747374,0.010082674953472941,0.1001316491446974,4.0764700208127535e-05,0.031876912880079544,0.006366864570004208,-5.8682409363465365e-05,0.7443283583458431,-0.18145364451558255,Null
-0.4325284697295082,-1.56860351562,0.32531738281,0.3242807981328535,0.5678985577667444,0.5984880624534424,-0.21313476562,1.18896484375,0.1622781004942351,0.4017354041129109,0.04380456476191258,-0.48950195312,0.60375976562,0.07566156653359082,0.27431389930214467,1.010354488171858,0.2449098295,1.76376242421,0.08580714268375049,0.2921271147868259,1.687416658238323,6.809846872479966,1.2954519683038719,-0.006993891034188481,8.709730501744632,2.673877844822859,stairs up
-0.6428605480285208,-1.14685058593,0.37683105468,0.19665692324054998,0.4421462120240023,0.6119074172486391,0.27917480468,1.09973144531,0.03786025799991624,0.19400060001105787,-0.00456933016,-0.53295898437,0.54431152343,0.06182461298035111,0.24790882773318368,1.024954211738284,0.68801187836,1.38971029694,0.03196756377419487,0.17826498981039166,0.008124975672454222,0.4674900817200296,0.08987156888208458,0.0008450096246614409,1.8598195423117057,-0.951261451738878,stairs up
-0.3913114814341935,-1.83325195312,0.53881835937,0.4900414344102937,0.6981452592709461,0.6832360708553226,0.17590332031,1.17687988281,0.058047669327501265,0.24028230289350277,-0.16795890561763444,-0.74047851562,0.39526367187,0.09774744702039923,0.3118043025868748,1.1006927517476346,0.50613479775,1.93747223557,0.07941312778583594,0.281044792668201,0.006871144577469123,0.31558371757000714,0.08266923817210273,-0.0011630407495647188,-0.9916486892699603,-0.41620771505194015,stairs up
-1.1399066631566483,-1.40539550781,-0.9111328125,0.008323696648919895,0.09098330644655539,0.08660888671708791,-0.12585449218,0.34899902343,0.015789398953886574,0.1253101911840354,0.13871211795763738,-0.15295410156,0.37878417968,0.023441490070707387,0.15268493925307267,1.1681552824632966,0.9596586479,1.45779543618,0.008884701470464246,0.09399938526085018,0.0004225230920902791,0.069250469099984,0.0204988179327305,-0.0003620760280032257,-0.5701225347498036,-0.7851188339528522,stairs up
-1.1404023603926137,-1.31872558593,-0.86975097656,0.010706917178566885,0.10317985472886887,0.08569335937363637,-0.18212890625,0.39477539062,0.017386559587788595,0.13148297348859825,0.1465974287528409,-0.10949707031,0.39660644531,0.017033674209076234,0.1301418148377067,1.166994400920341,0.90377029346,1.37176289762,0.012417067998081635,0.1111148796307914,0.00031522094734061704,0.06230272544996751,0.017703952079429246,-0.000315569161786557,-0.7998333936243878,0.7235642166221673,stairs up
-1.2262807446825,-1.42028808593,-0.93994140625,0.01327331570403157,0.11487447612020632,0.08801766328924418,-0.22277832031,0.45629882812,0.03535315121703462,0.18747695762464087,0.185702301731686,-0.02868652343,0.48046875,0.018981866682797423,0.1373736036972939,1.2641608679214538,0.94821497743,1.49028698489,0.015197840143338722,0.1229206272666294,4.5035397889370863e-05,0.024271651710023434,0.006691305117890809,-7.060367507376433e-05,-1.0486414691197066,-0.11788276910246774,stairs up
-1.1543176671924726,-1.34826660156,-0.93505859375,0.010363423340243537,0.10152084245985493,0.04611709091538461,-0.13244628906,0.30261230468,0.011175611735073301,0.10542394071078201,0.1422870342513187,-0.05993652343,0.47192382812,0.014701284186045155,0.12091529224754263,1.1745964710169228,0.94381529885,1.39311470084,0.01124779093333043,0.10576384015459252,6.802724116530094e-05,0.05386951680009133,0.008225172649552236,-7.444636631799921e-05,5.384756370585865,-2.0524028167207944,stairs up
-1.15014846389,-1.53796386718,-0.94067382812,0.016155660229533072,0.12676092590542426,0.08722550675551352,-0.24108886718,0.802734375,0.039362374997032476,0.19786259222615557,0.17861790012351347,-0.06091308593,0.67016601562,0.031620299162677896,0.17733972658900607,1.1906265498106487,0.94387297934,1.85979510217,0.03160068200831425,0.17728470749326355,0.0006386963133317774,0.0857125805899841,0.02520404532663916,-0.000463195825307097,-1.0639267499199019,-0.02542306834578602,stairs up
-0.42689822863606924,-1.1142578125,0.19873046875,0.07089796541800684,0.26549604627753126,0.8288694172195954,0.24853515625,1.05712890625,0.026996124564127456,0.16382941616611174,-0.1944361339384393,-0.45544433593,0.36413574218,0.02973529916854177,0.17194016059817752,1.009118597398613,0.76557230281,1.25908963896,0.015734271544751353,0.12507326652106718,0.005524613376353211,0.32256158748998587,0.0741126115785094,-0.0008313923135873069,6.547041506029434,2.6406191355748256,stairs up
-0.5949156656389595,-0.86022949218,-0.29577636718,0.02210300752192678,0.14824049538728304,0.8318534365925434,0.58215332031,1.12768554687,0.020424458429907734,0.1425005192150389,-0.11497894463161851,-0.30493164062,0.11865234375,0.010397966562682314,0.10167528072112135,1.0418622129436994,0.6878792302,1.38825346146,0.026420299799924555,0.16207276546036734,0.0007514412247297766,0.10509060934998615,0.027333086796689922,-0.0005318039864998091,-1.24011575536428,0.28478703704544006,stairs up
-0.6731621040056043,-1.05029296875,-0.23583984375,0.06733198267560926,0.2587702199381571,0.6084024617917032,0.02465820312,1.07958984375,0.08086290081241011,0.28358173276781184,-0.2181872692702198,-0.48950195312,-0.05554199218,0.01463192135786946,0.12062970689499944,1.0092449876658243,0.7213974686,1.2936129449,0.014341967217884916,0.11942849408832144,0.0004030771077966111,0.06803185855005722,0.020021548352040938,-0.00034489008376029003,-0.8446678477147911,0.7404641653666636,stairs up
-0.9786029118325805,-1.09436035156,-0.84204101562,0.003884050966676911,0.062154396242200045,0.23107122605435484,0.02136230468,0.37890625,0.008349472383189812,0.09112948341080974,-0.1062687699492473,-0.26806640625,0.13818359375,0.012729794750113944,0.11252268657205489,1.0215726556200537,0.90294648554,1.12745416038,0.0035883301230645536,0.05974142637758762,1.9237479896790894e-05,0.017595203460018638,0.004374248802425146,-1.4937227576261915e-05,-0.45360980255733896,0.15119081543405394,Null
-0.701257253654104,-1.4326171875,0.0009765625,0.14210721611080776,0.3758800169149028,0.5599689814357802,0.05688476562,0.99377441406,0.07664030649709135,0.27603858234870904,-0.028658299088323697,-0.57971191406,0.48852539062,0.07760754424556315,0.2777749911779541,1.0421472594075722,0.71206054436,1.51165208497,0.019371507007523686,0.13877871947304624,0.00021463413451841326,0.04821411326997804,0.01460799352345532,-0.0002271625492860616,-0.8039896838585845,-0.6254525862308751,Null
-1.0108790542102424,-1.24633789062,-0.80358886718,0.006009760751154014,0.0772873725696687,0.09275790127545455,-0.13989257812,0.35498046875,0.008696731845477835,0.09297324550507885,0.16861757220381818,0.04516601562,0.26330566406,0.001936867071039978,0.04387628610913468,1.034133721308303,0.80861281404,1.25373188482,0.006059034843343181,0.07760356576891421,2.1334822242945466e-05,0.020338121050031077,0.004604945199452206,4.709307145651946e-05,0.8774775287583858,-0.9885292980199036,Null
-1.1076470849311764,-1.35900878906,-0.80358886718,0.01292688812170947,0.11339206487996904,0.139923911678877,-0.14770507812,0.41027832031,0.022488907273690347,0.1495615115511588,0.16320800780882352,-0.00073242187,0.39416503906,0.009945473844064972,0.09945998940256164,1.1420194678286097,0.80861281404,1.41274715071,0.013886196847354069,0.1175242064861637,3.298826658817948e-05,0.02091000144002919,0.005728163645136366,-8.443600312909986e-05,-1.0599239262402667,0.22525686650882693,Null
-1.1354239817376406,-1.31579589843,-0.90881347656,0.011520344866911104,0.1070309479932461,0.0783067338914045,-0.16491699218,0.30725097656,0.014985127677180158,0.1220694129036189,0.16733576742207865,-0.17956542968,0.36633300781,0.020374355079867495,0.14233724885243312,1.1653357230745507,0.93845114142,1.35462339352,0.011997333013398576,0.10922422929978629,0.0014295804325270885,0.13352699142001256,0.03770343594133768,-0.0007256977506901288,-1.2801401082671755,-0.17165578515892163,stairs up
-1.0871622185919738,-1.23181152343,-0.92639160156,0.004807157512075452,0.06910522032243148,0.05957754034578947,-0.08874511718,0.23388671875,0.00588674778795048,0.0764723426088307,0.20447259199894738,0.04833984375,0.3095703125,0.005186226960310723,0.07177817945656015,1.1127216106230922,0.93780140005,1.2476994504,0.004938981988242837,0.07004633242139525,0.0012658646051592075,0.11627840749997631,0.03546176178006837,-0.0007954033804585066,-1.2660395087672094,-0.0430850665223837,stairs up
-1.1144393688489846,-1.28491210937,-0.94055175781,0.0062644879442819825,0.0789473781267797,0.08214712384796956,-0.12829589843,0.37316894531,0.015535573987015099,0.1243250304860414,0.2032105111797969,-0.01318359375,0.38122558593,0.012054713658127996,0.10951494061651598,1.1474747039395432,0.9486313639,1.33584099136,0.007038223430466234,0.08368092021468548,0.0010849757827357802,0.11329682568009503,0.03285526276645581,-0.0005728733770543082,-0.9914224081198273,-0.07045206187484418,stairs up
-1.1231131417378857,-1.39038085937,-0.80749511718,0.014658108475861117,0.12072426374179739,0.07491768973102858,-0.11022949218,0.27392578125,0.010384506435047998,0.10161282595359847,0.19630929129097147,0.0078125,0.39343261718,0.013188594048282053,0.11451301521539131,1.1523130579719427,0.82323858547,1.40211981257,0.015810836194440903,0.12538137245637446,0.00021831226508128276,0.05322995299991362,0.01473311801431304,-0.00025056621800184474,0.2982924337881947,1.1921386831516996,stairs up
-1.1179704563553765,-1.26770019531,-0.95178222656,0.007031871589761675,0.08363053167669326,0.06116838352548388,-0.10021972656,0.24768066406,0.011577290734703271,0.10730818811316123,0.157262002265,-0.01171875,0.35192871093,0.01084955208378453,0.10388080264708631,1.1401078112259142,0.95783627186,1.31197620339,0.00782744582983854,0.08823470285405077,1.0368833833917154e-05,0.01281331975997091,0.003211399603826225,1.7051119454617723e-05,-0.6246185956545198,0.33779217053391697,stairs up
-1.1575281943005162,-1.31494140625,-0.927734375,0.00868674073697523,0.0929015459954762,0.061543126258645164,-0.13916015625,0.23828125,0.012107461783885986,0.10967838951778856,0.16130922378696777,-0.04455566406,0.43395996093,0.014970679202010888,0.1219593955991138,1.1812969286836776,0.93704753924,1.31778290754,0.009814770602018486,0.09874942785333139,1.791156715757323e-05,0.022191272499981096,0.004218531576245748,-1.0931304659283498e-05,-0.10219217162676308,-0.06955212290408354,stairs up
-1.0930729502219072,-1.24536132812,-0.88842773437,0.009960552114422578,0.09954501023299149,0.042858635025,-0.12329101562,0.1669921875,0.004560472521599646,0.06735699615691099,0.17432332775932988,-0.03833007812,0.353515625,0.01132066357751997,0.10612402951996014,1.1152468148505155,0.90988369573,1.24697365382,0.009016148342350346,0.09470835945625354,0.0010627571932182315,0.11776044787995943,0.03251582788975674,-0.0005740731443955352,-0.9954237413293048,-0.24284686026149263,stairs up
-1.1054271190806935,-1.20373535156,-0.98303222656,0.0038463647349756516,0.06183956187432251,0.057305308435086716,-0.11303710937,0.3154296875,0.011641459472115617,0.10758330632057371,0.21667621590063585,0.06579589843,0.318359375,0.004668357065337903,0.06812761805917535,1.134984645743237,0.99056353543,1.23639673943,0.00407467502618688,0.06364842489294947,0.0014526543106509054,0.12261643074009498,0.03800338754538337,-0.0007563838916565014,-1.244030184500573,-0.07206173131215664,stairs up
-1.1005168289067195,-1.27136230468,-0.90161132812,0.007872932643960382,0.08849450217773679,0.03999449714624338,-0.2255859375,0.19152832031,0.009368352417806779,0.09653385113832433,0.15986108527238094,-0.09301757812,0.35754394531,0.012942946652674992,0.11346570166113851,1.1230158738604232,0.90359312319,1.27559087796,0.007500990718472532,0.08637883384772749,0.0012666830135719537,0.1284058333599205,0.03549621088292549,-0.0006468847062043783,-1.094596158674782,0.010547494647540631,stairs up
-1.063647616437325,-1.33325195312,-0.80114746093,0.014277901951339494,0.11910902526968316,0.04198207976585987,-0.10888671875,0.22961425781,0.006426616731266022,0.07991046781702424,0.18621165281280255,-0.044921875,0.43908691406,0.010110464882144198,0.10023007042127045,1.087750771111274,0.82184379793,1.3593646356,0.015297935427298728,0.12329029300047899,0.0006685595221982186,0.09118538599000203,0.02577404084136784,-0.0005471286351645835,-1.037312734001614,0.42293499971769244,stairs up
-1.0060775124778698,-1.90295410156,-0.28149414062,0.07291451667143159,0.2692267999795376,0.23284587069727808,-0.13781738281,0.79528808593,0.05064943221047901,0.22438745826843462,0.3011351816718935,-0.45568847656,0.939453125,0.06342918384007626,0.2511052831495943,1.131022581921361,0.45176690567,1.96160136911,0.06414570228915298,0.25251958720182105,2.0111713142524018e-05,0.018223997029963357,0.004471320713474462,-3.992080836600664e-05,-0.5610645014840978,-0.4264860542840971,Null
-0.9240422175441538,-1.48803710937,-0.56677246093,0.031503227889670304,0.17703579546196718,0.07610364082471793,-0.26489257812,0.79528808593,0.04123900216681187,0.202552511967682,0.418040740181282,0.08764648437,0.64794921875,0.016275178616519066,0.12724667446371782,1.0480177150297434,0.65547091923,1.54100416152,0.0247505484172273,0.15691915921234154,0.016599085548499464,0.4940055149299951,0.1285066614338188,-0.0004108700389694621,0.8970636246069876,1.1615572109356058,Null
-0.9954485212009938,-1.09216308593,-0.84741210937,0.0024393069424431075,0.049235718413011144,-0.009020313712981367,-0.23266601562,0.17822265625,0.0107504298163876,0.10336177707636993,0.12679617745198757,-0.15417480468,0.44152832031,0.018019227949330842,0.13381818739931467,1.0180091451820497,0.92740871937,1.1209682833,0.0017598261672112057,0.041819798778800155,0.0011818290324276373,0.15906590158999734,0.03427081089544268,0.00046501219556260696,0.3573561236176426,-0.8834650644162563,Null
-1.0294332698861224,-1.24877929687,-0.88159179687,0.007339358352758014,0.08545122963934805,0.08636723732219388,-0.08569335937,0.23327636718,0.005313777840593054,0.0727094679471763,0.15593610490688775,-0.0791015625,0.33410644531,0.008559039158571318,0.09227876565838834,1.0514028566718367,0.89101458277,1.27016271878,0.0072009481264516196,0.08464164811246419,2.1723743409800426e-05,0.022977955019996443,0.004648968486045073,-5.019782449035315e-05,0.5685936753748124,-0.11995902149658487,Null
-0.9880151641468539,-2.23229980468,-0.37902832031,0.10957557335503869,0.3300908666508398,0.2115382505233146,-0.20788574218,0.75085449218,0.05015326496647788,0.22331928947347085,0.1123170316871348,-0.51965332031,0.45104980468,0.05753205844281891,0.23918370477802706,1.0847407948364045,0.64991799213,2.29565016533,0.07332720013539944,0.2700282384730179,9.986765816342339e-05,0.040131073290012864,0.009965269886163561,-3.935859442043799e-05,0.2610989843857343,-0.9079107390422512,Null
-1.1126856541855494,-1.27197265625,-0.93310546875,0.00788620339409495,0.08855999438920098,0.061170640880988995,-0.1025390625,0.29650878906,0.01095635174683818,0.1043846349419561,0.19639369419296698,0.07385253906,0.30908203125,0.004289311293025586,0.06531266070646956,1.1378718781885713,0.94977426168,1.30652288296,0.008681754497126314,0.0929196026107511,1.2356029233281084e-05,0.01688647191997461,0.00350544418908197,-3.5625969162155285e-05,0.3107772110870983,0.48399806068408224,Null
-1.0786379859517263,-1.23425292968,-0.94274902343,0.006208217529336507,0.07855739210008596,0.06584748767428572,-0.10961914062,0.23229980468,0.005462282163557025,0.0736869634280728,0.18163045247,0.04724121093,0.32470703125,0.0060904560361927694,0.07780876121422074,1.1011772884391666,0.97522391321,1.27652542779,0.005884258161882565,0.07648027729866624,2.2077728983892306e-05,0.015704441689990745,0.004684689309913386,4.980064234382233e-05,-0.8624841177659417,0.5864940076114097,Null
-1.0022988809082163,-1.15234375,-0.86120605468,0.004259595226792695,0.06508894213097145,0.09455632389805406,0.00402832031,0.20397949218,0.0028977974111109215,0.05368550680883187,0.1805175781207027,0.02465820312,0.32275390625,0.0051450231802000965,0.07153469259101423,1.0266941894544324,0.88471642835,1.18893990931,0.004288680742793822,0.06531078536294496,6.101170935852142e-05,0.04124389628998415,0.007789859840520999,0.00010428623858168387,1.5918344770792592,0.8900336068093609,Null
-0.9947503131335325,-1.06726074218,-0.90966796875,0.0008703164873748747,0.029420851559144725,0.11285798445630435,0.01098632812,0.20202636718,0.0016063327838595073,0.03997002269679128,0.17634582519097827,0.03845214843,0.42456054687,0.009634245054720427,0.09788710347767535,1.0221338708336414,0.95316134836,1.11313477606,0.0006539385524386205,0.025502637874672326,1.7675813948882157e-05,0.01755495336999502,0.004192821215200838,4.335384486645775e-05,-0.7995832701530086,-0.18396799670405992,Null
-0.9788145585458523,-1.03491210937,-0.85791015625,0.0013094005873900757,0.036082694069669456,0.114112854,0.05041503906,0.17541503906,0.0006227517819970431,0.024883999268592916,0.21575997092147728,0.11181640625,0.48254394531,0.008823213406366869,0.09366472928489417,1.0139704161680112,0.97959566948,1.05539502324,0.00021150111035321797,0.014501703330951793,0.006005443369879699,0.35397734363994005,0.07727432647749728,-0.00041500235698063416,1.7824105552953018,1.046225777328281,Null
-0.9738848055978947,-1.02099609375,-0.93579101562,0.0006246872064546634,0.02492055506798452,0.08880508154836257,0.03173828125,0.142578125,0.0006300293993505673,0.025026885880952605,0.16987119083122806,0.12377929687,0.27795410156,0.001194033861210963,0.034453609492357026,0.9934524911757311,0.94890247774,1.04461554199,0.0006847610725339545,0.026091313148582262,6.168105316777434e-05,0.0345663574299806,0.007830730825057934,5.710531552048264e-05,3.2022648698231366,1.8551657779664812,lift down
-0.7636165028959279,-1.29760742187,-0.04382324218,0.16436787004266928,0.4043768205283207,0.22564823110974225,-0.07116699218,1.23388671875,0.08815585319803172,0.296144291830197,-0.06865825849860822,-1.03234863281,0.51098632812,0.24706356497209558,0.49577216686832226,1.0372348314372681,0.5685327272,1.77639841363,0.060207593035122596,0.2447391358516569,0.011101219832877377,0.3677055551600006,0.10509042320893792,0.0018317789544910295,-1.017778500618851,0.4917416358406808,lift down
-0.9931716445036646,-1.00659179687,-0.978515625,4.79738580817311e-05,0.006904772538464357,0.1138332201056522,0.06872558593,0.1416015625,0.00018214137982233494,0.013453998175419224,0.16928953561285714,0.15576171875,0.20349121093,0.00011229904147552938,0.010564162621862048,1.014114969957702,0.99948086525,1.02616702522,4.469345504537032e-05,0.006664522184351226,0.01589610423976446,0.43127187378001963,0.12568759156359807,0.0027019717222275114,-1.2012211287773502,0.030415851521164584,lift down
-1.0022097856533847,-1.04479980468,-0.97900390625,0.00039050428128399443,0.0197104463477144,0.10727539062179486,0.05676269531,0.1357421875,0.00044843287200709074,0.021121865832667536,0.17466884514841022,0.150390625,0.20349121093,0.00012030779070414793,0.01094033032750364,1.0232177956493849,1.00177623533,1.06745631182,0.0004235096067386321,0.020526513649461054,0.014445605471509249,0.41288947941995957,0.11988129730466811,0.0021269832057358995,-1.1860229749281228,0.06414255904155582,lift down
-1.0020751953088136,-1.04602050781,-0.94396972656,0.0006549292328587307,0.025519190185061453,0.09614312985180792,0.03125,0.1328125,0.0009546630690588535,0.03081021733771938,0.19213453389548021,0.1240234375,0.24865722656,0.0005589259446634993,0.02357473586203747,1.0256038206561018,0.97087357404,1.07016066706,0.0006103959361947897,0.024636301905592888,0.0009332220362835823,0.12330753068999911,0.030462265106203517,0.0005626126542155758,-0.2795387892300294,-0.8750217587438454,lift down
-0.9907976233398914,-1.03869628906,-0.93835449218,0.0004716505446833737,0.02165842160698112,0.17346058720739133,0.02014160156,0.35595703125,0.0054133273846365655,0.07337511245041718,0.11722597868217392,0.03491210937,0.2353515625,0.0013399522908690838,0.03650575216951688,1.0160071364688044,0.95813197459,1.06760356047,0.0004279244233405246,0.020630044767928096,6.387663273578148e-05,0.031089027630059718,0.007970538069859964,0.00013244782445715806,-0.8612509351995801,0.28742081396349406,lift down
-0.9948860330746276,-1.18481445312,-0.86242675781,0.005586932677026561,0.0745467299753725,0.11530060463473404,-0.06994628906,0.24792480468,0.004923822141688828,0.06998308080087623,0.19709355780127663,-0.03405761718,0.38293457031,0.007696029134417177,0.08749338723145943,1.0269051451898403,0.8975365392,1.23058513514,0.0055435679649503905,0.07425685760458113,0.00016795996200808376,0.0630841956800623,0.01292542293137247,-0.00010068147151132065,1.4246633907214132,-1.3016808687130141,Null
-0.9946127201272373,-1.16577148437,-0.82397460937,0.004514605702419476,0.06700494854470028,0.14874436183038672,0.00280761718,0.37438964843,0.007999086646150299,0.08919020572504888,0.18829581750359117,-0.07873535156,0.30200195312,0.008290115096528272,0.09079820127989031,1.031162339080442,0.83807417275,1.22476320654,0.0042512504214165525,0.06502124921921687,4.2257974909751966e-05,0.02375679565000155,0.006482631058074526,-5.802959889402939e-05,-0.29418837218038485,0.7630493128504646,Null
-0.9855936572506703,-1.171875,-0.89660644531,0.002299394747356971,0.047817872878720566,0.1468962770565922,-0.09423828125,0.28649902343,0.006187106444618005,0.07843813870908257,0.21785663625737436,0.09912109375,0.38781738281,0.005611875155145735,0.07470290420924583,1.0255639461145252,0.91420133465,1.20275715988,0.002688111667726054,0.05170197563060306,2.825018311644807e-05,0.01970129784990604,0.005300222718377113,7.304049184356936e-05,-0.5539204307017784,0.6677765424226352,Null
-1.0021139361863471,-1.29150390625,-0.82836914062,0.011120152417748788,0.10513593428852169,0.16216273507281437,0.02014160156,0.32019042968,0.004824785680804529,0.06925239886519559,0.19065409220215568,0.02233886718,0.41247558593,0.008169176585115316,0.09011248171066395,1.039121691092096,0.8443942789,1.32297178651,0.011140616786669931,0.10523263042664206,0.00013792362987952275,0.049492064329911045,0.011708874407057417,0.00013975907854103477,0.9433139340938421,0.9662133301503657,Null
-0.9860111359587636,-1.10510253906,-0.89697265625,0.002071443019496224,0.045390596262539065,0.1922331779198925,0.02392578125,0.33020019531,0.00615045915716382,0.07821375948289332,0.18315075289435487,-0.00134277343,0.43640136718,0.014601831452231949,0.1205127668840885,1.0314148541469892,0.96019444773,1.11720639326,0.0016088268494951318,0.04000221547336367,1.8961881218079376e-05,0.01677746570999261,0.0043428027378793884,3.794851596365345e-05,-0.2505879820471848,-0.6895338787300449,Null
-0.9855004614485715,-1.01013183593,-0.95971679687,0.00012676337219907558,0.011227950398626889,0.14453460357598902,0.09204101562,0.24816894531,0.001853623184589006,0.042935282016268846,0.17460347269587914,0.02026367187,0.30895996093,0.006389004872474018,0.07971135709607376,1.0152877980534616,0.97472138611,1.0292817681,0.00010243956351190446,0.010093399267210902,0.00019665886830856643,0.04894079245002558,0.013984932072630948,-0.00019572359176566593,0.04248213596592576,1.1543755468612835,Null
-0.9873386729814206,-1.02685546875,-0.95703125,0.00026716090591900817,0.016298556568797327,0.1546221646359091,0.00134277343,0.25500488281,0.0032795173118069813,0.057104147754056964,0.15713084827397727,0.056640625,0.28100585937,0.0031972888363587856,0.05638370706610056,1.0146530407423295,0.96763559816,1.0471475161,0.00024739721024426325,0.015684117580436786,1.4875983819309758e-05,0.015258592570035034,0.0038459668724486916,-1.6124156529288687e-05,-0.5697356600379719,0.06621736759964451,Null
-0.9815966212071854,-1.07666015625,-0.76025390625,0.0033324323521134436,0.05755412815229025,0.18258868005772458,-0.00024414062,0.3642578125,0.00628749917524975,0.07905598952381515,0.106438733855988,-0.017578125,0.32006835937,0.0076017010386158846,0.08692630137490022,1.0117365551734132,0.86774276449,1.07680519839,0.0017176944537972223,0.0413208041822216,0.002721233750285665,0.3116310404200249,0.05200902746071785,0.00041585287562434184,20.795729072257156,4.445662036567132,lift down
-0.8470641763410697,-0.94384765625,-0.69226074218,0.007960062979426884,0.08898031129254784,0.4649997649948663,0.21997070312,0.76159667968,0.017657982208754808,0.1325275612708863,0.009169634650855593,-0.30688476562,0.41345214843,0.04715647038822208,0.21657399832339613,1.0022170427040642,0.86774276449,1.13228550195,0.0017824607203442242,0.0421061616017699,0.041301589312941464,0.9006552355199346,0.20268380596132615,0.0023107811711777122,4.740400510909968,2.1441196213501703,lift down
-0.9123447963130221,-0.93310546875,-0.8837890625,0.00017244266471384666,0.013095616730230358,0.4157372778554395,0.37133789062,0.46337890625,0.00043496906993649,0.020798536727178286,-0.17429360190186813,-0.30322265625,-0.1083984375,0.001666203688567381,0.04070686334324449,1.0186415669501647,0.97969291965,1.07316393996,0.00022046367266693589,0.014807171701784529,0.03520437340078964,0.7483862772400016,0.18711211285672658,0.0028989026799746435,-0.9624962539999831,-0.02599634904652443,lift down
-0.9413283181010734,-1.07629394531,-0.78076171875,0.0015048036570752853,0.03868206227049676,0.34977075608677966,0.23425292968,0.54235839843,0.004853133844000522,0.06946736650200354,-0.20744642699118646,-0.33349609375,-0.1494140625,0.001100920184765303,0.033086255404862326,1.0279818686943503,0.93256590537,1.25051226847,0.002154773088310841,0.04628821911733964,0.0973416193321802,1.0060955671900729,0.31111359128232563,0.0015985946642119021,-1.293398458720729,0.18902896363296584,lift down
-0.9266647338819375,-0.97534179687,-0.87341308593,0.0003725456155970375,0.019241029221420458,0.4534034728964375,0.27331542968,0.5390625,0.004818745598894723,0.06919991646600183,-0.13331222533787498,-0.33020019531,-0.02209472656,0.005828299574343161,0.07610435402789723,1.0450290334376875,0.98856856953,1.10947736079,0.0009252078499721832,0.030322026662310306,0.05386329032048578,0.8740937629100927,0.23135826061755985,0.004491968524523629,-0.9683394894969806,-0.21941383583662613,lift down
-0.8727030329640837,-0.91174316406,-0.84240722656,0.0003308946040676184,0.01814282700092764,0.5254455885927748,0.46508789062,0.58813476562,0.0011447712996228135,0.03374578096013013,-0.07509241553204189,-0.13110351562,0.02734375,0.0018468890759269008,0.04286279855087798,1.022934489235445,0.98408735704,1.05947251813,0.00025404138354446495,0.015896896676545258,0.012484864690854322,0.48233189991003655,0.11144280554227165,0.00011505392303155069,1.1939524121052836,1.2098392798765811,lift down
-0.8343112521668333,-0.896484375,-0.70190429687,0.001957749463921168,0.044123384707097146,0.5295260959163888,0.42309570312,0.69396972656,0.0037327191776060455,0.06092603588648754,0.02923583984366666,-0.27404785156,0.51513671875,0.05330257050989954,0.2302312861410844,1.017352952280722,0.95342571173,1.10823395974,0.0009916658665312793,0.0314031306037665,0.017749121002580415,0.5157772055999885,0.1328552399222112,0.0008156017342461039,1.8088680884072756,1.6903855826869274,lift down
-1.0076715284743871,-1.22827148437,-0.82824707031,0.007653272024656943,0.08720032153673958,0.09605516002767744,-0.27868652343,0.31848144531,0.012061385549583166,0.10946949419331714,0.16202983240664517,-0.12890625,0.33642578125,0.009482774369191338,0.09706490189410735,1.035224090084903,0.83419273686,1.24864083545,0.008255576158652685,0.09056662948892356,0.00014306881416714922,0.05387321615990004,0.011922490912540853,0.00015294716354595863,0.18886433156118976,-0.6130779213108007,Null
-1.0055751702680513,-1.19604492187,-0.91589355468,0.0032399792181959444,0.05677467692690038,0.14501953124635897,-0.09228515625,0.41833496093,0.010684800977361965,0.10310192590924773,0.17089718549317948,-0.22827148437,0.3037109375,0.011443588381428869,0.10670006238426553,1.040533921143795,0.9441200333,1.20317258988,0.003965705794456548,0.06281217112681636,2.8032581126649672e-05,0.026451154929986842,0.005280987057393643,-2.464439588110932e-05,0.9117485448273963,0.5215938399361032,Null
-1.054158528641356,-1.22937011718,-0.87365722656,0.007144914206197367,0.08428847761865021,0.09451552568717515,-0.13513183593,0.30834960937,0.014939887870283268,0.12188306578078628,0.17185362045039548,-0.18286132812,0.31201171875,0.012355471331902264,0.11084072540868341,1.08432838383774,0.88437435096,1.29298002693,0.008241267397171539,0.09052461855439743,1.9002401558970532e-05,0.022178615510028976,0.00434684291849526,-2.838565990690836e-05,1.7042621354416614,0.9429800104922318,Null
-1.0831637175153261,-1.26330566406,-0.87255859375,0.009474540901957072,0.0970723896473026,0.08026985499923914,-0.0791015625,0.33203125,0.008140377096145755,0.0899785303073761,0.2063638438320652,0.01318359375,0.37890625,0.007199949238151428,0.0846216230005572,1.1117683718127718,0.8914317526,1.29611961932,0.010983709943424593,0.10451801695231838,0.0012285045013182316,0.10756599783007914,0.03495465414533182,-0.0006482876738808632,-1.288431532706989,-0.2482159038430035,stairs up
-1.073136763135974,-1.2275390625,-0.91516113281,0.005645569256703054,0.07489265462029712,0.07046786221441559,-0.19311523437,0.26501464843,0.010476345382891616,0.10202116038410655,0.20831298827785716,-0.06005859375,0.38305664062,0.010421462746470815,0.10175357934959718,1.1044559493466233,0.95225799712,1.27915406922,0.0065732905325723455,0.08081217004768144,0.0014375528642193564,0.12411422343996037,0.03779177298514571,-0.0008432220537779157,-1.1862346957686858,-0.05431966840002382,stairs up
-1.0545741937059487,-1.23596191406,-0.88403320312,0.010625046014938362,0.10281322190981634,0.07482471954887178,-0.0673828125,0.20422363281,0.005528269258382929,0.07416143984323653,0.2060240134176923,0.05871582031,0.30383300781,0.003363479864836082,0.057846618312089905,1.0811848406246154,0.91213183814,1.26404620821,0.010682192678970729,0.10308934088301251,0.0014480003463005944,0.14119432031009183,0.037954903550121856,-0.0006710149556561746,-1.232764811994975,-0.048241404661185455,stairs up
-1.0798048862153489,-1.39074707031,-0.87158203125,0.017232342005771055,0.13088985434652214,0.04966558411947675,-0.10729980468,0.27905273437,0.006044488609119024,0.07751997312618607,0.2159523187639535,0.00122070312,0.61791992187,0.014853167852804241,0.12151877314124371,1.1110262753430231,0.88383142359,1.40215812984,0.01871842248409947,0.13641698738207503,0.0014472295624935237,0.12229842261990598,0.03793172072461503,-0.0007577957266960659,-1.2840108539436006,0.0804309376952142,stairs up
-1.0412791418606877,-1.18994140625,-0.87854003906,0.00803925186068907,0.08942435986104927,0.07185032758497353,-0.05236816406,0.22875976562,0.005491434056334641,0.07390790789683718,0.17476981026365085,0.02368164062,0.32800292968,0.006953488525764104,0.08316668552481421,1.064002702467143,0.9042496226,1.21296503081,0.008287096208808607,0.09079234075031181,0.0007493590375324467,0.08457062538991522,0.02730190789853339,-0.0004838056072439424,-1.2697430500876945,0.3772090037633096,stairs up
-1.1234371889892356,-1.244140625,-0.93286132812,0.005682028340951612,0.0751387854415644,0.08961127214178344,-0.07312011718,0.24780273437,0.01016503109775294,0.10050017749610268,0.15651435608751593,0.00659179687,0.32983398437,0.010599402442851598,0.10262499854022511,1.1465035791255416,0.93593738186,1.25239486161,0.0064869154239930475,0.08028447852079597,3.254604083616332e-05,0.018852207960094347,0.00568671620647655,9.21906919574121e-05,-0.5988534191688482,0.7312553827607949,stairs up
-1.0915098799,-1.20288085937,-0.93798828125,0.004519354598194458,0.06704711386772212,0.07171241273005319,-0.08483886718,0.21960449218,0.007015095898455295,0.08353311653811256,0.15945564431962767,-0.01538085937,0.33288574218,0.011550979198727922,0.10718926168236856,1.1135414846557978,0.96607282093,1.22820660778,0.00497706110204208,0.07036041055008065,2.2156576711838047e-05,0.022548612879973007,0.004694541785988501,4.5057017041986026e-05,0.2402485343987455,0.0022230323222844454,stairs up
-1.0891005572111176,-1.21142578125,-0.85766601562,0.008388454011131743,0.09131872844059666,0.0699017692995294,-0.0771484375,0.21667480468,0.005401990239457463,0.0732817427896211,0.19693388097035291,-0.05236816406,0.37243652343,0.008238591248950848,0.09049933119911124,1.1148188465233528,0.86630491071,1.2336964553,0.008940216424118613,0.09427421129737147,0.0010237745802054552,0.11102276765996066,0.031902231533115076,-0.0006461933760796425,-1.280112096503921,0.09231162295146934,stairs up
-1.082522693689171,-1.35766601562,-0.85925292968,0.010333352168990681,0.10138940518701774,0.05860766474911917,-0.07067871093,0.23937988281,0.005762106388801008,0.07571162998697033,0.18864164203844558,0.00402832031,0.333984375,0.007986446535329407,0.08913509961475828,1.1061045722534195,0.87983503645,1.38405885401,0.010794752263403208,0.10362828235827067,0.001701735028861625,0.14207415604994367,0.04114508170996063,-0.0007332619700298956,-1.0461420063205926,-0.18539492373412242,stairs up
-1.090692967541111,-1.20092773437,-0.93383789062,0.005301908371000958,0.07258912137194068,0.07592547381166666,-0.07751464843,0.38525390625,0.008535704714607397,0.09210328538837277,0.20173776885209874,0.05480957031,0.30102539062,0.004932162324045121,0.07001226233739628,1.1176452473655558,0.95379583796,1.23321921525,0.005631731812594982,0.07481288683090652,0.0015561102816636415,0.1419246665400351,0.0393256234869967,-0.0008372886108340179,-1.1582286340240313,0.018262381623861165,stairs up
-1.0916808411271428,-1.42126464843,-0.88671875,0.013276680773329027,0.11490749313195887,0.031192989139175824,-0.15893554687,0.3046875,0.007562607633488346,0.08672401538382177,0.17070862486752747,-0.0634765625,0.3935546875,0.01168493119309765,0.1077994817912139,1.1140833747416483,0.88890509427,1.43042695876,0.013117318458936655,0.11421578385052938,0.0011932860419489727,0.12045868135999171,0.034448940843442015,-0.0006506343365247555,-1.0027883573826855,0.09956010813153597,stairs up
-1.132782505576457,-1.60864257812,-0.68225097656,0.03188871827209784,0.17806318267634302,0.07149623325725712,-0.14294433593,0.27758789062,0.00978223850532919,0.09862220845014805,0.1947202845946286,-0.03942871093,0.38549804687,0.01084415821291229,0.10383733237402043,1.160062351616057,0.69441437311,1.62069574089,0.032882172653852244,0.180815581531022,0.000638403599245418,0.08117921781001769,0.025194356087788815,-0.00046523529344632365,-1.0611279933179645,0.5631224353886937,stairs up
-1.1217590009054499,-1.33874511718,-0.82897949218,0.016442601570845438,0.12788902876688132,0.08213975694248676,-0.17443847656,0.2724609375,0.013959996137511465,0.11783944044370491,0.16184714988132276,-0.12951660156,0.38647460937,0.02024171642849576,0.14189650242262336,1.1508546502731216,0.85892359408,1.38665640247,0.017286085222596226,0.13112827480838257,2.8675277392824425e-05,0.02662682205004785,0.0053407449244855295,-3.0178659331785266e-05,2.4653779411326395,1.3736342600524698,stairs up
-1.1000447100856625,-1.28845214843,-0.93835449218,0.007484271740543856,0.08625071458372521,0.06683790827265061,-0.11218261718,0.27416992187,0.011270068204359208,0.10584033365038356,0.18806402366981928,0.01489257812,0.35400390625,0.009874528203166574,0.09907089932724414,1.1271501198724698,0.95216707651,1.30485235531,0.00797077625244032,0.089009884440033,1.7793931257161487e-05,0.017024458800051434,0.004205560473966655,2.0801376354801723e-05,0.20749708118738708,0.8536876307628812,stairs up
-1.0389886153328947,-1.27258300781,-0.8486328125,0.011920718714364623,0.10889434369861539,0.019906455590999995,-0.25341796875,0.15283203125,0.009413404673018889,0.09676704210575901,0.21222887540773688,-0.03161621093,0.50500488281,0.01780493725479951,0.1330835341382307,1.0734212796722629,0.85080715241,1.28882852222,0.011696085602273929,0.10786346581210342,0.0006573508254653751,0.10879511858001933,0.0255712941455593,-0.0004126876129054565,0.9954388845447735,-0.873103520386471,stairs up
-1.1201186152187719,-1.25146484375,-1.00451660156,0.003568166667651134,0.05955921587722998,0.07231630916333334,-0.11694335937,0.24584960937,0.010631518111033663,0.10280732216384834,0.22015773482824563,0.11950683593,0.29956054687,0.0032705556446263966,0.05702130819461329,1.1497427714238013,1.02913102726,1.28441388565,0.0038469203789826324,0.06184192565387356,0.0012095889746850342,0.1128775537600859,0.034677303167201946,-0.0006942874444129496,-1.2408849266896345,-0.26147303732499766,stairs up
-1.1450914884827894,-1.31469726562,-0.90734863281,0.006788089948626218,0.08217276409749719,0.030136590254368417,-0.22106933593,0.25085449218,0.013500038924936647,0.11588350222740773,0.2272505910740526,-0.00573730468,0.4052734375,0.011322769691609147,0.10612811204820552,1.177840010816526,0.91167557261,1.37593621654,0.007964917161775917,0.08901121583898847,0.0017072811227185085,0.14396483072994215,0.04121038015596237,-0.0007478015358340429,-1.0674750090347882,-0.03612827967420481,stairs up
-1.141721478627353,-1.8466796875,-0.56311035156,0.05698676971179593,0.23801586799911809,0.0599896599244706,-0.24267578125,0.32690429687,0.013356207018473782,0.11522864702336699,0.18345229204752939,-0.51953125,0.6689453125,0.03859918910265272,0.19588806765371827,1.1814645285737646,0.6554007371,1.93365718853,0.053539271689537,0.23070399822553056,0.0008618222342799279,0.09461558633006462,0.029270338086966816,-0.0005351187116333726,-1.1703140656814401,0.46787791431005754,stairs up
-0.8283665294914972,-1.11218261718,-0.54870605468,0.041023145593402435,0.20199943188850134,0.4382428663902674,0.04345703125,0.9013671875,0.11140611035783113,0.33288189460676154,0.12683888807465243,-0.11242675781,0.59228515625,0.01974199706081784,0.14013002848790843,1.0293064492864707,0.7833252714,1.20838176147,0.006147680529787199,0.0781972201093905,0.0002172585078196639,0.056979528799956825,0.014700227808351125,-0.00015602918297673483,-0.49506905882738517,0.17984699756514597,Null
-0.6116276308450274,-0.73693847656,-0.44091796875,0.00627001950986483,0.07896681016839657,0.814366408380765,0.68823242187,0.94287109375,0.004440083579864016,0.06645164277925325,0.01997083653431694,-0.06787109375,0.15490722656,0.0029611682397209555,0.05426773435946415,1.0248108753848635,0.95254962,1.09044076434,0.0010447840483769285,0.03223468389680255,4.286842075124946e-05,0.026368783249949956,0.006529484442583663,4.266944604876399e-05,-0.34357439924992406,-0.2037114744984218,Null
-0.5885707310229142,-0.75268554687,-0.37780761718,0.010759907452000771,0.10343317778431042,0.8283949497732,0.70690917968,0.97961425781,0.005084718881793975,0.07110318801099273,0.051911272318342846,-0.14831542968,0.2080078125,0.006771740165189745,0.08205513090052897,1.0280748268154287,0.95769792808,1.08807010642,0.0009029185429374399,0.02996262686091406,1.6201735190612e-05,0.016108644830069352,0.004013621039244443,3.622534321645422e-05,-0.5007274800920452,0.18831430013135012,Null
-0.6153207843180337,-0.74096679687,-0.44812011718,0.00759141886385756,0.08688366039293055,0.8090635149625842,0.70068359375,0.93298339843,0.004492071296547156,0.06683438442110899,0.04117335630162921,-0.08239746093,0.15197753906,0.005166277946423797,0.07167463925976135,1.025577970908764,0.96812870498,1.0521689827,0.0002427326789804031,0.015536055234343052,1.9761741933746617e-05,0.020535461700092128,0.004432913366133712,9.0296729908917e-06,0.15432054050340804,0.28808070169629396,Null
-0.7304472489752274,-1.29296875,-0.53442382812,0.042582097014299734,0.20576723082469653,0.6675727150616477,0.0087890625,0.93786621093,0.06468416882350198,0.25360726554459123,0.08642300692289773,-0.04895019531,0.34411621093,0.012349386207105708,0.11081163855850107,1.0460740980175567,0.83583248227,1.3424307646,0.011405251237046405,0.10649154273086454,6.720619415046385e-05,0.02975046452991137,0.008174615634671084,0.00013720176516755013,-0.5370208106109713,0.6118468611805921,Null
-1.0090454101521578,-1.20251464843,-0.85693359375,0.004888331850593251,0.06973237259854069,0.13222463507142104,-0.18041992187,0.48779296875,0.018829216602696,0.1368580120514755,0.17962967721689474,0.03137207031,0.33996582031,0.007024184844627624,0.08358956544155814,1.0460022990139473,0.87283235513,1.23228329273,0.004405124833688265,0.06619622320149796,2.8339275596679905e-05,0.025272657749951577,0.0053094370242608695,3.091929763656281e-05,0.4345342330625743,0.0552816782958983,Null
-0.7988954486233332,-1.06506347656,-0.47766113281,0.01955584135105841,0.13941779334233467,0.2512103456401818,-0.17785644531,0.66320800781,0.05510822200299912,0.2340389556863099,0.47212653882187877,0.12341308593,0.77795410156,0.04370332518318202,0.20841894478599635,1.0197299495936967,0.9024567719,1.16792625809,0.001958739316376948,0.04412332907890073,0.08688435719982646,1.5166626464400679,0.2938669517622037,-0.0018679710400069153,5.981382721338326,2.417474833350038,Null
-0.6623495778692473,-0.70922851562,-0.64599609375,0.0003850654819866831,0.01957026411318644,0.6090744182586021,0.56225585937,0.6240234375,0.00039417600603795176,0.019800423737865763,0.4883600050370967,0.47143554687,0.5078125,9.171564682308745e-05,0.009551049782494828,1.0242123963633334,1.01462189214,1.0415918069,2.9505136842822094e-05,0.005417241648186827,7.816001757336302e-05,0.048054590430069766,0.008817017773891529,0.00011251637183474108,4.598492604609821,-1.9958482465121379,Null
-0.8129150390584118,-1.23181152343,-0.36999511718,0.049742283976207766,0.22237284525265102,0.3573199103834706,-0.20581054687,0.67297363281,0.0695156606145349,0.2628816177747337,0.4378346162646471,0.01098632812,1.00659179687,0.04841400027021114,0.21938370958967654,1.0663689474103528,0.76310168197,1.29299238707,0.009810957798460598,0.0987585251104889,5.6498423716640516e-05,0.032535448969952085,0.007494403248272614,-2.3306502134180485e-05,0.03222888023320358,0.4074889763550583,Null
-0.8228633919900514,-1.224609375,0.03686523437,0.1410008060448344,0.37453170462092095,0.38863223360726806,-0.08666992187,1.05236816406,0.11604641173561264,0.33977674192847895,-0.0945862445631443,-0.70141601562,0.29284667968,0.10260486870224597,0.3194933138994636,1.0868692669664948,0.73601633649,1.30866651759,0.013669600668507418,0.11661534551417922,0.0006686248510921688,0.14997688026994638,0.025791051379134938,7.601534647072145e-05,11.879010109808018,3.4125029866464804,Null
-0.44632800517294474,-0.46838378906,-0.38220214843,0.00064424484337827,0.025304000099317422,0.8216927183147853,0.64453125,0.88598632812,0.0014060557865625174,0.03738221070833695,-0.43798004337269936,-0.66369628906,-0.38525390625,0.003724767125837387,0.060843370992878384,1.0352470867474848,1.00466295215,1.07003043279,0.00021857816995984118,0.014738968742486341,0.0005325507182615319,0.0998829759499813,0.023006162999094592,-0.0004282699118944069,0.011352282022244697,0.8245279939628191,Null
-0.4693024625451031,-0.50061035156,-0.42041015625,0.00024141428161451146,0.015497415207092911,0.8376074722106186,0.80883789062,0.98571777343,0.0011164249676813497,0.03332671900752763,-0.3739076594684021,-0.41589355468,-0.17749023437,0.002873200169261831,0.05346391174531655,1.0322458767867526,0.98373374791,1.09980558741,0.00031733218852386864,0.01776784892983203,0.00027020425762252473,0.07367885592009316,0.016395470477264817,0.0001661301232680865,0.8054000482724555,-0.9948084997711996,Null
-0.4996289885412359,-0.64172363281,-0.40637207031,0.0017697299877554027,0.041949823413852484,0.7930421293413482,0.70922851562,1.00463867187,0.0038196573048436817,0.06162952665679062,0.09462232268252808,-0.45837402343,0.55419921875,0.14792789360339023,0.3835320560544434,1.0193579953228091,0.90076911071,1.12217084469,0.0010684331188738978,0.032594948774646006,0.06996096349174734,1.3251429391999636,0.26375732098087284,2.2919293730486148e-06,2.645822935702201,1.4908859600628555,Null
-0.4840275691065384,-0.55676269531,-0.34631347656,0.0061126991607096375,0.07796866615240292,0.8272242284041209,0.76330566406,0.87719726562,0.0011312404094551854,0.03354138939891768,0.3391119988368681,0.24340820312,0.45227050781,0.004627535438243353,0.06783884889465554,1.0223634666886814,0.99030306726,1.04655806882,0.00015962564120692712,0.012599546707888013,0.010401260055661152,0.3960842047799815,0.10170599920916927,0.0003824481072627397,-0.7140077125010444,-0.04375195828691296,Null
-0.3740474281933525,-0.41101074218,-0.34216308593,0.0003584657399858368,0.018878391978273484,0.8654636978366472,0.83056640625,0.89172363281,0.0001017276674879507,0.010056820883788196,0.4107136809021386,0.36364746093,0.46838378906,0.0008169487539702741,0.02849958783627402,1.0288982386150292,1.00983118844,1.05118569315,9.76279792687512e-05,0.009852088899779734,0.008431031742472079,0.36822788025995123,0.09155488766277493,0.00021045768695529627,1.486523690663959,1.544285631731799,Null
-0.42755998883554935,-0.49133300781,-0.40368652343,0.00033205291278748665,0.018172188812405326,0.8776285360105495,0.85327148437,0.96130371093,0.0005027186888954091,0.022359707026190723,0.2791721218202198,-0.20935058593,0.39416503906,0.026177888573847587,0.16135071744880478,1.028442378851209,0.99588283474,1.06932363982,0.000147789254138547,0.012123416402551464,0.004140403970274742,0.36856998631003535,0.06416895275684803,0.0006115498610655376,2.6411014308814798,1.652113395175928,Null
-0.5901532616078687,-0.68054199218,-0.3896484375,0.002750414373973856,0.05230090617982473,0.7975640635631694,0.72619628906,1.04113769531,0.0045830694130161035,0.06751314922193313,-0.2809484929944809,-0.33544921875,-0.12292480468,0.0024999258597235906,0.04986246145825455,1.034716803473388,0.99262094416,1.27171927653,0.002475703606259775,0.049620310068084934,0.006535390166987493,0.43771580169004665,0.08062057834333483,-5.188722998816066e-05,5.126480873286365,1.780003637087383,Null
-0.5959185019274712,-0.62023925781,-0.58203125,7.023505901502839e-05,0.008356518967283818,0.7767102471679885,0.75720214843,0.79174804687,6.592883034933855e-05,0.008096291066006197,-0.28847600125247125,-0.306640625,-0.27185058593,5.3524571027236656e-05,0.007294995445513906,1.0206592792255749,1.00842816377,1.03208985952,2.333285136357532e-05,0.0048165085400794444,0.0005810124498003671,0.13624634655991485,0.024034835089719674,-2.3973595112169192e-05,0.8175927618074761,0.0042299371028285855,Null
-0.6448735924365921,-0.66821289062,-0.59643554687,0.0004302990031626045,0.020685625398256715,0.7377425039240223,0.71691894531,0.78149414062,0.00020453697241785832,0.014261637625724447,-0.3010219808362569,-0.33361816406,-0.27722167968,0.0001381984637951224,0.01172290089261896,1.0253922301172067,0.98439859937,1.03674874079,8.012310890654512e-05,0.008926113027123789,0.004756332023354233,0.25629373611002393,0.06877325305722366,0.0004182844305145342,-0.767455114427642,-0.39449674186613615,Null
-0.8987655639611932,-1.64501953125,-0.22839355468,0.0981036368281813,0.3123239180734457,0.44301605224312496,-0.65991210937,1.16760253906,0.16278006270976955,0.4023122866503429,0.053911382501420475,-0.30932617187,0.80615234375,0.09382219028720777,0.30543265978047585,1.1377802109103976,0.50287589368,2.03801952741,0.07210649530383988,0.2677625801111786,0.0046799556660256,0.27717452628007777,0.06821557746462513,0.0002073448244063261,1.334329943879073,-1.4530452194909058,Null
-0.878182269153936,-1.12219238281,-0.68469238281,0.016574534829725825,0.1283992695088986,0.30902878781271276,-0.14758300781,0.61853027343,0.038244779593773565,0.19504191835367923,0.3648694626789893,-0.06164550781,0.64123535156,0.027618645344969453,0.16574600344190593,1.0391508178600533,0.93720923524,1.18632256962,0.0020083347048417527,0.04469510122410531,0.0015763669753476623,0.27054983330992854,0.03959775302498524,-0.00013769182979954473,7.451497627530584,1.413172265305791,Null
-0.7744097286387575,-0.97705078125,-0.67700195312,0.004834737964607736,0.06932625799549111,0.28574420996408284,-0.15539550781,0.71142578125,0.07419211109675186,0.27157522810855717,0.5184542864703551,0.1796875,0.86999511718,0.034988966076159034,0.1864991441640772,1.028000331720651,0.88349580061,1.29282123611,0.006751461302810743,0.0819238172184755,0.050580926871028206,0.9786034720100361,0.22423566051312147,-0.001456749449018657,0.8169447147002109,1.1580304044695362,Null
-0.8011378598977527,-0.83605957031,-0.77746582031,0.00028553646321106887,0.01685029156356942,0.5366066921928652,0.47338867187,0.58203125,0.001063230223149839,0.032515488919113565,0.3504631813952808,0.31091308593,0.39245605468,0.00044830614854803665,0.021113682167726907,1.0267936787090448,1.00674605315,1.0652101537,7.519491098458017e-05,0.00864710747385749,0.00039712273513252844,0.08674790190002568,0.019871882360024688,0.0003129362220355964,1.794672861913873,-1.5940887468832925,Null
-0.7892289595135228,-0.83374023437,-0.763671875,0.0003490615510447893,0.01863003614536186,0.4812330766122159,0.4658203125,0.51501464843,0.00013435550905333874,0.011558205980132559,0.43443991920823866,0.31481933593,0.47631835937,0.002431655030783554,0.04917152437150732,1.0227783171285227,1.01143378585,1.03500044027,2.8855106908810794e-05,0.005356412739673634,8.252508123795618e-06,0.012760899770000833,0.0028645451424427286,1.9001794612056713e-05,0.5168933587611395,-0.7040404973475525,Null
-0.7723375685638296,-0.79260253906,-0.75561523437,4.8996769393200236e-05,0.006981128009097571,0.4741671947688829,0.45593261718,0.48742675781,3.9431037287282734e-05,0.006262690933396283,0.47219264253207444,0.45043945312,0.50427246093,0.000112596864939348,0.010582908175212982,1.021991458201117,1.00995010815,1.03893048301,3.9364213392109265e-05,0.006257381982772144,2.14991750266243e-05,0.018453010279927184,0.004624372142534908,6.364701975998698e-05,-0.797485443104176,0.19857084607593312,Null
-0.8651529947884523,-1.1640625,-0.70263671875,0.01568096852352384,0.12485042821380123,0.31088329496565476,-0.03405761718,0.49719238281,0.034522238337168214,0.18524780382843,0.3895547049341667,0.00622558593,0.63830566406,0.030592348399423087,0.17438535227341131,1.0367418859586905,0.93704978145,1.17301623405,0.002386089767747198,0.0487020210305793,0.0677075751372491,1.3923646905100213,0.25943121218671866,-0.0007233336786398528,8.413966682315873,2.8345426743008035,Null
