avg_accX,min_accX,max_accX,var_accX,std_accX,avg_accY,min_accY,max_accY,var_accY,std_accY,avg_accZ,min_accZ,max_accZ,var_accZ,std_accZ,avg_magnitude,min_magnitude,max_magnitude,var_magnitude,std_magnitude,var_pressure,range_pressure,std_pressure,slope_pressure,kurtosis_pressure,skew_pressure,Label
-0.5137418111127082,-0.52160644531,-0.50329589843,1.2344947288286726e-05,0.003504375934146749,0.5137799580858333,0.49975585937,0.53283691406,6.815865083204301e-05,0.008234297654260469,0.711044311519375,0.69616699218,0.72314453125,3.6446289868341417e-05,0.006021334191185854,1.0166497199045834,1.00212480884,1.02563023991,2.432122735283928e-05,0.004918796020746328,4.167731933151142e-05,0.027912313489991902,0.00643896342278733,9.407267165014533e-05,0.3128121209121173,-0.9212695386695297,Null
-0.4996594238242,-0.51965332031,-0.47387695312,0.00016305713049286254,0.012737419080818461,0.5430004882769001,0.51586914062,0.58117675781,0.00043514015089787155,0.02080779782061,0.7036999511683999,0.68481445312,0.720703125,6.797574123422633e-05,0.00822410253632913,1.0199625270174,1.00595209379,1.03066494992,4.218793964818988e-05,0.006478965963018245,3.286838626762767e-05,0.02461683966998862,0.00571874499661329,2.820516204613905e-05,-0.22186618732045815,0.08512883265525352,Null
-0.5034790039028999,-0.52221679687,-0.48254394531,0.00011732305711093003,0.010804463976772535,0.5587939453084,0.52697753906,0.58178710937,0.0002036653331601241,0.014235413815352312,0.6935449218712,0.67626953125,0.71044921875,9.565361779809717e-05,0.009755785448087032,1.0232899211582,1.00662170706,1.0361619778,3.8829543975848616e-05,0.006215737788546857,1.797552002679034e-05,0.015726657260074717,0.004229142043802311,-1.8823308681384838e-05,-0.6694721386807578,-0.2305569433882625,Null
-1.0067504882774,-1.22839355468,-0.51843261718,0.020415225969623637,0.14252420790790427,0.2341027831999,0.03295898437,0.5703125,0.011500788650222728,0.10697328968939683,0.0830163574208,-0.12255859375,0.70495605468,0.025217583806242127,0.15840295416188083,1.0596975472266998,0.78188832908,1.25025046938,0.009177299681680455,0.09555842811218722,0.0005000777159769935,0.10641995867001697,0.022306441388018586,0.00012568350089279924,1.183066303967478,0.7000307191122659,Null
-1.0230395507774,-1.18371582031,-0.87219238281,0.005595526988761878,0.0746160127172316,0.21938354491899997,-0.10473632812,0.63598632812,0.017618569205881018,0.13240270525881112,0.0159497070304,-0.1728515625,0.29187011718,0.011551939727699618,0.10721091375909973,1.0590502014228,0.93589226035,1.31063845864,0.008038524620261323,0.08943339419456256,0.00011108884121145172,0.04005245380994893,0.010513486434356324,-0.00013899874320139622,0.04213682897870674,-0.94062674638414,Null
-0.4473950195271,-1.19384765625,-0.15979003906,0.033917165827033254,0.183705144179193,0.7267468261683,0.44018554687,1.10327148437,0.027528128281051424,0.16550071794299312,0.19001831054540003,-0.65869140625,0.86706542968,0.20000596910505036,0.44610081737150525,1.0036197734448,0.68062624285,1.38430425493,0.017408611492220886,0.13161142972690398,0.0231563646557213,0.7859123604799834,0.1517912475488712,-0.0006353268744178743,7.19672861801712,2.5096424876901793,Null
-0.3408007812461,-0.86865234375,-0.03369140625,0.06490118021943246,0.2541194095663204,0.7889624023403999,0.40258789062,1.18811035156,0.05125247964308681,0.22582342049679296,0.0527856445331,-0.65344238281,0.9140625,0.25039598275952996,0.4991432688574818,1.0430781808922,0.61880369675,1.53649770934,0.018188916613212966,0.13452870336900932,0.012011800895244805,0.5356666048299985,0.10932402247799237,-0.00013974570498765258,3.3224655630628472,1.751879650924397,Null
-0.07273407756644669,-0.14270019531,-0.00256347656,0.0011461318452794034,0.03376853442379129,1.001650117976802,0.96166992187,1.03894042968,0.00031302513423666094,0.01764755433946567,-0.1698716836493401,-0.24694824218,-0.06237792968,0.0018271899417761192,0.042637012863585316,1.0200942936850252,0.99483575856,1.04157182102,0.0001275381375008879,0.011264578810931434,0.00017512100570574648,0.0647937258499951,0.013199699488643251,-0.00017098301463667502,0.35637696687344356,-0.351799953460228,Null
-0.00675264994296875,-0.07141113281,0.04235839843,0.0011845399272276988,0.034327400840145975,1.0347652435265624,0.97839355468,1.07653808593,0.0007106394260910951,0.026588309067712524,-0.13857460021583334,-0.20251464843,-0.05773925781,0.0015647558858472954,0.039453847918910365,1.0453638581577605,0.99914846821,1.08572173547,0.0006473175619741072,0.02537609340183838,0.0005722263857851621,0.10849256260996754,0.023858877593589026,-0.00032194996195993643,2.7438288251297918,-1.9216255363291515,lift up
-0.022577813327446808,-0.04895019531,0.01086425781,0.00021605294494020198,0.014659595054024067,0.9978735091801595,0.95349121093,1.03051757812,0.0005092172861161579,0.022505747788741294,-0.12585124563250003,-0.162109375,-0.09033203125,0.0004125540959996232,0.020257335938340316,1.0063385698784044,0.96097031203,1.03708867054,0.0005170390574928314,0.022677937510721956,0.015618746656567187,0.41666312743006984,0.12464216067167881,-0.002293698811153581,-1.2109162590218046,-0.012118519982030503,lift up
0.009930126169144387,-0.03930664062,0.05187988281,0.0006243774330570359,0.024920644379765145,1.0024701286720321,0.95458984375,1.05249023437,0.0006238402896200043,0.02490992262714771,-0.13983056379160427,-0.20812988281,-0.08032226562,0.0013757409538438109,0.036991675419576764,1.013216538560695,0.97022879695,1.05910897473,0.0006029499861544688,0.024489296737099393,0.0003939113218159357,0.08003590076998535,0.019794060830440174,-0.0003344163935483045,-0.4153013891939201,0.6042411384474138,lift up
-0.024918352969234964,-0.07116699218,0.03771972656,0.0008616462882911988,0.029273500621353872,1.0130188321768854,0.99108886718,1.04052734375,0.00014259261887798836,0.01190854416959986,-0.14009135928606556,-0.16748046875,-0.11328125,0.00017468817387137676,0.013180803984821536,1.0234792107942075,1.00243169944,1.04950955522,0.00011709741105203608,0.010791549216350274,1.8979196410881217e-05,0.016866186230004132,0.0043445926109457085,2.7683299700772045e-05,-0.6419567026133022,-0.23394279783228497,lift up
-0.45537959146049717,-1.07763671875,0.1572265625,0.24981551808347527,0.4984328659418136,0.6545538296320995,0.19506835937,1.021484375,0.11453161347299498,0.3374890251961392,0.0030119669374033273,-0.19274902343,0.7412109375,0.040488941450463174,0.20066201843234957,1.0140111722748066,0.62792051554,1.28274328739,0.010257785115504884,0.10100055578838597,0.0016548857294586968,0.29767244202002985,0.04056775461347121,5.645333867732617e-05,6.504043322857681,-0.6169628365592347,Null
-0.3282852599049162,-1.0087890625,0.07080078125,0.13347025387047037,0.36431388937851245,0.8317843815430725,0.22045898437,1.05456542968,0.06543132193212894,0.25507995574089365,-0.11232378229608939,-0.43395996093,0.30041503906,0.02404183547901467,0.15462057931906836,1.007726907710838,0.55957208336,1.35433843574,0.018541079607936595,0.1357847493557834,0.01745675103931942,0.6044736645600324,0.13175442038313706,-0.0007719906583524677,1.3089902208770132,0.8211213208757948,Null
-0.14302433681632767,-0.22021484375,-0.08996582031,0.001081600783319621,0.03279466487754997,0.9942461434020339,0.92492675781,1.03137207031,0.0002472917757386262,0.015681028252705138,-0.19064762093553675,-0.22424316406,-0.16735839843,0.0002148942041333866,0.014617801222639826,1.023093433149548,0.96223924436,1.07061633788,0.0002194330760721827,0.014771368967672548,0.00021874894456932654,0.06583411725000587,0.014748324475207244,-0.00015109218674564615,1.12201380271146,1.0847123880307281,Null
-0.10862784549752875,-0.13354492187,-0.06982421875,0.0003876393642148628,0.019631901379561948,0.9974035504184483,0.98767089843,1.0078125,2.8140653816459575e-05,0.0052895109340054,-0.17883370936281612,-0.19470214843,-0.14086914062,8.022052999704378e-05,0.008930817010124277,1.0193429129544254,1.00880807302,1.03056650196,2.868745844879619e-05,0.005340654266842317,2.128366078199842e-05,0.02048149430004287,0.0046001457468700605,-3.626302459520884e-05,0.02685934258552969,0.1403454274346787,lift up
-0.07986855919994218,-0.11926269531,-0.04858398437,0.00022246143858965114,0.014871971433550658,1.0283577097598267,0.98803710937,1.06860351562,0.0005365484296970026,0.023096471455336925,-0.15704874909352604,-0.18359375,-0.13537597656,0.00014727293447952148,0.012100481223526258,1.0435043606688439,1.00196871829,1.08612271657,0.0005658397502961421,0.023718537060586818,0.001948004415945738,0.14954793914000675,0.044008456855621554,-0.0007732313948785242,-0.38886077448739487,-0.9981703996424065,lift up
-0.08927720013423529,-0.13940429687,-0.033203125,0.001050497927587149,0.032315917564152606,1.0020881204008825,0.9755859375,1.04016113281,0.0001549803729400762,0.01241244229342024,-0.1616325827167647,-0.2177734375,-0.09436035156,0.0011278006887536392,0.03348382545431582,1.0200568768737648,0.99771245441,1.04503631678,8.010427022617759e-05,0.00892373624871398,0.015032684179459145,0.43082904580001014,0.12224670394518752,-0.0024867180378556806,-1.1033335750150697,-0.0036693101656171036,lift up
-0.06977480933369047,-0.11730957031,-0.00732421875,0.0010378950081232395,0.03212035276341646,1.008297874809524,0.9755859375,1.05224609375,0.0003000354967542456,0.017269903623886484,-0.14369419642434522,-0.1953125,-0.06042480468,0.0016258336266059348,0.04020144332601984,1.0221901383098215,0.99415100481,1.07348402386,0.000256118786705922,0.01595601046998863,0.01566817190431288,0.45040152996000415,0.12479947506424463,-0.002567024457487266,-1.186620149746327,0.0871441682942653,lift up
-0.07508206654367469,-0.09497070312,-0.0634765625,4.758971500310064e-05,0.00687771982367423,0.9867046310198794,0.9521484375,1.02087402343,0.0004152501007699683,0.020316215054454013,-0.16039524307716868,-0.1953125,-0.14514160156,0.00019347782430459938,0.013867670865813173,1.0025707230113854,0.96946340103,1.03630234951,0.00045704214037383664,0.021314053449965124,0.015406709910355514,0.41149306184001944,0.12374933698760347,-0.0025756507887168393,-1.2331702277735654,0.14353507506645352,lift up
-0.06739834871860607,-0.08032226562,-0.05615234375,3.2131839748847364e-05,0.0056512920050309804,0.9996781782636363,0.95935058593,1.01245117187,0.00010937308591386107,0.010426419266771519,-0.1492416844185455,-0.16540527343,-0.13793945312,4.165728424319196e-05,0.0064346573998806875,1.0130445127730912,0.97588950046,1.02573955593,9.552408184124705e-05,0.009743980090902596,0.0002537461155341143,0.0659577759900003,0.01588106609420328,-0.00031790872396185536,-0.3258997820434004,0.6519523194965151,lift up
-0.08597389363354037,-1.32995605468,1.10278320312,0.8276002883547907,0.9068957569053676,0.3356410435235404,-0.30944824218,1.09826660156,0.06771433590223898,0.2594103890844736,-0.1574297602862112,-0.54663085937,0.23937988281,0.056756690132616375,0.2374956086056076,1.022671951831304,0.46496864051,1.63655298436,0.04541252216736204,0.21243930147758736,0.0011337573637799454,0.13587735272994905,0.03356658148480931,-0.00017371228799877649,1.2252200892958198,1.413233357986859,Null
-0.865364074703375,-1.35778808593,0.63049316406,0.10872150923543653,0.32869742895665466,0.3027114868138125,-0.30944824218,1.00061035156,0.06872512656639165,0.26133425823139167,0.21390838622775005,-0.21667480468,0.49304199218,0.02144308489146028,0.14597625016038962,1.023479558353,0.259657902,1.64964511894,0.036611096660850884,0.19074138855193587,0.00795416006088716,0.48487141497002995,0.08890695451148135,-0.00022134098948706546,13.741718821503142,3.714446846029593,Null
-0.9718720641285443,-1.05029296875,-0.90698242187,0.0007683654299177013,0.02763154642028654,0.15112459206550632,-0.05419921875,0.24304199218,0.0037094679202574754,0.06071235685750105,0.25918076913234184,0.12316894531,0.3251953125,0.0013576224074084186,0.03672914184303912,1.0195879877881646,0.93720479132,1.09926898085,0.0007924958950561231,0.02806207580083787,0.0001044727776239719,0.04490160685998035,0.010188795685086034,0.00013162842165923827,0.5779033308485442,0.7939432862640129,Null
-0.9881424249345752,-1.04797363281,-0.90942382812,0.0012129768844833123,0.03471381469948178,0.22197728374849668,-0.24548339843,0.42651367187,0.012721143433120667,0.11241885386713217,7.978452091512e-06,-0.2109375,0.25915527343,0.012345633747719197,0.11074720461965366,1.0247540571426144,0.93069926272,1.10850005503,0.001697575119274147,0.04106677315125537,0.00010637307150297676,0.04478790551002021,0.01027997191969044,0.0001800554058433857,-0.289038528743744,-0.0025854908740674514,Null
-1.0000994347532448,-1.07458496093,-0.90991210937,0.0017655895956460135,0.04187955287866899,0.22418172469582778,0.08459472656,0.33178710937,0.0028876687833092624,0.05355880085460009,0.008667800599337746,-0.22839355468,0.14831542968,0.010315935908422962,0.1012305213464585,1.0312538303707282,0.9292870709,1.12074217118,0.0019298341034719225,0.043784172313414624,5.388444489800644e-05,0.0315720259200134,0.0073162554814292,-0.00010831348094161328,-0.4963992391586718,0.18634137807204207,Null
-1.0010066731731333,-1.1123046875,-0.89855957031,0.002222848005862716,0.0469896692812044,0.21370849609,-0.08972167968,0.32470703125,0.007117739809597517,0.08408500586232284,-0.030088704426733327,-0.23193359375,0.16162109375,0.009727765396505918,0.09830012017894932,1.031998832633,0.91580351466,1.14688569279,0.0025275014841456014,0.05010640152965784,0.00012507443009646726,0.0440099533599323,0.011146326774435191,-0.00011422400790674174,-0.6302039225190628,0.0891162394035371,Null
-0.9858013383459732,-1.0302734375,-0.900390625,0.0006123205470173204,0.024661934497210897,0.24045475696953023,0.17211914062,0.322265625,0.0007797388366083148,0.02782994232933113,-0.0656762859143624,-0.24694824218,0.05053710937,0.005107971556399697,0.0712298383270783,1.0195460685951676,0.92998491066,1.08538731009,0.0008300715832685098,0.028714119053964225,5.5141551448768017e-05,0.03167034168995997,0.0074007752244117115,1.952053224008423e-06,0.16034831237172043,0.5399766001013883,Null
-0.9899436549099342,-1.01501464843,-0.96105957031,0.00010140663232408988,0.01003690606846656,0.22619307668177632,0.18798828125,0.27722167968,0.0004339468690836204,0.02076275404350849,-0.035104851969539476,-0.06384277343,-0.00476074218,0.00032519455901282323,0.017973734200899406,1.016399426046842,0.98669157224,1.04908404078,0.00017232547805956662,0.013084026819338714,0.00013911763644771697,0.048922720630002914,0.01175595120947294,-3.6633927168966388e-06,0.6245831306513954,1.0549481685993387,Null
-1.02581423323298,-1.24951171875,-0.89086914062,0.007862156392722985,0.08837470866624696,0.2675886343611258,-0.03942871093,0.50122070312,0.010876885640450754,0.10394639621081618,0.046025358287152325,-0.13366699218,0.29516601562,0.0103977101797196,0.10163095577582101,1.0705157191092054,0.90289028344,1.31663562123,0.009016452281728522,0.09464005852287795,0.00027864637589046157,0.07520794390006813,0.01663733859884977,-0.00013333905814090846,0.8970721528777186,1.0234017739213548,Null
-0.8647062174441331,-1.23791503906,-0.42163085937,0.05340665548788775,0.23032718275958766,0.39821940103746656,0.07751464843,0.95275878906,0.047873009488616794,0.21806846652376408,0.16470052083139997,-0.34729003906,0.70324707031,0.04435697500829208,0.20990774602565324,1.0333446843889333,0.72323484198,1.31458930773,0.010355323196194961,0.10142133753910135,0.027323329452967022,0.9084484816301028,0.16474578575271834,0.002215840358117092,9.380153042131248,2.860565673788973,Null
-0.6359812152291099,-0.8125,-0.40087890625,0.0077113499503525,0.08758411037627208,0.708443686596911,0.5302734375,0.83520507812,0.004492443862407433,0.06685000533966437,0.35120076283968593,0.22290039062,0.51818847656,0.003970781654441575,0.06284896356898663,1.021664118581152,0.87022589315,1.09379782572,0.0020093799671197982,0.04470860826681838,0.011007027573043449,0.4275160395000057,0.10463937670127177,0.001280084540886187,-0.6607355820445169,-0.49229080100465805,Null
-0.6672101701970833,-0.77026367187,-0.61096191406,0.0013045918696504022,0.03601147652977956,0.7242773146817857,0.61547851562,0.78405761718,0.0020652315083695074,0.045309363973430834,0.20098440987333333,0.01379394531,0.44641113281,0.017091420934060214,0.13034449081431554,1.0147840856468453,0.92594060049,1.09130928329,0.0006986420830610681,0.026353054836836726,0.002964188456339049,0.22931458129005478,0.05428208247140366,-0.00022781771763634404,0.7185517081546591,0.9519533779479766,Null
-0.7267530791571428,-0.76171875,-0.68041992187,0.0004797996821686119,0.021848380365750847,0.7004631198141326,0.65991210937,0.73767089843,0.0004012339109343537,0.01997965963533594,0.10775881397137754,-0.01550292968,0.19116210937,0.003675505727513515,0.060471093484995776,1.0173063240441325,1.00564921137,1.03609275201,5.1982221205958225e-05,0.0071914536633174595,0.0028541295772879683,0.19038604471995768,0.05328759416308415,0.0005919497024806544,0.5946647918000392,1.4335685376033123,Null
-0.734796142574125,-0.7783203125,-0.70568847656,0.0003484459043236276,0.01860828088302638,0.66587295531875,0.64111328125,0.69506835937,0.0002591421060442588,0.0160475065939068,0.0283447265600625,-0.01428222656,0.05932617187,0.00037615475407338725,0.01933400597032153,0.992447530599625,0.97439802244,1.02418573706,0.00013533835811425693,0.01159708986668823,0.004312109989815477,0.2405573419699749,0.06546112817832526,0.0004505761406147695,-0.5707374916512773,0.6792964433624366,lift down
-0.720299406421229,-0.73681640625,-0.70532226562,4.089817075979048e-05,0.006377279150146855,0.7242486197155865,0.69677734375,0.73815917968,7.809996960836486e-05,0.00881269861784621,0.04248183266055866,0.02099609375,0.0546875,5.766213422309514e-05,0.007572317967111072,1.0224116562169272,1.00710277554,1.03026888154,2.22067946831864e-05,0.004699226997889519,0.019780474892956982,0.4864127738400157,0.14024966825852964,0.002700750091682879,-1.1711679466344587,-0.19418565189554637,lift down
-0.7313534168665169,-0.75634765625,-0.71118164062,0.00020574724637734764,0.01430354372072646,0.7474948154367976,0.71984863281,0.77197265625,0.0002719366289594509,0.016444114299313667,0.0573757900235955,0.03552246093,0.07348632812,0.00011104041491389119,0.010507929974937746,1.047396649022191,1.01753069278,1.08071768038,0.00046659855882427275,0.021540130422217942,0.009245444964004217,0.3009261087699997,0.0958827631118297,0.0018234571033642788,-1.1355684441935356,-0.47845471191707395,lift down
-0.7427913120767856,-1.12573242187,-0.41381835937,0.03865338482903409,0.1960186347198467,0.6222606840554167,0.1708984375,0.88293457031,0.05016007514436466,0.22329689489221596,0.12491571335297619,-0.28759765625,0.45458984375,0.02571050884272033,0.15986703881541342,1.031126238412143,0.88866853818,1.17091625413,0.005203157824029322,0.07191791603283106,0.006136629583505915,0.3071239887200363,0.0781031499138238,-0.0009102517789968067,-0.05985411380646122,0.43243903723427524,Null
-1.0265940721084295,-1.18286132812,-0.78564453125,0.006749049862957991,0.08193725967690982,0.24443717277146598,0.0224609375,0.47131347656,0.007693535465663432,0.08748288504197428,-0.016245577347225128,-0.34094238281,0.14404296875,0.01267368437836102,0.11228236731512177,1.0643343584299478,0.82221195471,1.25628444899,0.008118014972860254,0.08986385411647593,0.00014752049257701476,0.043992723900032615,0.012113964420334702,7.75855771803727e-05,-0.9044591270153672,-0.05382549029911295,Null
-1.022198451043815,-1.28991699218,-0.90576171875,0.006422516919501867,0.07990865124781316,0.20197979700716764,-0.13977050781,0.35900878906,0.009860917303647554,0.09901473517442316,-0.005340752572890177,-0.34680175781,0.21545410156,0.011155068727516851,0.10531186334626237,1.0517320698280928,0.92640588507,1.30419266619,0.006875194347902281,0.08267680049512643,0.00019943385757370397,0.08727940323001349,0.01408123079525068,4.149068577695198e-05,4.517375559420983,1.3967939768469002,Null
-1.1084067896754737,-1.36169433593,-0.81640625,0.015216471980822025,0.12303001782567585,0.2045088918551579,0.048828125,0.47937011718,0.015536808970817858,0.12431828623345835,0.047203304890947366,-0.123046875,0.14306640625,0.003701148262969289,0.060676754488596794,1.135826289022421,0.89246325932,1.38333956593,0.016940501708829696,0.12981271576205494,0.000505028924864524,0.0944168168100532,0.02241363151949172,-3.726781055500665e-05,0.0516983055215916,0.5016209620305463,Null
-0.9990158081017709,-1.4580078125,-0.59582519531,0.07336688129474675,0.27015692129082425,0.19165293375255207,-0.01428222656,0.33190917968,0.005366469546415827,0.07306517080110682,-0.04579607645536458,-0.21325683593,0.08605957031,0.006881038086873955,0.08273571989677828,1.0267862931297917,0.61709568692,1.46797455953,0.07074450697905284,0.26528483938062425,0.001920845649348138,0.14397169221001604,0.04371317015413604,0.0007159673182912196,-1.2309384373131302,0.14488439090591523,stairs down
-1.0258151882253845,-1.46484375,-0.65905761718,0.05897202556098063,0.242173498637885,0.16813307541714284,0.01623535156,0.32202148437,0.00411623693238252,0.06398140547018999,-0.06471939925142857,-0.29638671875,0.12561035156,0.012601488944502415,0.11194753232768419,1.0508494646980222,0.68921134102,1.46712786296,0.056329822416170926,0.23668611682437302,0.0022159283791653548,0.16205021385007967,0.04694414711665982,0.0008649517388125946,-1.0914502520649212,-0.010314059753498778,stairs down
-1.0150398808447485,-1.44873046875,-0.62963867187,0.051250807635723726,0.2257531622693917,0.18463441645938547,0.02941894531,0.36145019531,0.004584222917864363,0.06751749946469937,-0.03797477849854749,-0.26135253906,0.14440917968,0.010244994230826794,0.10093443231219613,1.0395424061672067,0.6468623805,1.4569482703,0.05118631673945728,0.22561108054060763,0.0014388454001253706,0.1383820787800687,0.037826011654238274,0.0006503504116681831,-0.3768910324458683,0.39948739256592153,stairs down
-1.0266159974769946,-1.28527832031,-0.88391113281,0.004869645828408864,0.06959192296462878,0.1817333450695082,0.04382324218,0.30773925781,0.0035465773498833393,0.05939021085823501,0.027757988599453557,-0.16613769531,0.16979980468,0.006243946924515843,0.07880245551990481,1.0472205072970493,0.8873584977,1.32339887641,0.005678218413541793,0.07514778704406937,0.0002348202326560083,0.054335424649934794,0.015281919447037957,7.336598115518363e-05,-1.026318033645726,-0.021916315895690142,Null
-1.0639720629582796,-1.28979492187,-0.89050292968,0.008617014204289886,0.09257800046951484,0.18919782740758065,-0.03234863281,0.33093261718,0.007839780356821625,0.08830419582366696,0.05120455834016129,-0.29455566406,0.25463867187,0.012954922004228929,0.11351331149220616,1.0907843779096236,0.91465324483,1.33144693059,0.0086764595499007,0.09289678098788992,0.0007605175175036131,0.12626806770003896,0.027503249147074728,-0.00012922018185285603,2.3505752967565448,1.4816123012779046,Null
-1.0658689986788952,-1.52917480468,-0.849609375,0.017290903054297594,0.13111206865947908,0.17202049077563955,-0.15087890625,0.32568359375,0.009158357600401427,0.09542070705713102,0.031555885491686045,-0.13305664062,0.44543457031,0.009474084303036716,0.09705154515799294,1.0877267508612791,0.85182623322,1.58819916321,0.019340996918130026,0.13866704461273152,0.0004802041430087504,0.09838285592002194,0.021849765638477084,-8.973404069894907e-05,0.26527467345299804,0.8133944756560654,Null
-0.9795542571474011,-1.44165039062,-0.64880371093,0.008388744009945093,0.09133099132271916,0.24717307225050847,0.06665039062,0.62280273437,0.015601377389770955,0.12455213372193791,0.20166153557299432,-0.07275390625,0.44543457031,0.021115505219010167,0.14490068522734717,1.0489813816833333,0.86418300671,1.54254533776,0.005810124281786077,0.0760085437360303,0.01649810491025401,0.43726218120002613,0.1280815961720992,0.0015503744684790426,-1.2118000859663478,0.4895662057807076,Null
-0.6387824164461667,-0.7666015625,-0.24279785156,0.01273109521557425,0.11251829588480738,0.6501864963068889,0.39367675781,0.99401855468,0.012953155505301997,0.1134953458529139,0.3481363932251111,-0.04187011718,0.95190429687,0.03513847293093742,0.18693116164094262,1.000597064966889,0.72179374774,1.28067595717,0.011337724400042359,0.10618256468113936,0.02599613140254824,0.9031099605200552,0.16078466484808762,0.00021607805488476408,1.2872894980218836,0.18010434839853437,Null
-0.7932955625789418,-0.83386230468,-0.75964355468,0.0002236430720903716,0.014915085497999827,0.6349283854124338,0.59521484375,0.68786621093,0.0005921667560680395,0.024270014392837224,0.1050663700778307,-0.00842285156,0.255859375,0.004986132031954203,0.0704254952484644,1.0242661961663495,1.0051690112,1.05915673266,0.00014159867833498193,0.011868002316258291,0.0013708419521195497,0.1504160849700611,0.036926803545632714,0.0005290555932354892,-0.2078210722294278,0.6835294995111617,Null
-0.7995053738479097,-0.83666992187,-0.75988769531,0.0004629397799958825,0.021455169563833674,0.6765785001730508,0.61376953125,0.72106933593,0.001093182719510538,0.03296978231584159,-0.03793766000163842,-0.14501953125,0.03466796875,0.003325352600846684,0.057502741656524886,1.0499172969407908,0.99545881941,1.10047291917,0.0009394491066107017,0.030563728249993566,0.026283479284987966,0.7087111066699663,0.16166318397130328,0.0016220979416929503,1.0132586523645521,1.2095558735776688,lift up
-0.7812322691130726,-0.7958984375,-0.76281738281,6.335523553400458e-05,0.00793733555235547,0.6469965247434077,0.61901855468,0.66687011718,0.00018310732357714637,0.013493864444086229,-0.11006036683407819,-0.15747070312,-0.07800292968,0.0004000235476614586,0.019944642870675044,1.0206321275254189,1.00633692099,1.03702554884,4.9498737595728005e-05,0.0070158540702765955,0.022237841790288024,0.4752092292500265,0.1487064492120959,-0.002656761183350023,-0.8645604789527557,-0.45270170153833816,lift up
-0.8018224379556685,-0.83850097656,-0.69665527343,0.0008838605006046003,0.029650193487790247,0.6148590251048128,0.57653808593,0.73889160156,0.0008299256966780066,0.028731299854830406,-0.1465620561046524,-0.25695800781,0.03125,0.0019616842968801992,0.04417232172438473,1.02271582710246,0.99351948217,1.05621150781,0.0001602887775739102,0.012626623394064902,0.09455595846711293,1.1089219778999677,0.3066762325815132,-0.004848934579119285,-0.9121292900863303,-0.1596569892308495,lift up
-0.7745138729285881,-0.82739257812,-0.72326660156,0.0006551793117885691,0.025521075914562687,0.6587431066135883,0.59143066406,0.73889160156,0.0007911401657102967,0.02804436485338272,0.0998298196197647,0.013671875,0.19116210937,0.0011050696374496065,0.033144671182824395,1.022869062408059,1.0005861442,1.04922081612,5.580312151178384e-05,0.007448145262804168,0.012522478049869484,0.4227406033199941,0.11157426412162447,-0.002090917864075593,-0.9649451074816375,0.23897394466602465,lift up
-0.7273000888678308,-0.78442382812,-0.66870117187,0.001400714832209001,0.03732698276877725,0.696682400169365,0.62561035156,0.775390625,0.002033852886231335,0.04497879233426748,0.06277772610550264,-0.01867675781,0.17248535156,0.0021929214364784268,0.04670458946993604,1.0116667623138627,0.94394986802,1.05604105383,0.0003837640695212417,0.019538003270521454,0.013632157973984609,0.41045706752993283,0.11644754249882835,-0.002114596927939149,-1.062505669046146,0.22037607290693803,lift up
-0.7338256835901786,-0.75366210937,-0.7099609375,0.00010092440478102998,0.01001617014014743,0.6654350644027976,0.58898925781,0.71789550781,0.0015419569017796515,0.03915071630108581,0.13857814243488095,0.09753417968,0.181640625,0.0004063921369510968,0.020099082967536396,1.0009257251383334,0.9576582509,1.03362014805,0.0005670273201549332,0.02374135963956073,0.0013378906185191818,0.13774885737007025,0.03646816397743571,-0.0005693987303573704,0.09708038405941366,1.119258410749274,lift up
-0.7773085374067308,-0.97875976562,-0.61730957031,0.008327343196483606,0.09096132580046282,0.6446165427139743,0.47119140625,0.77404785156,0.0071082986978015595,0.08404006592398627,0.03306696965019231,-0.23852539062,0.36267089843,0.018340199600974688,0.13499123756346987,1.0245247964142952,0.84432766707,1.18056347515,0.0047713306247317375,0.06885306944508064,0.003705392743990027,0.3170966448199124,0.06067652121208291,-5.686011022069578e-05,0.5010516804584495,0.35014555939502623,Null
-0.8238518999465445,-0.96325683593,-0.65002441406,0.0029890607058081775,0.05452899387772559,0.6060401157523035,0.50805664062,0.796875,0.003186606852509754,0.05630206965111702,-0.04289397394329843,-0.25769042968,0.08959960937,0.008859282992706451,0.09387704358423504,1.0291760274777488,0.88368650231,1.16257624504,0.0023859734881999813,0.048718389550644614,0.004864681195735305,0.36401525040992055,0.06956444250246745,-5.1721621738229966e-05,2.2985704827906677,1.3975413126786964,Null
-0.5635584214114118,-0.9072265625,-0.33972167968,0.03487533415155505,0.18619931559255026,0.7677001953084116,0.61657714843,0.90600585937,0.0067206032177682595,0.0817378141233526,0.2826250861638235,-0.0283203125,0.50415039062,0.031279642296809636,0.17633957128491057,1.0268041636804706,0.80998855113,1.25744445818,0.0049880744005340516,0.07041827026002033,0.0017367738929837512,0.19630636571992,0.04155186609487232,-0.0001700202976956511,0.9567522848573686,1.0607163753829116,Null
-0.6636525029680979,-1.10986328125,-0.34826660156,0.053886313282687226,0.2315025980079095,0.6689386782397826,0.24475097656,1.11328125,0.0413286882553541,0.20274140134462842,0.24598295791994565,-0.34533691406,0.69177246093,0.05885240007466174,0.24193501208848622,1.042428119088098,0.8441585064,1.42501511565,0.015076850246723733,0.12245370898102241,0.003801808871782206,0.23299955977995523,0.061491030785345104,-0.0003688984154642214,0.27514289684596704,1.048840403091878,Null
-0.9872817095547646,-1.09594726562,-0.91101074218,0.0019089193365622926,0.04356248844233301,0.25593907972952945,0.12475585937,0.31115722656,0.0016993945981493782,0.04110228897928599,-0.08874942554870588,-0.32385253906,0.15783691406,0.012058073933378472,0.10948581682899178,1.030490238664353,0.95356872266,1.12077519081,0.001781024365425617,0.042077877222019514,0.00015438352296330424,0.056674205789931875,0.01238851825655239,0.0001746854168218968,2.527366468224341,-1.6447019138770906,Null
-0.9754908440490055,-1.02368164062,-0.94738769531,0.0002134824097202896,0.014570619372322704,0.2464194956366851,0.2275390625,0.28295898437,0.00010207908935513298,0.010075471030466398,-0.12861827196541434,-0.15869140625,-0.09545898437,0.0001819537462141819,0.01345170906978297,1.014460083523536,0.98327967088,1.06634999221,0.00021430401491760053,0.014598630580817602,4.098317752177887e-05,0.025824467230108894,0.006384101434550591,4.967078113744358e-05,-0.7907717982480076,-0.13164014062962204,Null
-0.9813212189187845,-1.04150390625,-0.90649414062,0.0007042734946459078,0.026464740332437304,0.24166212555767952,0.14453125,0.29455566406,0.001075029231391741,0.032696939357881837,-0.09207338785823205,-0.18920898437,-0.02294921875,0.0018995948360038917,0.04346377614646416,1.0162093641200554,0.94380899143,1.0756106774,0.000851229743561899,0.029095133902456757,3.7679702266222343e-05,0.023614506020066983,0.006121399114220558,-3.824770744118053e-05,-0.5983054517204276,0.40962547534805965,Null
-0.9745066923218236,-1.00427246093,-0.9462890625,8.981632689127831e-05,0.009449232537969617,0.24292853859958824,0.21508789062,0.2685546875,0.00018184223410939245,0.013445169166237699,-0.16192124310264708,-0.20190429687,-0.12744140625,0.00030118687368574566,0.017303617719814448,1.0175328845190001,0.98778391752,1.04333543225,9.29084120265413e-05,0.009610509453499172,4.3624498230511855e-05,0.033579116099986095,0.006585429639365852,1.419808752333007e-05,0.29032759264191244,-0.2189981849823498,lift down
-0.9590522680349438,-0.99145507812,-0.92370605468,0.0005542917051547928,0.023477174165798288,0.22837503840073034,0.20947265625,0.24536132812,9.128559986605546e-05,0.009527473926354758,-0.12582500328820226,-0.15710449218,-0.08337402343,0.00030888495911153416,0.017525685446009825,0.9940631037894382,0.95778760022,1.02303329522,0.0005591294191913429,0.02357940293304799,0.004310196743635788,0.20117224188993532,0.06546741292573272,0.001206882005167961,-0.8497847858223753,0.7345741637390096,lift down
-0.9805044430701755,-1.0107421875,-0.95874023437,0.00012862449010008615,0.01130806349909218,0.23221628289076027,0.20239257812,0.26611328125,0.0003773740939973673,0.0193692340568903,-0.11169719138017543,-0.18615722656,-0.05822753906,0.0013924079700684039,0.0372057150637014,1.0146808441195905,0.99787392956,1.04194028201,0.00010030338880024905,0.009985830925621633,0.016286102703520045,0.41779999407003743,0.12724331941926378,0.002570962395468398,-1.2548882767519867,0.047013420898219624,lift down
-1.0016669816840322,-1.03881835937,-0.95825195312,0.0005167365056937249,0.02267064958128256,0.23751076318526884,0.21813964843,0.25109863281,7.582418935338579e-05,0.008684269250856882,-0.1328761603210215,-0.15612792968,-0.10705566406,0.00010302778948668286,0.010122938142653064,1.038041073495699,0.99584856942,1.07816124592,0.0005698208546885509,0.023806665068974997,0.006841436829602483,0.27511557990999336,0.08249033222847245,0.0014623240683958323,-0.7006433867526232,-0.7622831039800755,lift down
-0.9780924978395091,-0.99987792968,-0.96411132812,5.907267004669122e-05,0.00766226213516608,0.2292091041947239,0.21362304687,0.24743652343,6.338194298127206e-05,0.007936819054590656,-0.12945369415791413,-0.16357421875,-0.1005859375,0.0002996907476670294,0.017258393729517818,1.0130845431958897,0.99672542065,1.03395363387,3.95129654505197e-05,0.006266622265585737,5.94807544970664e-05,0.03178267200996743,0.0076886827150552855,-2.0496882427383668e-05,-0.6738108654285755,0.17017973328759425,lift down
-0.9894856770787777,-1.12170410156,-0.90942382812,0.0011933947741328888,0.034449452871787155,0.21922403970972226,0.0205078125,0.35852050781,0.004501858116381101,0.06690925043304786,-0.08823852538777778,-0.16906738281,0.04895019531,0.002198325434537523,0.046755882148204184,1.0202945808672776,0.912878729,1.16808855596,0.00178573621614033,0.04214042547701666,3.0675208246732596e-05,0.02506094417992699,0.0055231141960980345,9.496957171137503e-07,0.5975398501128595,-0.6503391895535646,Null
-1.0498574160924852,-1.55737304687,-0.86877441406,0.015139028737570908,0.12267619445462638,0.2235396345654438,0.02575683593,0.35681152343,0.004262936304471933,0.06509770986215677,-0.0709531885618935,-0.77221679687,0.185546875,0.029777444504462586,0.17205012818358048,1.0886345982487575,0.89344596826,1.73850309263,0.020280061389722003,0.1419861296974786,0.0004338671556155804,0.10929418195996732,0.020767760937081027,2.161628069193081e-06,3.1202639171861373,1.525495312003341,Null
-0.9994630204824468,-1.05053710937,-0.95593261718,0.0004871952246752779,0.02201371755779199,0.2153235902126596,0.13024902343,0.55822753906,0.0049615827555136525,0.0702509171319346,-0.02333880485138298,-0.06970214843,0.05346679687,0.0006404123128679992,0.025238975105881325,1.0250221446075534,0.96907962298,1.17276813169,0.0012282147320061354,0.034952563209598754,9.827570138628785e-05,0.05726428986008614,0.009887009572859106,0.0001460179972002994,2.1568723824548135,-0.4803021383895954,Null
-1.124924647951111,-1.36083984375,-0.88745117187,0.016665738401734267,0.12869678890061126,0.23547664689037037,-0.06225585937,0.60998535156,0.026341224114641276,0.16179809629839736,0.024425365305617286,-0.20556640625,0.26708984375,0.020188658466967112,0.14164758070085626,1.169514768711852,0.89707968565,1.41651925437,0.016644789204156275,0.12861587612649125,0.0009151116111476454,0.12119211071001246,0.03015730050985658,-0.00016162369013217779,-0.604382752696397,-0.17582057348498026,Null
-1.120263529098772,-1.34729003906,-0.90319824218,0.01377589468041597,0.11702706478764303,0.16122061745771932,-0.03698730468,0.34680175781,0.008676600502219417,0.09287550887292768,0.024955169499005846,-0.11572265625,0.23474121093,0.010162899596730638,0.10051600586646015,1.139837914623918,0.91155238165,1.36205808533,0.01488646783453055,0.12165283583656056,0.001712009503802467,0.14912506278994897,0.04125527544833802,-0.0007013251933700641,-0.4682256377350038,-0.5153553081439818,stairs up
-1.0794377454419786,-1.32189941406,-0.86462402343,0.01455820846020826,0.12033435535236024,0.15779774711315508,0.02075195312,0.38842773437,0.007051925885826343,0.08375091075452433,0.001302953710106952,-0.14916992187,0.21166992187,0.012924483313663554,0.11338151714293325,1.1001281764900535,0.88693041522,1.33149800855,0.014231714242638492,0.11897734582213988,0.002083275552125974,0.17175239147991306,0.04552071002469138,-0.0007230234156683298,-0.7083750040497079,0.2915016546308666,stairs up
-1.0964742520918902,-1.37854003906,-0.77331542968,0.027406152544651542,0.1650425456008349,0.14731207126256096,-0.15319824218,0.40307617187,0.01529448585384389,0.12329325526467161,0.010208502048963414,-0.21594238281,0.24609375,0.015097596190240353,0.12249709252421148,1.1187189745030488,0.7823256431,1.43905156822,0.028791557071229556,0.16916264007281567,0.0029083170332274235,0.23157125630996234,0.05376414597834615,-0.0008340912553567478,1.428585478597041,1.0919300920409658,stairs up
-1.0930076995987283,-1.32727050781,-0.79528808593,0.01597455931155064,0.126024683369649,0.19303973423618498,-0.02075195312,0.54138183593,0.013660455756666337,0.11653966528466814,0.013116560919479768,-0.32800292968,0.22033691406,0.014172447007099166,0.11870351868457225,1.1217531948282657,0.81369446106,1.34836083389,0.017426958051699547,0.13162911604249658,0.0005474078342788996,0.08325864013011142,0.023329029708591388,-0.0001767342039312054,-0.9975733913786993,0.07428189822748943,stairs up
-1.0916880580322286,-1.38598632812,-0.49865722656,0.040123239068537854,0.1997347326248433,0.24495326450628577,-0.30908203125,0.76513671875,0.05666109657669763,0.23735483749435915,0.12367187499759999,-0.1767578125,0.40905761718,0.018661284281777483,0.13621544835882565,1.1666066573835427,0.88919950478,1.47482496795,0.021014571392572196,0.14454925848122427,0.0010676425472499718,0.14825728617995537,0.03258130956076287,0.00017954138386099924,2.865217328988888,1.7597874510489049,stairs up
-1.1880676603018032,-1.40063476562,-0.931640625,0.01409056059080112,0.11837889588919252,0.14886974897284153,-0.18017578125,0.48181152343,0.02209250214973307,0.14822880318706633,0.04177139365486339,-0.24194335937,0.27844238281,0.022174990790827204,0.14850527255879697,1.2154650876599455,0.94159156906,1.45064614734,0.016184032019092433,0.1268684148464651,0.0010682807462306346,0.12821439854997152,0.03259513992184197,-4.359142206047632e-06,0.07588899514613656,0.9355417860063475,stairs up
-1.046088809054881,-1.31884765625,-0.83227539062,0.017656507910308882,0.13248173326514864,0.18569510323315475,0.00573730468,0.32934570312,0.006810697813775719,0.08228096952416504,-0.01766168503452381,-0.23718261718,0.21484375,0.01518656931530455,0.12286648472785457,1.0726596799248216,0.8474127512,1.35990941296,0.01802263221228704,0.13384825228442415,0.0010978121238984617,0.14396843623001132,0.03303448997521947,-0.0004942514430228206,-0.09321409642253542,0.2832903539249702,stairs up
-1.116688254346946,-1.43322753906,-0.88842773437,0.02025595214474093,0.14189664907292812,0.14799892402389223,-0.05285644531,0.35998535156,0.009597754111329895,0.0976743698716553,0.023340282326047904,-0.15258789062,0.23217773437,0.012236923793570956,0.11028893326528769,1.1362389822566465,0.92466050729,1.44311534795,0.020362605003741818,0.14226972002942984,0.002244449226489832,0.176224683800001,0.0472335623340263,-0.0007752633151589822,-0.5514844776844483,0.26152850473428974,stairs up
-1.0794467502129999,-1.49548339843,-0.7431640625,0.036152403253056485,0.189608956983359,0.14429863823533332,-0.20715332031,0.42309570312,0.014529140251196927,0.12020159235782588,0.016632080078777776,-0.16357421875,0.25952148437,0.011271770585074403,0.10587327159099007,1.1010162611826666,0.77567654005,1.50721385911,0.03587564036580065,0.18888179174461817,0.0009227499378762173,0.11953842052002983,0.030292301816343712,-0.00044372946247166824,-0.5398443563318271,0.014292506074664053,stairs up
-0.979722688980391,-1.38684082031,-0.55041503906,0.04053826042135653,0.20077796117289765,0.2098981974473743,0.01391601562,0.44934082031,0.01004473435712706,0.09994307641217426,0.0722669889117877,-0.42248535156,0.35571289062,0.03985944490467325,0.1990898451491654,1.0312743695484916,0.61700328057,1.42874016669,0.035746368028934786,0.18853823922187474,0.0031099767251877935,0.24851993354991464,0.055611172920005024,-0.000697242891668954,-0.15150824235106386,0.4271289967896633,stairs up
-1.0798630825268603,-1.427734375,-0.79528808593,0.018810450963481454,0.1367519209242944,0.17941142237209304,-0.19702148437,0.53674316406,0.016761847862051475,0.1290906474466773,0.05227732103889534,-0.24328613281,0.43237304687,0.03332074663915139,0.18200830027225004,1.1182107711861626,0.80332002832,1.46473887258,0.019234658894054554,0.13828531911189929,0.0016768975971403106,0.16708870509000917,0.040830726083499594,-3.5746232461128674e-05,-0.4361872677985623,0.6608899779708861,stairs up
-1.076599884029875,-1.31823730468,-0.80407714843,0.012923948044415497,0.1133277255094176,0.209272003171375,-0.14587402343,0.47314453125,0.022991435022514998,0.15115468419345887,0.085972595212,-0.16491699218,0.27502441406,0.00780228556068266,0.08805408154042828,1.1140859259466875,0.82237446805,1.33828229531,0.012589032992904047,0.11184968277424123,0.002777301021382532,0.20052337310005441,0.0525351586082967,0.00011015508160698474,1.543157578762667,1.5103178854798651,stairs up
-1.1943022410033335,-1.58422851562,-0.86022949218,0.023490386044372345,0.15286608611371122,0.1773592630991667,-0.53332519531,0.6552734375,0.059948008485755905,0.2442043801304403,0.3085219065313542,-0.17333984375,1.07470703125,0.0857469879903061,0.29206230344658185,1.3041017946793232,1.00232551302,1.60661146701,0.0207306075651159,0.1436058343198989,0.00598155609158464,0.2888327345400512,0.07713884983332094,-0.0001564525538366398,0.8168035250867707,1.3026760872775935,stairs up
-1.1002999827312154,-1.4521484375,-0.87487792968,0.02306957019394251,0.1514665441773387,0.1887652149487845,-0.09338378906,0.50012207031,0.023913331489460538,0.15421158722977857,0.1527517750749724,-0.11315917968,0.39270019531,0.013727011676975907,0.11683822933208421,1.1433714131354697,0.90436187905,1.49590938318,0.022827895226070385,0.15067107970002255,0.00046899173261186645,0.08374432927996622,0.02159631028826567,-3.8476731134154496e-05,-0.6207819045546779,0.07570740008346191,stairs up
-1.0555851551677902,-1.39514160156,-0.75866699218,0.028801712507221685,0.16924120959079786,0.19987226454220994,-0.05151367187,0.58837890625,0.018627054937289236,0.13610342769951958,0.07883584038193371,-0.29040527343,0.32409667968,0.023828919921631685,0.1539391712019782,1.095300663145801,0.7868097175,1.44468693469,0.031780067953610026,0.17777650988721339,0.002399063650124874,0.19076146906002123,0.04884474541668036,-0.000684294286460404,0.6624965737513286,1.1722324515201026,stairs up
-1.0907854352641209,-1.44396972656,-0.8037109375,0.03608031588561298,0.18942563815844987,0.15621914706038462,-0.02734375,0.41748046875,0.007784417022504583,0.08798662114437007,0.05946702223445056,-0.08776855468,0.232421875,0.009971785585385633,0.09958411296334722,1.1113967874175823,0.80980013724,1.46726704362,0.0362909093914866,0.18997765339753642,0.0019004551306882782,0.16666192237005362,0.043474280552191436,-0.0006987545055244282,-0.07611815860878357,0.7143956951395581,stairs up
-1.063556082585143,-1.33178710937,-0.83068847656,0.020665322033365213,0.14334306568121402,0.17967633928239998,0.00561523437,0.46545410156,0.008065579997404477,0.08955161064351595,0.05764299665051429,-0.33642578125,0.29040527343,0.016559542181990884,0.12831568971355461,1.0913755027421146,0.83518878884,1.34369327181,0.020807898732048635,0.14383670064896437,0.0010515561511478427,0.1293770518400379,0.03233492320781927,-0.0005060884086562548,-0.7204738983847521,-0.03512964599884307,stairs up
-0.9828220642682989,-1.43249511718,-0.71520996093,0.025770804499939397,0.16011859761278857,0.2117366200840206,-0.07141113281,0.580078125,0.0248379474229674,0.1571938827249584,0.10353764799412371,-0.28051757812,0.53051757812,0.0392460644453448,0.19759495222317836,1.042149676905103,0.71996665686,1.45627342131,0.02493588447341675,0.15750348880720189,0.010683869461797559,0.36200707859995873,0.10309606185362483,-0.0012697631291285485,-0.8805770283549443,0.3903403801942435,stairs up
-1.0521277988038145,-1.26232910156,-0.86108398437,0.010248872731579364,0.10097545984393899,0.228638953766134,-0.01904296875,0.68603515625,0.017783082054900895,0.1330090849659672,0.04250563788463917,-0.59606933593,0.24584960937,0.024470800079590495,0.15602776014174638,1.0949192024121133,0.90437285266,1.46715705807,0.01451428363948248,0.12016433640824387,0.002824583866391911,0.2593758871699947,0.05300966096609567,-0.00021664614803147865,9.078429953360505,3.0130840525928972,Null
-1.0623710330560452,-1.25402832031,-0.84020996093,0.009809361892423705,0.09876204619557907,0.21273338188141241,0.09362792968,0.41479492187,0.0030260201463162602,0.05485365974388148,0.08090227202355932,-0.15258789062,0.39331054687,0.017470695506116848,0.1318028490273712,1.0956818000675141,0.87264573612,1.27398147548,0.010168862009088677,0.10055551109361047,0.0011835625873192162,0.14967846609999924,0.0343056233442941,0.00010207219628867698,2.841962147341788,1.7132027241111216,Null
-0.9767798765425134,-1.09631347656,-0.90625,0.0011977628683248712,0.03451605016939795,0.20784657523860967,-0.13598632812,0.43408203125,0.014916624813282528,0.12180663679025325,0.151772565378877,-0.08203125,0.31396484375,0.005185202625175011,0.071815557290121,1.020191947636791,0.94532664737,1.16638684393,0.0007320309932084042,0.026983631871315025,0.0019687679097038276,0.17928833847008718,0.04425200265596689,-0.000229943501435678,1.0595928998709931,1.254787834928564,Null
-0.9660144484148795,-1.12145996093,-0.67761230468,0.01087106738533052,0.10394988709752197,0.30154529249439754,-0.00732421875,0.71179199218,0.02335671004560511,0.15236799852016572,0.013996905589819274,-0.30920410156,0.30529785156,0.025508172864325235,0.15923099312750477,1.0388743438742771,0.89687410414,1.20030087161,0.00445240587384076,0.06652506408647187,0.004427163590718639,0.26931962440005464,0.06633621884410949,0.00040846507912188683,1.0574504039445562,1.5027904531509495,Null
-0.9189285197544445,-1.02880859375,-0.79614257812,0.0046703476557046755,0.06815890860003194,0.3795695632821164,0.09497070312,0.72326660156,0.02402562461197024,0.15459141277906932,0.023739123467671965,-0.29309082031,0.25891113281,0.01690727195553166,0.12968352050341045,1.0159936786925927,0.91116545558,1.10271359896,0.0021966483227647284,0.046744260020525535,0.003677296270835339,0.24293915521002418,0.060480076693153716,-0.000587760893012412,-0.38978198720998947,0.23333894005989744,Null
-1.007488103199337,-1.080078125,-0.96716308593,0.00024014982603847874,0.015453900200903382,0.10895753301574587,0.03942871093,0.13684082031,0.00038140251309505037,0.019475505561861683,-0.013247663804751383,-0.37963867187,0.03356933593,0.006826188591932952,0.08239220134701009,1.016839735298232,1.00088567553,1.12024923409,0.0005259745292812354,0.022870692876591478,0.00016200800716893962,0.06025742707004156,0.012693027034798585,0.00020122602274986955,2.011646004090572,0.8343808077730499,Null
-0.7952752007333888,-1.29528808593,-0.47570800781,0.06001065388339751,0.24428929850041137,-0.0863661024286111,-0.35607910156,0.11865234375,0.010194060770334617,0.10068479080471049,-0.36385633680427787,-0.92077636718,0.15795898437,0.20298294306342513,0.4492830511452731,1.0182191198083335,0.70921564665,1.30047343738,0.0072532507867453765,0.08492911720394387,0.004547653666289855,0.2958681386500075,0.06724870945750079,-0.0006558710835161289,0.42663525242520306,0.8497181121454402,Null
-0.9945118921002367,-1.06225585937,-0.93383789062,0.0007312293129366097,0.026961129654900325,0.10017927722609467,-0.18640136718,0.27563476562,0.01885159503785367,0.13689429183943866,-0.01992996486573965,-0.23510742187,0.16674804687,0.01403270954613787,0.11810874549262301,1.0159836809707101,0.95314442505,1.07556933723,0.0006848322889439389,0.026091761666840012,0.003176852763206932,0.207737046200009,0.05619657300816939,0.0004714762138065514,-0.17691682644182416,-1.0706183725213114,Null
-1.0006366032387097,-1.19018554687,-0.828125,0.006353061376167231,0.07949154126200689,0.250113538512742,0.08374023437,0.56066894531,0.010039546851528863,0.09992782792189225,0.05117371261591398,-0.208984375,0.41491699218,0.015901211580068898,0.1257605709084919,1.0453908567979033,0.84879168042,1.21974467377,0.005758254753686761,0.07567890323462657,0.00020662393514491784,0.07444981443006782,0.014335726482225133,-8.974942863593081e-06,0.6168429746526796,0.21134860121312435,Null
-0.9561057712684239,-1.26013183593,-0.51416015625,0.021922833995847952,0.14766071975618295,0.3535985531986413,0.12548828125,0.78674316406,0.03542362455483167,0.18769950680852654,0.05993121602945652,-0.93322753906,0.33630371093,0.06028926695293031,0.24487059417864676,1.0652783813735869,0.80098489172,1.75436902896,0.025076590234176084,0.15792499617757158,0.03928415383447347,0.9466618200599441,0.1976629783202119,0.0015374605547260713,11.620725952113702,3.4647578674049595,Null
-0.6288875233008522,-0.76818847656,-0.35974121093,0.009070673232213796,0.09496912822660675,0.6680727871939773,0.57580566406,0.98181152343,0.005821807908846307,0.07608370032286003,0.4411274303052272,0.15502929687,0.71179199218,0.008222304565112342,0.09041895224751192,1.0264855069629546,0.84053235766,1.30305311201,0.005757846451654885,0.07566459816187326,0.016599519064585507,0.5288439915200343,0.12847257923523955,0.00045628090656575507,-0.48681960082498943,0.02944670247181131,Null
-0.6891358883756287,-0.84167480468,-0.61328125,0.0032390106622527714,0.05674165479456964,0.651005362318443,0.41589355468,0.76843261718,0.005952091980477818,0.07691846794582975,0.3501751380016766,0.12536621093,0.45397949218,0.01053741221671547,0.10234409577483536,1.0200386567132933,0.96493635621,1.10857369806,0.0004732342802245228,0.021688719234191436,0.004840236862222127,0.28430802654997933,0.06936319923386841,0.00018498572021338592,-0.52504810288093,0.6295360351116588,Null
-0.7739094616854546,-0.876953125,-0.73046875,0.0021563317873849732,0.046311991982165665,0.5895127893106951,0.42431640625,0.65478515625,0.003985161294755955,0.06295911587521974,0.2837736568313369,0.19738769531,0.37133789062,0.0020283584874433882,0.04491671905440267,1.0173459149545454,0.99520901302,1.04472398399,0.00014487480453246256,0.012004168982375359,0.0021196995366363036,0.15423244224996324,0.04591692765197316,-6.909169443218179e-06,-0.9593392819812281,0.2952436002305229,Null
-0.740334376099096,-0.78564453125,-0.71899414062,0.00034985574592545345,0.018651518967373177,0.6093646550551978,0.548828125,0.68713378906,0.0006521662298360856,0.025465303353097136,0.26374566891446327,0.13037109375,0.3193359375,0.0026144776761135267,0.05098731818596171,0.9960407251967797,0.95001542053,1.06681771776,0.0003602138616288371,0.018925611088309997,0.026236476310027745,0.5438891479499262,0.16151856744755408,0.0021902509906574033,-0.5084556469329646,0.7869968427722989,lift down
-0.7480529785119374,-0.77075195312,-0.72277832031,0.0001062952872360548,0.010277691457269452,0.659640502925875,0.64208984375,0.70007324218,0.00017868534386313712,0.013325485374424172,0.20812149047475,0.18615722656,0.22314453125,7.5128491173223e-05,0.008640540382602837,1.0189798832899375,1.00501271141,1.03414454413,3.906780390767758e-05,0.006230861106881985,0.03198349340818912,0.6359188045699966,0.1782795461470214,0.0038202901179934996,-1.0629719551998245,-0.27278725558644545,lift down
-0.7641601562464063,-0.85119628906,-0.69177246093,0.0017898143585730845,0.04219588141974107,0.6488749186152605,0.59167480468,0.70837402343,0.0007452439471575248,0.02722797216588263,0.15040079752239582,-0.05346679687,0.27185058593,0.011620773902460586,0.10751859856966733,1.0203562433395834,0.97888923411,1.07755118455,0.000557950890010548,0.02355939081962314,0.029139444705752995,0.7194724692400314,0.1702576775495813,0.002805087301691235,-0.3866317352391073,0.45086141595497775,lift down
-0.8097067039068155,-0.83959960937,-0.76245117187,0.00029946030997291255,0.017256516083710684,0.6358540284534637,0.58325195312,0.67749023437,0.0007073298049150606,0.026521279037013103,0.08908745962446928,0.01745605468,0.14721679687,0.0013774280263634227,0.03700990269812285,1.0341844150440225,0.97692468411,1.08161035332,0.0007093241875792252,0.026558642333912367,0.012479947262312788,0.44078547859010087,0.11140119786854034,0.0018550201448357272,-0.2602743457813146,0.2754353341283393,lift down
-0.7983834402863187,-0.83447265625,-0.76428222656,0.00023826773864793482,0.015393458846171328,0.6456754914967582,0.60705566406,0.70849609375,0.00045025518203388205,0.02116084243271679,0.07628254313686814,0.03430175781,0.12231445312,0.00045641115786552023,0.021305008900511506,1.0298813911817033,0.9881989064,1.09052982406,0.0005087276298417176,0.02249294162808292,0.007941791856924901,0.33086620445999415,0.08887156822027395,0.0009808780691042847,-0.6178915808445757,0.2685144037002245,lift down
-0.7952310140987012,-0.88159179687,-0.4091796875,0.010067497041596402,0.10001061785722272,0.6006913618572077,0.51672363281,0.66918945312,0.0011088392446136682,0.033190947407064395,0.03056117466538961,-0.14001464843,0.57800292968,0.02363454334759018,0.15323534933849806,1.0140390011474025,0.93404742913,1.06839645432,0.00046924958216004167,0.021591723112137445,0.011098484886498249,0.39998398662010004,0.10500674646335677,-0.0007594005989710334,-0.07640206653088555,0.7519578760027553,Null
-0.6060835289793782,-1.1103515625,-0.26403808593,0.04407268597653909,0.20939037726373744,0.5965778568217098,0.12878417968,0.89990234375,0.029164471251822772,0.17033308545850195,0.49986338244445594,0.01977539062,1.05615234375,0.04541803168929365,0.21256223818032674,1.0393479076051297,0.7775603812,1.25763483747,0.01095888841612311,0.10441315343795639,0.031843035397844485,0.8036646136799845,0.17798327330715732,-0.001078337793706796,2.0832833945310503,1.3033536984576917,Null
-1.004220349045965,-1.12915039062,-0.91638183593,0.0026114579366421343,0.05095278454414559,0.23560284173619883,0.126953125,0.49243164062,0.007152847280843946,0.08432685079250678,0.10617975602859649,-0.22082519531,0.41125488281,0.013462765491365982,0.11568939393310632,1.046408407551111,0.94105489196,1.17360047784,0.0033818102216268404,0.05798304539832407,0.0016517498609795553,0.18405514501000653,0.04052271591425474,0.000491286564807945,0.7012484169434545,0.7434740719834275,Null
-1.0000303594518136,-1.12292480468,-0.83532714843,0.0036858366851011477,0.0605536050594552,0.1939652991384974,0.06408691406,0.35217285156,0.0034865604050920746,0.05889393283924028,0.07503086544466321,-0.02490234375,0.19995117187,0.0038897444602188614,0.06220603141050448,1.0248912396456475,0.85324826625,1.14308904326,0.003936053577806954,0.06257523086508206,9.692690819635239e-05,0.03840332945003411,0.009819607743529565,0.00010211686296174279,0.22967093035399122,0.9454230536841359,Null
-0.9914749500326163,-1.14868164062,-0.87915039062,0.004588742130770082,0.06754304847615075,0.24458277502372094,0.00598144531,0.49328613281,0.011928616423654519,0.1089002479454788,0.17109573718831397,-0.08801269531,0.57836914062,0.04273928925499336,0.20613297896052138,1.059390959029535,0.9254500525,1.2501955237,0.008770984099181372,0.09338088672518312,0.00021019800583932445,0.05354303097999491,0.014455999599129285,-0.00019945081176988156,-0.3875542436749795,-0.39958618582924477,Null
-0.8067600841795722,-1.15979003906,-0.50183105468,0.02722370047024096,0.16455430466658671,0.5233957219214437,0.00598144531,0.76281738281,0.025091646987920168,0.1579793247786035,0.28530051491160424,-0.23669433593,0.5537109375,0.025984337238049778,0.16076499483090215,1.035927272809198,0.77437038226,1.25774351961,0.010995755044924983,0.10457989393668239,0.006694415154015112,0.4507783500499727,0.08160034400966894,-0.00035306273235040435,7.250437025094827,2.308331509189091,Null
-0.7442141297009138,-0.79028320312,-0.70727539062,0.00021268826553840398,0.014544579067123614,0.6367614089761827,0.59985351562,0.74731445312,0.0009451809996555606,0.030661040122243775,0.27739887852381717,0.005859375,0.423828125,0.0075875259786017234,0.08687193348935623,1.0221449101501612,0.97978108064,1.06978225103,0.00018907680173902875,0.013713506473334794,0.003556304170443598,0.20641704682009276,0.059474231861779775,0.0006106104487624111,-1.0507103153255979,-0.32459750681978755,Null
-0.7604281916060694,-0.77502441406,-0.74206542968,6.20954212422089e-05,0.007857257038651892,0.6039439295028901,0.59240722656,0.61328125,3.1648960662710764e-05,0.005609457967893346,0.3142096899797688,0.30029296875,0.33569335937,5.9815079859098706e-05,0.007711635880434106,1.0207124495439885,1.00947438214,1.03075926837,2.5951039089633866e-05,0.005079471732703649,0.00015526551859742436,0.055969030700111944,0.012424493150652803,-8.620994795743914e-06,0.08530761361447947,0.08479975882621253,Null
-0.7709296928611536,-0.79443359375,-0.73657226562,0.00022727145248936363,0.015034051624393092,0.6003666133627472,0.58129882812,0.61840820312,6.267786340177721e-05,0.007895155447293757,0.1540466979265385,0.01989746093,0.32006835937,0.013239186158757459,0.11474512354634242,0.9958472751402747,0.96681711965,1.02700763904,0.0002474104798089573,0.015686015477751152,0.017363662894653943,0.499694340829933,0.1314087445852616,-0.00044508694277740186,0.2880400623908441,1.006038073859576,lift down
-0.8153090122733714,-0.90380859375,-0.77392578125,0.0012625481528619807,0.03543068715094986,0.6328857421837142,0.59777832031,0.66369628906,0.0002738441201476945,0.016500887751996658,0.09784877231719999,0.046875,0.16943359375,0.0007631435055875475,0.027546010338261668,1.0374408280642287,0.98602959675,1.09390054075,0.0008553419075315377,0.02916254857670194,0.03678825234453676,0.7030470129700461,0.19125384639193754,0.003327526900746275,-1.0497328157896633,-0.33478879835060815,lift down
-0.7822126477459586,-0.81616210937,-0.75939941406,0.00019376084614023618,0.01388369201373524,0.6474571425639896,0.62976074218,0.67260742187,0.000184675819352223,0.01355429636026528,0.0742244423946114,-0.03552246093,0.19567871093,0.005892588336095257,0.07656406983900725,1.0211246498434197,1.0022886209,1.05191635311,0.00011019870439029547,0.010470326004826237,0.03249148210324068,0.7908397530800357,0.1797863522490997,0.0005431630498262438,0.24710569892577228,1.04773240478045,lift down
-0.7853154447860311,-0.91784667968,-0.60485839843,0.004338439654854081,0.06569685353081743,0.6485413226854639,0.52026367187,0.87109375,0.0055590799022217025,0.07436682628147662,0.12219301203793816,-0.05126953125,0.25073242187,0.008800457718233097,0.09356866213705577,1.0320987569504638,0.88521687366,1.20660996106,0.005660255665688654,0.07504051632346569,0.005815524991979335,0.33252858673995433,0.07606279023958422,-0.0006223339482794547,2.37156264240427,1.5439626044748125,Null
-0.7746785481735,-0.88940429687,-0.69128417968,0.001789703798703148,0.042187213700616254,0.6578755696578888,0.56921386718,0.72692871093,0.0016030401949079895,0.03992661287972459,0.06611328124761112,-0.13488769531,0.22143554687,0.006108774252832727,0.07794123823814174,1.0227094132848333,0.93612657716,1.09142735323,0.0008168099556434734,0.028500388112384808,0.003061422856342123,0.2738681402399834,0.05517621726418609,0.0006374442562924634,6.005147874997405,2.6070517121559282,Null
-0.592539413195801,-0.89477539062,-0.30480957031,0.020970631950137653,0.14441181428508287,0.7508605619783425,0.56665039062,0.93518066406,0.010867947716974692,0.10396106870812823,0.1286054579581768,-0.38488769531,0.63659667968,0.08581285319286523,0.29212796687681014,1.0226980298404418,0.86132796064,1.13865421471,0.0023173106916086353,0.04800529002212189,0.006158254375803502,0.28556735580002623,0.07825746527306394,0.0006059034725165902,-0.9316757890598768,0.1381555418087612,Null
-0.8818842138906215,-1.27856445312,0.095703125,0.12227593872958487,0.348690570874792,0.4197818734508475,0.04077148437,0.93518066406,0.052448637798768495,0.22836881970007383,0.09411690059920905,-0.38977050781,0.4912109375,0.05070080938134645,0.22453143238888487,1.0775127722906215,0.72008593423,1.42117169036,0.026059831362472287,0.16097391303192143,0.008480242050601362,0.4725589263500751,0.09182772499939257,0.0009062292115378421,0.5589422495962895,-0.63911216244791,Null
-0.062240856321675975,-0.62707519531,0.17443847656,0.07541201466865588,0.2738443326003345,0.9043261991494973,0.65576171875,1.02233886718,0.005953606483377126,0.07694378540182184,0.34830274528301675,-0.04113769531,0.52478027343,0.028175492744256913,0.16738604409226843,1.0247635441955307,0.87661441812,1.11569189784,0.001793451170692296,0.04223069843619803,0.010152589846117489,0.43631096360002175,0.10047821389280813,0.0010741310643245078,0.40761381596918556,1.2374080756465649,Null
-0.6680520678286772,-0.76611328125,-0.59643554687,0.0018702750948247288,0.04313211633345129,0.6007202794278306,0.51879882812,0.76123046875,0.0018472654935073757,0.04286597254241803,0.48824895626291004,0.34057617187,0.60729980468,0.00336893574765001,0.057888778625776315,1.0255999445071955,0.95321010772,1.11569189784,0.000743130225314035,0.02718820184123975,0.010171019861658383,0.37259174192001865,0.1005843175736428,0.0002809310715046312,-0.46373004021910447,0.7726675747859773,Null
-0.5086929953263906,-0.85827636718,0.02624511718,0.030782812082310478,0.17493045836919136,0.6088101539343787,0.31384277343,0.81848144531,0.008092395740901915,0.08969120214622524,0.5925119614424852,0.31213378906,0.91284179687,0.021959833498387177,0.14774942861209803,1.017434149644852,0.74158285507,1.20092020267,0.005826087172196783,0.07610264964903589,0.032510344248269554,0.5797187999399966,0.17977200935460508,-0.0026724377160888507,-1.120037606343098,-0.5308969217700339,Null
-0.6832004123224867,-0.95825195312,0.06030273437,0.07051424291079249,0.26484174836770025,0.6569410858930687,0.455078125,0.96520996093,0.01891076821026765,0.1371521463033304,0.32055341124756614,0.16027832031,0.720703125,0.01132389022222209,0.10613187767650938,1.0478830991971428,0.88596959333,1.1185833274,0.0032629965185162545,0.056971326004159786,0.0014900882637109863,0.15479466775002493,0.03849940517493259,-0.00010221589637347482,-0.3318575430657673,-0.4826281803281509,lift up
-0.14555349963099415,-0.60717773437,-0.00219726562,0.016869854054612495,0.12950366765977733,-0.09530907346263158,-0.39270019531,1.0400390625,0.184756990923592,0.4285750117357202,-0.8393561826074852,-1.02563476562,0.22595214843,0.08648628478399942,0.2932243459140536,1.008363439576082,0.79387434563,1.1589917462,0.00443743115403572,0.0664189827101111,0.22775762051311516,2.415536956850019,0.4758421004951976,-0.007820347521127216,-0.17948808234257818,0.23088810040754265,lift up
0.06995192307569231,-0.70812988281,0.419921875,0.16663331980477475,0.4071594159044121,0.7656588040831794,-0.17858886718,0.96337890625,0.04016442113357654,0.19989609736847774,0.3299422826502564,-0.76684570312,0.86450195312,0.12736677843078648,0.35596855965727475,1.0123197624322051,0.75895417134,1.20725106271,0.007687562849035099,0.08745364171839431,0.03712780669562722,0.6640718877699783,0.1921910707783577,0.002627621268107102,-0.08837040017187503,-1.1098228108913586,lift up
0.2751303618764151,0.10925292968,0.4775390625,0.01475400640108246,0.121083499734662,0.6064000159650313,0.42956542968,0.84716796875,0.0194433651304808,0.1390002871047206,0.6894892086733961,0.35363769531,0.92211914062,0.03410150536110707,0.18408430265675052,0.9924678551405031,0.87947290591,1.10940383819,0.001700640842943262,0.04110894049455822,0.019460938346084297,0.4497244191599066,0.13906308822771657,-0.002953700697110276,-1.1044253677513851,0.49694225578758927,lift up
0.3993694479658883,0.31494140625,0.46069335937,0.0006489142231455438,0.02540905827293475,0.8218572781140608,0.60095214843,0.92041015625,0.002236946545079521,0.047176174987752624,0.43697701855553295,0.32861328125,0.69873046875,0.005468901633054279,0.0737640882208889,1.016582974780812,0.90318010221,1.08795936956,0.0007838426998331875,0.027926041661497956,0.0005891909713282058,0.08293827570003032,0.024211570668068286,-0.0002715168099327952,-0.40527225959222557,0.9616967974437057,lift up
0.42811635906488765,0.23974609375,0.62731933593,0.006259428244721394,0.07889399798149323,0.8345076314478653,0.67639160156,1.02136230468,0.0053012327611479,0.07260475573008009,0.38226386937792134,0.20483398437,0.517578125,0.007518744611311221,0.0864667824834799,1.020020220899382,0.89429038357,1.21036453843,0.004367774639453247,0.065903236488666,0.0005013969959992458,0.1015019349299564,0.02232890859274296,0.0001417131627777495,1.7815863552537472,1.4426949732817964,Null
0.4448693316879348,0.20654296875,0.65771484375,0.006224024562117742,0.07867781352879254,0.8499012822652172,0.72326660156,1.04125976562,0.004471139164074072,0.06668462712427883,0.32177070949048914,0.20654296875,0.50769042968,0.005500668503494591,0.07396467782648417,1.0176140954647825,0.85980373438,1.23363675603,0.004370417742757465,0.06592924595667989,0.0009153245717898773,0.15213492551004038,0.03017200659097439,-0.00030149582287164825,1.9933136672570262,1.4578789848358231,Null
0.4284328026072784,0.11596679687,0.61218261718,0.011224173602274387,0.10560840179096675,0.8101667573144302,0.50366210937,1.06066894531,0.01404344959137712,0.11812945017660342,0.4049242236920253,0.22607421875,0.615234375,0.014427662933815923,0.11973449215430781,1.0167452388826583,0.74444591837,1.30805713981,0.009622539438440209,0.09778362485659678,0.0009531322810387494,0.19367308570997466,0.030774986567785288,-3.2108704884851305e-05,2.6842187565505657,0.5072201258572898,Null
0.2773105719116923,0.01477050781,0.57531738281,0.01788036222590404,0.13337416564178758,0.7988713191077434,0.4677734375,1.1064453125,0.026510133923190318,0.1624013070096913,0.5740854116545641,0.26501464843,0.97094726562,0.033190408190627955,0.18171461407695738,1.042187486600359,0.74222674015,1.45029531834,0.035882908902842875,0.18894150942922097,0.0006773321072968765,0.12177264887998263,0.02595878674573869,-0.0002291859516487919,1.002384468067607,-0.6698663275499986,Null
0.2356484153023863,-0.0546875,0.47619628906,0.011654529672007701,0.10764901649999757,0.8202729658603978,0.52697753906,1.11877441406,0.03415901427106516,0.18429576490713734,0.5734655206820455,0.32080078125,0.89306640625,0.019141580623033064,0.13795949275863686,1.0380757423303977,0.75444431572,1.41054153462,0.044478148868264455,0.21029843583187,0.0018816961288021315,0.14850243883995518,0.04325511153060233,-0.0007289242595561019,-1.1396711516226479,0.3021434560354208,stairs up
0.21315864894304348,-0.00085449218,0.37487792968,0.009675456278646185,0.09809623987254457,0.8308881676677176,0.54919433593,1.23657226562,0.03990027883378815,0.19920700161465252,0.544533107587826,0.31799316406,0.88037109375,0.020999413184474198,0.14451742434359396,1.0249787025821195,0.71710324301,1.44690917718,0.052222124907404306,0.22789977843597922,0.0018412579464216583,0.15620027222996669,0.04279311988808859,-0.0006834201348554465,-1.072663253080456,0.12618002274550102,stairs up
0.24544270832999998,0.05859375,0.46911621093,0.006982684199420877,0.08329419789679676,0.8201192220021152,0.55554199218,1.11022949218,0.026989105624072522,0.1637562167880619,0.5150827261078205,0.27221679687,0.8271484375,0.02057756670813413,0.14298831850621865,1.0084599268016028,0.70303517933,1.40807619197,0.03564421139706213,0.18819065561941586,0.0007417120737338221,0.12209421342004134,0.027146961324586685,-0.0005012798414640201,-0.695489844465881,-0.1902471009438111,stairs up
0.3427117731114949,0.09252929687,0.54479980468,0.014117205736961706,0.11850922594981704,0.8242615375284021,0.57653808593,1.13269042968,0.020017025860467996,0.141116424681167,0.4603479129715463,0.24877929687,0.82397460937,0.012687409895931596,0.112347723055919,1.0193159893388146,0.8115573146,1.40851039946,0.016438584331173633,0.1278821698298648,0.00036526493225686726,0.11185667106008168,0.01906258438217935,-0.0002044792067492758,0.5239031283713849,-0.3980245328152865,stairs up
0.32209402901445716,0.08166503906,0.67651367187,0.019549319815425473,0.13941882733863525,0.8403027343716571,0.54150390625,1.1142578125,0.018860590862225492,0.136940921777599,0.4885170200857713,0.27734375,0.63732910156,0.010266826000130604,0.10103543152274354,1.0408463892746287,0.8569697011,1.28229553316,0.013617318914896778,0.1163593815038328,0.000378401860190398,0.07567519289000302,0.01939689572706037,0.00032422383221954697,-0.7481249139014743,0.03184495138956934,stairs up
0.25418139260576716,-0.02966308593,0.548828125,0.020942459858422063,0.1443317470014982,0.8149375309980423,0.50500488281,1.18078613281,0.029152985250820464,0.17029015430027003,0.5224538328749205,0.22094726562,0.90502929687,0.0254369552750978,0.15906718143649304,1.021876834562381,0.69985018089,1.42255567145,0.032276337851502336,0.17918025442876168,0.0025517158159997855,0.17867836715993235,0.05038069743578575,-0.0007837902246877865,-0.9180877836727981,0.4126553899641994,stairs up
0.2176889272803846,-0.03491210937,0.4140625,0.012971367877249439,0.11352628807093318,0.794806847201923,0.44763183593,1.10241699218,0.03205027123439194,0.17845117197082574,0.6205898187064102,0.37768554687,0.95922851562,0.021279312279623392,0.14540600548697116,1.0438929021971153,0.76681776946,1.39586260098,0.04066232647694829,0.201001667998038,0.001657914008999606,0.15330691591998402,0.04058677561836814,-0.0008720087587919659,-1.0423349309660819,-0.27458859959342374,stairs up
0.2201159025451579,0.01586914062,0.39733886718,0.009613160669230065,0.09778836887258337,0.8059306897577894,0.53100585937,1.11108398437,0.032687245896939034,0.18031973757922162,0.5935945209663684,0.33142089843,0.89270019531,0.020314817687957197,0.14215448496218008,1.0328372986886316,0.71242184837,1.44054228261,0.04605718873913703,0.21404387980649028,0.0018385997526244805,0.15011573004994716,0.04276590828944469,-0.0007471734928957087,-1.0648122859065396,0.12311891311219757,stairs up
0.20804248335408287,0.00903320312,0.39819335937,0.008649964805038544,0.09272961544911147,0.8196003027883432,0.59484863281,1.17492675781,0.028190374317550067,0.167402411478824,0.5556741748298225,0.28173828125,0.841796875,0.02119332541659809,0.14514792841853508,1.0231127159473963,0.74454390243,1.40952820146,0.034937491043195976,0.18636190685589168,0.00089203492062981,0.12135729756005276,0.029778458782985878,-0.0005356201279516075,-0.156272410005192,0.5048872365641554,stairs up
-0.4934394836388125,-0.685546875,-0.08642578125,0.02985374662256461,0.17224157658989767,0.156027221677625,-0.05932617187,0.71594238281,0.026910769405034746,0.16353157828460313,0.8615051269492501,0.70629882812,1.04565429687,0.008237356809672736,0.09047581626938926,1.03395701138825,0.88916359177,1.28198908214,0.005581495759153912,0.07447557593371937,1.8636286842392547e-05,0.0324569166400579,0.004303464888857302,4.4706954857842726e-05,7.072814127111657,-1.57387983126993,Null
-0.5653184079295028,-0.70629882812,-0.48107910156,0.0024950256434967412,0.04981205648669028,0.1344135769140884,-0.14208984375,0.306640625,0.012449434114705392,0.11126838145114157,0.8299580779492264,0.66943359375,0.95690917968,0.0025056485459522544,0.04991798457289639,1.020789742263591,0.89080007405,1.14780233945,0.001834459245962391,0.04271210732341355,2.6303735901757638e-05,0.02381575537003755,0.005114529440135536,-2.618865683078215e-05,-0.13189888892085522,0.4594513406160804,Null
-0.23289498366723163,-0.5625,0.48156738281,0.14844247506082767,0.38419242185347247,0.2649898205740678,0.02746582031,0.66784667968,0.021619056154738622,0.1466182614633742,0.8430451646320339,0.53039550781,1.02502441406,0.011030009605813103,0.10472675478292155,1.004420618558983,0.74582676329,1.1554785423,0.006428794696718107,0.07995294755495477,0.00011323934844575775,0.043959082009905615,0.010611294836896944,-5.026041930506731e-05,-0.09225423340860095,-0.25513819456916353,Null
0.4159683719722042,0.17651367187,0.52880859375,0.008065292652222148,0.08956523244970305,0.6686762327748388,0.42517089843,0.85815429687,0.013864745017413303,0.11743169664760335,0.6073385259122043,0.41796875,0.86633300781,0.016644347059233667,0.12866569598131455,1.0108500754727956,0.86915319197,1.19128252856,0.005596887088770994,0.0746109663385427,0.000464789141496726,0.09782793136002965,0.02150093661086868,-0.00015777556556893527,0.23398733398111915,0.6484325180465458,Null
0.3511045513695152,0.10021972656,0.58471679687,0.012339717259951324,0.11074714937522996,0.690962357950606,0.38671875,1.05883789062,0.02341389058020735,0.152551591971551,0.6683083274117575,0.41442871093,0.92211914062,0.02192473776323926,0.14762066442295324,1.0324329186748487,0.61130143372,1.42643324693,0.03898673815835006,0.19685135228589187,0.00043801204324628106,0.0862795082299499,0.02086522045899262,0.00032932706192520794,-0.6639152403650144,0.46704146423878,Null
0.36950526083309676,0.15515136718,0.58129882812,0.011478195133910851,0.10679017867800002,0.7097742880499999,0.34118652343,1.15893554687,0.03464610609739227,0.18553323915742917,0.6211795929909032,0.31555175781,0.90783691406,0.02404645688618164,0.15456816766287257,1.0215206014268388,0.59987872904,1.50617693609,0.05273167326519031,0.22889182799205376,0.0013744469566111892,0.13991582822995952,0.03695374888818612,0.0007764267902424746,-0.9773419466402773,0.325664906200148,stairs down
0.3742305674414893,0.21398925781,0.53735351562,0.00827289310668356,0.09071322040428338,0.733197800653085,0.32971191406,1.13757324218,0.04233344585503258,0.20520299206285558,0.5841155356509574,0.32995605468,0.89782714843,0.026283131321269998,0.16168898364224832,1.0144284053550001,0.55587016542,1.45424270201,0.06658817806587834,0.25735964258087884,0.0023458187357382186,0.15583458416006124,0.04830466826824886,0.0008441444666531892,-1.2713319538265793,0.08712563935626975,stairs down
0.3593444824181977,0.18078613281,0.51721191406,0.006139599984916322,0.07812748963179868,0.7439333893496511,0.43786621093,1.13244628906,0.0247878096152329,0.15698310241249314,0.6037313771773837,0.373046875,0.83325195312,0.01340791623987893,0.11545545997692913,1.0303024416432558,0.67906751528,1.38973774626,0.029784527542996143,0.17207952139981103,0.0010432509452282396,0.12482842400993377,0.03220536496852632,0.000599509646876372,-1.2923025204915577,0.0520271262212997,stairs down
0.3345716688326667,0.07946777343,0.55786132812,0.013256120580094077,0.11481496185497872,0.7527174207860555,0.59790039062,0.9189453125,0.007699104554917194,0.08750046715209195,0.5993028428776667,0.43188476562,0.75744628906,0.007323956770762429,0.08534206537245259,1.0263250694626112,0.89490383001,1.25475611659,0.012534176068194765,0.11164471217529648,0.000245189358464254,0.05681176574000801,0.01561496703043829,2.025587710979554e-05,-0.8972066706343624,-0.125072170065223,stairs down
-0.5111189217387931,-1.15942382812,0.43701171875,0.33378895631964534,0.5760821373593135,0.47629170033764373,0.09448242187,1.0263671875,0.06617038250851603,0.2564957951972496,0.377924075068046,0.0986328125,0.72814941406,0.04150245021088304,0.20313525145105876,1.025638329569253,0.70608551042,1.35717932091,0.018154316052493423,0.1343502173528813,0.0006386516973589515,0.12875104467991605,0.025198834998967003,8.70045448561584e-05,2.651522127541357,1.1809346840552555,stairs down
-0.976628390221875,-1.35949707031,-0.63745117187,0.032505191711348004,0.17977903971842488,0.2645034789998295,0.16821289062,0.44836425781,0.004010295255891407,0.06314672982342018,0.14104808460204546,-0.02807617187,0.27722167968,0.007111896599635433,0.08409214051401245,1.0264906553502842,0.67818522779,1.4140761675,0.033546706632842906,0.18263652522197277,0.001139138989642849,0.1218487803799917,0.03365511267281508,0.00057190025355098,-1.0243261420370178,0.15148463069610632,stairs down
-0.9774342412491848,-1.30981445312,-0.60424804687,0.050297274642112415,0.22366027785152792,0.24352562945445655,0.09326171875,0.43188476562,0.004554905260627532,0.06730639152957776,0.14344389541940217,0.00146484375,0.28625488281,0.0054623352234291515,0.0737065032337988,1.0227452339021195,0.65839421698,1.37850194628,0.049506541973162614,0.22189521103401535,0.0010775636214072936,0.11614734353008771,0.03273694086774001,0.0005489560300440687,-1.0585614202611002,0.36040415744984494,stairs down
-0.9461275203465268,-1.357421875,-0.60290527343,0.05262020953261048,0.22870312297291637,0.28512335679874246,0.22216796875,0.43188476562,0.002235518061462798,0.04713949220945656,0.19977354860227545,0.06994628906,0.33801269531,0.006704998789591952,0.08163852703375472,1.012786793180419,0.68300640486,1.41407664697,0.05212924608202121,0.22763368579337587,0.002189764438431796,0.15656173760999081,0.04665460402280807,0.0008959144719415503,-0.9650755699866505,-0.5761221088492738,stairs down
-0.9763358943332596,-1.37414550781,-0.6083984375,0.048030385397061594,0.21855210855028134,0.28804479777795583,0.1162109375,0.4541015625,0.006631343103271014,0.08120779425989115,0.19721504337441992,0.05126953125,0.36901855468,0.00616240417968668,0.07828382813681706,1.044010307741326,0.68160067334,1.42851530809,0.045879399848724585,0.2136022530346861,0.0012420500837862255,0.16556146630000512,0.03514524048327434,0.0006306141404363912,0.13053558926015318,0.2641968573218422,stairs down
-0.9725354381410308,-1.03894042968,-0.89123535156,0.00124461524064788,0.035188061870047825,0.21223433975907216,0.111328125,0.36669921875,0.0031521692124110755,0.055999293901813976,0.1880971377620103,0.03515625,0.50122070312,0.008701897557332859,0.09304322874494818,1.0189900201934021,0.91801370551,1.09178100874,0.0014024818387495543,0.03735307953731457,0.00032304881477892265,0.07896351501995014,0.0179271753129918,-2.8280994513841796e-05,1.6171263202841288,1.1244550046259718,Null
-0.9684338303049689,-1.11535644531,-0.89050292968,0.0014213065564637856,0.037582955783570945,0.22481939658913042,0.05969238281,0.3486328125,0.004716135600795284,0.06846052025137175,0.18172326887192547,0.00610351562,0.39428710937,0.006946277916966262,0.08308509694061304,1.0163679066885716,0.91071280461,1.1435568636,0.0014388612260175203,0.0378143385472887,0.00026538661077508843,0.062442293179969965,0.01624001991171831,-6.282873266251834e-05,-0.9159747239131124,0.16231608371723613,Null
-0.9854309415517485,-1.07141113281,-0.87329101562,0.0016809295508946587,0.04088696789336085,0.21365039595814211,0.083984375,0.35485839843,0.005123733312712347,0.07138441545617594,0.1341179185836612,-0.00646972656,0.27136230468,0.005501299512110904,0.07396781574538405,1.022230259447049,0.92536224669,1.1140444833,0.0020032081885355078,0.044634758828764616,0.0003631838560209916,0.07170379284002593,0.019005242560564815,-5.0789521072854994e-05,-0.10945030852560089,0.9046218669891345,Null
-0.17612187733964066,-0.98706054687,0.45532226562,0.30576281246056003,0.5513001881152283,0.5880580148253295,0.16589355468,0.98034667968,0.039484015877345145,0.19811003166055643,0.5149093902001796,0.03381347656,0.98840332031,0.05862567850558838,0.24140138056458801,1.0182230844285032,0.859073985,1.19167006026,0.0066786756029252395,0.08147811689924261,0.0003217031019424806,0.07734423638999033,0.017882302314371757,-9.428166278928816e-05,1.0552700086259117,1.0359726404012908,Null
0.3265716714159259,0.08276367187,0.48657226562,0.010592286866853947,0.10264620314944717,0.7596461381816931,0.54028320312,0.94641113281,0.008010152165716385,0.08926236837674553,0.5819304935478835,0.4365234375,0.8447265625,0.008194817605744193,0.09028542951347895,1.0225371195847086,0.92923402545,1.18312822761,0.0034459550009828307,0.05854675426392196,0.00011822513118367068,0.043389417419916754,0.010844334990632117,-9.03994562799731e-05,-0.11926485886894733,0.9075670437721759,Null
0.4032458419277988,0.36889648437,0.44689941406,0.00043705594537614027,0.020840037568235638,0.8074912784945911,0.73657226562,0.85461425781,0.0009656956719250324,0.030977768064209682,0.45012544835547164,0.333984375,0.56665039062,0.005340187130565564,0.07284642096893568,1.011794634566478,0.95605294964,1.04913172243,0.00023592473058971756,0.015311463916055685,0.000319038000802163,0.057547283179928854,0.01780537762854894,-0.00026956635601935224,-0.9004991612410165,0.7863250621617823,Null
0.37315735203966477,0.35205078125,0.40344238281,0.0001308254466831332,0.011405901028235736,0.829480048660838,0.75170898437,0.87768554687,0.0011893171097248926,0.034390011341400066,0.45723856494033516,0.3671875,0.56420898437,0.003539876129973946,0.05933043304807757,1.020288954067933,0.96795419338,1.07396901782,0.00019507352539841142,0.01392780417607655,2.1591526639447465e-05,0.022952980009904422,0.004633670638445918,-2.26449147077088e-05,-0.40170047543249376,-0.218239039401467,Null
0.35769401998723527,0.34326171875,0.36889648437,3.087415259028847e-05,0.005540084830396792,0.8070858226069412,0.78820800781,0.84448242187,0.0002881447965298446,0.01692482871814343,0.5152293485712353,0.49169921875,0.54357910156,0.0001969331389917254,0.013991951570898262,1.022347163576647,1.00741229871,1.04980024469,0.0001136815368325835,0.010630748887544983,6.536657662622444e-06,0.012388750869945397,0.002549158044373721,-6.67187293904966e-06,0.49289947044732374,-0.8679202552041665,Null
0.36050104967058816,0.33508300781,0.37731933593,8.56980654850484e-05,0.009232539578035649,0.8396348596213903,0.79455566406,0.87121582031,0.000422320251053113,0.020495410559163187,0.5081787109335828,0.494140625,0.52868652343,7.032066262974894e-05,0.00836328980159875,1.0456810705251336,1.0062865452,1.06923708524,0.0003213701152185708,0.017878801930014666,0.005289511404276604,0.24408612620993608,0.07253430393292874,-0.0012969899231403455,-0.8402068806819041,-0.6569488288654116,lift up
-0.43352819371962953,-0.92565917968,0.34106445312,0.24445864671488252,0.49289922166992245,0.6514056170388889,0.17663574218,0.8935546875,0.02514948042896983,0.15809565687462185,0.11507086106277778,-0.30236816406,0.52014160156,0.10799715980861647,0.3276133554573064,0.9986958347609259,0.85755259879,1.12929425946,0.0036917295837176753,0.06057178492910041,0.015368858550999811,0.44302823141003955,0.12358798102473968,-0.0025116113279625785,-0.6666730595433443,-0.642934991516628,lift up
-0.8347457627079663,-0.87438964843,-0.77404785156,0.0005660387292768993,0.023724265433400272,0.4901447188341243,0.43286132812,0.529296875,0.0005527279695131345,0.023443660393019473,-0.26145254016271186,-0.33581542968,-0.23645019531,0.00047173302068241656,0.02165797456766159,1.0031815792648588,0.92100239527,1.03357499466,0.0006114519182450228,0.024657603039092608,0.0024386096743764583,0.2125221838100515,0.04924258541739071,-0.0008566260885101254,0.26435409179668756,1.1923173070067223,lift up
0.2472339526998919,-0.50537109375,0.53479003906,0.04320959338183343,0.20730660387986172,0.808355547927946,0.56750488281,1.17932128906,0.02030440991352467,0.1421079038844235,0.47234084670232435,0.1015625,0.85534667968,0.0317947019824717,0.17782811568622212,1.0115288682308108,0.77486647947,1.26100387044,0.009963458197677922,0.0995469822088026,0.0022746686852122126,0.17722931154003163,0.04756441084262119,-0.00012030190969299206,-0.42672159022246436,0.6881086324904645,Null
0.31615397135072726,0.14892578125,0.51733398437,0.004998597090829694,0.07048618703693997,0.8047496448818788,0.57507324218,0.97412109375,0.009338729922838948,0.09634381951983338,0.5290949041147878,0.38647460937,0.86657714843,0.016524505443445345,0.12815754728304643,1.0270863973536968,0.92665945321,1.17251669163,0.0033050964096929063,0.057315491120302146,0.00012193937436040696,0.04879918310996345,0.01100910295388011,6.267390221642669e-05,-0.03761343781447435,0.5316968964705141,Null
0.29164751837807484,0.1611328125,0.49145507812,0.003625202978202196,0.06004845431831944,0.8442820176676472,0.56872558593,1.01635742187,0.006762864207900538,0.08201645663316862,0.4660305084358823,0.35620117187,0.65380859375,0.006859121747292979,0.08259807474664836,1.014108472115936,0.86770096604,1.20129260565,0.0038141966604307714,0.06159382994136328,0.00016912246135226567,0.07440304271995046,0.012969890638059218,5.0470725073216165e-05,1.264752239514019,0.3492550099064191,Null
0.33436486316286557,0.06945800781,0.47045898437,0.012645506828927356,0.11212295258596452,0.8044290821423976,0.66125488281,1.08837890625,0.009228000716354485,0.09578118708746815,0.513469138337076,0.36328125,0.68725585937,0.005555123119387557,0.07431444690821684,1.0227663157153217,0.9169575905,1.22736691866,0.0037960578619917777,0.06143174011216189,0.00017116709494866266,0.06500057742005083,0.013044773581217122,3.917362465485987e-05,1.0874886164971826,0.6297086078403714,Null
0.154550552364375,0.06726074218,0.24926757812,0.001634608375202473,0.04032486565278253,0.8083229064908334,0.68823242187,0.89379882812,0.002888445986245223,0.05360412294528779,0.59017562865875,0.484375,0.78247070312,0.005687745673259834,0.07522048921589299,1.0175759318488022,0.9788993342,1.05891915278,0.00027735331243767094,0.01661050161600761,0.00011183968796705359,0.046999943339983474,0.010547852368715879,-3.22850215388378e-05,0.8152261615789929,-1.1749580780311242,Null
0.09217900814869565,0.01892089843,0.27502441406,0.0034401312713234445,0.058470197505620596,0.8162796304801242,0.5859375,0.90783691406,0.0065796768084494415,0.08086290404526036,0.5772470035865839,0.46105957031,0.76501464843,0.0060688807657193885,0.07766070984823065,1.0115281385306214,0.91269105746,1.04992921312,0.0007720298758578538,0.027699001051258484,2.7697462178612096e-05,0.0211439060799421,0.005246468169353253,-6.86391782679601e-05,-0.19037969667321875,0.7499624178230947,Null
0.28075137380457627,0.16247558593,0.41320800781,0.005232651440994679,0.07213243679859417,0.7437633794540113,0.53942871093,0.85913085937,0.003958786969396287,0.06274090325553659,0.5856043928727683,0.44836425781,0.79553222656,0.007270812224814713,0.08502784361399664,0.9947151268305651,0.87786772512,1.13364546176,0.0018593683931217415,0.04299841260960586,0.007206590134605158,0.25120760036998036,0.08465149104478056,0.0015623527936495726,-1.0215191998469058,0.6908551935436408,lift down
0.4601461237090341,0.40026855468,0.54431152343,0.00101120829149311,0.031709033252953316,0.7081659490372159,0.51354980468,0.82568359375,0.013680878931958058,0.11663252833279061,0.5314379605338068,0.41076660156,0.72546386718,0.015177197432611105,0.12284528218979128,1.0124598253715908,0.98560525068,1.06803760181,0.0002860726729196607,0.016865564325137312,0.01891229310538915,0.4810437263199674,0.1371307292132696,0.0026816827645275657,-1.032974967851407,0.13166428931301324,lift down
0.4378552465343113,0.20153808593,0.51770019531,0.006417305503129575,0.07986788168011544,0.5539419208426946,0.49133300781,0.62451171875,0.0009858198966455356,0.03130362252986017,0.7275368696157484,0.68103027343,0.84985351562,0.0020924198830209583,0.045605815666903575,1.0182358785429941,0.98523331113,1.07372411957,0.0005162378594040251,0.022652739673976196,0.021279206909489246,0.4962463051300574,0.14543653773668302,0.0030086664399939437,-1.204077936945488,-0.15975823435469452,lift down
0.3339755588080555,0.08654785156,0.5126953125,0.013451025477767978,0.11565594476051391,0.6291008843282222,0.4423828125,0.78332519531,0.007551045174174656,0.08665503403269206,0.7221910264719443,0.552734375,0.9541015625,0.01862438327588288,0.13609156652748822,1.033056658541278,0.97322734474,1.10949958853,0.001073687395984742,0.03267602279970818,0.001600049574686314,0.1438012089699896,0.03988935209278914,0.0006961889846626471,0.17247791423891679,-1.1461884191500753,lift down
-0.9173282316315516,-1.05944824218,-0.79663085937,0.004111852464476798,0.06393919868495428,0.40270575161321837,0.2314453125,0.52392578125,0.00709918983696928,0.08401422436336303,-0.12967234644103448,-0.30102539062,0.09057617187,0.008884507689394236,0.09398642082968543,1.0171784916506896,0.86152497894,1.1871055274,0.00583945891957955,0.07619644880731867,0.0018844231079798968,0.18087576619006995,0.04328502154461683,0.0002807188769546186,0.13434256397413114,0.5851972884435147,Null
-0.8741842130300608,-0.97985839843,-0.79711914062,0.0018463957083671614,0.042838501350424114,0.46974591510670727,0.23327636718,0.58654785156,0.004578690942016739,0.06745941072088697,-0.2180190667835976,-0.34350585937,0.09057617187,0.009573863508225222,0.0975473540989793,1.022134807200549,0.91270239623,1.15732138844,0.0027460304146312625,0.0522425719766664,0.002398157282950125,0.23782592712007045,0.04882145402062738,-0.0001774870034252209,1.0034331849969664,1.0369974397756687,Null
0.3518140184984614,-1.13537597656,0.9150390625,0.3081092607503284,0.5535488711254207,-0.22336586753005488,-0.91369628906,1.01599121093,0.27962726186711806,0.5273431978705856,-0.4044491275302197,-0.85083007812,0.25695800781,0.0681812168699609,0.2603969946048664,0.9752579728195058,0.35049830539,1.51139263213,0.03864251497670538,0.19603620447724537,0.010734035968145181,0.44179727724008444,0.10332017106325361,-0.0007154213002024108,-0.024622406595472768,0.6525863296121296,Null
-0.6454717462688069,-1.27661132812,0.65710449218,0.4248368631594504,0.6499407798761703,0.22717909379210227,-0.31237792968,0.91955566406,0.05702208455333047,0.23811361875489226,-0.20363339510630685,-0.85827636718,0.10144042968,0.08903313349028125,0.2975353145655687,1.0314666602976705,0.72658963306,1.39940205666,0.013512355126204443,0.1159119509850869,0.0036143611165192903,0.381866127100011,0.05994851936296504,0.0004954662234602218,6.498510046842924,1.5371284404775034,Null
-0.8708882304867798,-1.13830566406,-0.54382324218,0.015926745151440932,0.12584420344384498,0.5196671135645762,0.21752929687,1.08532714843,0.03259663806533703,0.18003465296536034,0.01776847192762712,-0.1982421875,0.45483398437,0.024621368437875355,0.156468094707484,1.0427250418690959,0.87496527534,1.46862752383,0.0143530195505006,0.1194651792137172,0.008202776816830902,0.4915703416600081,0.09031297495368204,-0.0004300526031255476,4.77494463136402,1.8710060851033332,Null
-0.8745537881754802,-1.03247070312,-0.75390625,0.003308136522154373,0.05735369635259826,0.3876001390322599,0.03015136718,0.5810546875,0.023080750995671497,0.15149373344311015,0.30071228371853104,0.13513183593,0.62438964843,0.014665989332582343,0.12076063363442614,1.022160442207853,0.92486722708,1.10232442518,0.0015256520520723022,0.03894910203012708,0.00019030318664958268,0.05591763427992191,0.013756017861393422,0.0002239248639534143,0.12145245967261831,-0.9345060491003896,Null
-0.9211326995982081,-0.94714355468,-0.84313964843,0.0002528963452005916,0.015856686810794274,0.42598375970566466,0.36279296875,0.47534179687,0.000430759205236408,0.020694667613515454,0.031067952941040464,0.00109863281,0.20104980468,0.0018482855617808075,0.04286725825393805,1.016496548974162,0.97227851396,1.04265905632,0.00016586178153705727,0.012841457974679346,4.0163543764914885e-05,0.034088365850038826,0.00631912846462239,-0.00010107390106202912,0.345942339138396,0.698286961771738,Null
-0.9268418178724195,-0.93493652343,-0.91760253906,1.7250382734637412e-05,0.004142178019042692,0.4209962250051075,0.41076660156,0.43188476562,2.2398913217738556e-05,0.004720009422991342,0.025365685899731184,0.001953125,0.04467773437,7.383760862388583e-05,0.008569751001833999,1.0183404162754301,1.01051012406,1.02651858097,1.2736663947859487e-05,0.0035592397025162228,6.297942095723034e-06,0.008494911199932176,0.0025028148537162287,-1.652009955131951e-05,-1.1609557881831003,-0.04457065075882386,Null
-0.695117187496919,-0.96228027343,0.11279296875,0.15105464409744515,0.3876056404488062,0.5517406566685946,0.38952636718,0.99035644531,0.038966620126061516,0.19686541023501747,0.1888579497430811,0.02575683593,0.59606933593,0.04055541819703181,0.20083874058629997,1.0255358257034055,0.95724175921,1.12134696014,0.0008843542230796685,0.029657611670226253,0.018248080890447233,0.4550626725200573,0.1347198671887845,-0.002487300394352131,-1.056683977835199,-0.31099580660342485,lift up
0.18674698794921687,-0.12048339843,0.30187988281,0.012249203637905303,0.11034225507277087,0.8783245776038554,0.72338867187,1.15209960937,0.009515624862471468,0.09725380106263856,0.4108702877878313,0.07043457031,0.59741210937,0.020291802669630998,0.14201958630594844,1.007162137223494,0.85796401626,1.15546399541,0.002586181236094478,0.050701102858397115,0.010314208934084943,0.3658682260199839,0.10125253155020568,-0.0019165617394084472,-0.907243602444233,0.1080807631048139,lift up
0.025754918600942405,-0.13537597656,0.09313964843,0.004441344498619864,0.06646872487163903,0.8644853362194764,0.74938964843,1.04699707031,0.003831702036365824,0.06173848693610591,0.47552266544979055,0.20983886718,0.62780761718,0.008716346847907964,0.0931166554602179,0.9950554301869632,0.94309382521,1.10742947072,0.0008898109585709387,0.029751508574402848,0.014086086352165015,0.413063328240014,0.11837371840472007,-0.0019170285010783644,0.5405074663487159,1.2474165215767543,lift up
0.04991765940074534,-0.01379394531,0.1015625,0.0010106054232920862,0.03169114025991337,0.7061578027912422,0.45300292968,0.89343261718,0.025848175689326493,0.16027360361031853,0.6802978515587579,0.4873046875,0.90844726562,0.019136975891693782,0.1379061734926959,1.0045140577227327,0.93954779768,1.05121275398,0.0006329663160777614,0.025080567144226146,5.607732330011325e-05,0.027972877329943913,0.007465186999949293,3.194882890902918e-06,-0.7756416364400396,-0.13993486877748618,lift up
0.13826062207304815,-0.1279296875,0.45153808593,0.026918600125843795,0.16362961343397017,0.6140698111588234,0.39953613281,0.83703613281,0.016243429630035583,0.12710848268302913,0.7700012533385561,0.50402832031,0.98071289062,0.01789543543840615,0.1334156584614143,1.0239033169027807,0.96075566439,1.10860634084,0.001460424815599296,0.03811318744512334,0.00028537728615201275,0.07571689513997626,0.016847884270966618,-2.4042380960016216e-05,1.3478075467862256,1.1133479229455843,Null
0.31705613569477276,0.08984375,0.52465820312,0.011151410216888017,0.10529980974135132,0.6490402221639204,0.38073730468,0.849609375,0.01200648991661696,0.10926239620248546,0.6908610950779545,0.58581542968,0.810546875,0.003126965914107779,0.05576019245234969,1.008651217120625,0.82989419133,1.1934601262,0.007869813130195783,0.08845958559062508,9.741383157619634e-05,0.05205610031998731,0.009841765283565044,8.446854571799682e-05,0.3296799554483538,-0.11599580829423747,Null
0.34377000021661014,0.22766113281,0.52465820312,0.0027120193168448984,0.05192973304198546,0.6324111162572316,0.36279296875,0.77429199218,0.009913085731641515,0.09928282629722245,0.7051967469948588,0.60144042968,0.900390625,0.006467121302631235,0.08019092151946998,1.0162211473948588,0.91691465527,1.11504578206,0.0017127015233063794,0.04126772641561064,2.8492827767869885e-05,0.01838423107994913,0.005322767263351163,-4.413349312488804e-05,-1.1439930884679608,0.3559848381597404,Null
0.30757555658,0.15112304687,0.47631835937,0.005454991002332498,0.07364413936244094,0.6382647387515028,0.34167480468,0.80297851562,0.021177007236782272,0.14510202200633485,0.7123303716543352,0.50903320312,1.01416015625,0.018979306819050575,0.13736666205167072,1.0264721106304044,0.9691754376,1.12272839218,0.0011082260494789048,0.033193675881966755,0.00011315824475930144,0.03560911037993719,0.010606797389361157,0.00019748854026599227,-1.2147176575372571,0.26907369726713415,Null
-0.4576443758849432,-1.24987792968,0.40539550781,0.3109049582373433,0.5560022057445572,0.23278877951551136,-0.09826660156,0.81140136718,0.03581860397455498,0.1887196046499807,0.5783892544808522,-0.10229492187,1.080078125,0.2011226625282251,0.44719114495649015,1.0630469884913067,0.8096902204,1.26950162412,0.012900983751614028,0.11325936035300026,0.002129151324949121,0.21604009720999784,0.04601145372881825,-0.00035986113566363566,4.8001455145231136,2.249607563044658,Null
-1.140283999232065,-1.41125488281,-0.73181152343,0.02382154772153935,0.15392232712725634,0.24533877165119564,-0.00817871093,0.57214355468,0.0216192861817899,0.14663488691725682,0.007829085639076085,-0.27075195312,0.12060546875,0.008295754232994229,0.09083319113717594,1.1768853048888044,0.73232320502,1.47198576803,0.028592530630737086,0.16863314159004023,0.0007819164163841929,0.14359881069003677,0.027886679089539766,0.00028515816506306335,1.5678250285195663,1.123973164966733,Null
-0.9124331902557484,-1.89624023437,-0.22668457031,0.1872923530242486,0.4314751927148246,0.5235412963111975,-0.18469238281,1.41296386718,0.15922643758166077,0.39783537532453656,0.01045711311592812,-0.41137695312,0.34680175781,0.026696539716075586,0.16290082933127642,1.1776847592135327,0.33931895546,1.9134490334,0.09132513986285605,0.3012943456786549,0.0037427537912009825,0.3041316788800259,0.06099460707187541,0.0005779462855148793,6.713074619521258,2.2834008850350274,stairs down
-0.9628438313766666,-1.84716796875,-0.17712402343,0.18866625083194885,0.4331490563235635,0.4792548285556111,-0.07409667968,1.83349609375,0.19294500179806895,0.43803320093505815,0.1885281032963889,-0.20983886718,0.54797363281,0.030435197338535305,0.1739715864987061,1.223412772825389,0.55261053848,1.91008323498,0.1059031210301457,0.324522372661356,0.02047842707579377,0.6106286399500505,0.14270479331992955,0.0022339930437682816,2.7955599898334302,1.6165157496962541,stairs down
-0.7407039866692352,-2.35961914062,0.45642089843,0.3654764569720653,0.6027657882299434,0.9704381606135294,-0.20043945312,1.98217773437,0.32952741494264015,0.5723539275519598,0.7874935374504118,-0.19982910156,2.10949707031,0.46836672937556784,0.6823574070584097,1.7332147592782943,0.74716613753,3.3279387395,0.264588939529994,0.5128669749587577,0.03948680956073035,1.0406304233499668,0.1981275705457802,-0.0006119150380400446,9.19152144644783,2.8857123274613095,stairs down
-1.036051432288836,-2.13525390625,-0.03747558593,0.2642126492362926,0.5126545608021379,0.5584923476734391,-0.109375,1.62145996093,0.16625383199627577,0.4066622457169261,0.2171288545771958,-0.28735351562,0.55053710937,0.02833914726123112,0.16789641057249963,1.3151999791869313,0.40110343193,2.186705261,0.1599345269068965,0.39885876256993236,0.0025269615874817034,0.20427091722001478,0.05013572997725445,0.0002977720556634568,-0.5897492394803114,0.26393338384804027,stairs down
-1.0789631168979268,-1.73510742187,-0.64074707031,0.07625270466191987,0.27529574850638117,0.25410721941310976,-0.03918457031,0.52624511718,0.019917671070501023,0.1406990471064268,0.09809242806621951,-0.24206542968,0.38623046875,0.023372206778776657,0.15241290405608215,1.130730731162195,0.64166484735,1.75141358333,0.07909799379840177,0.28038489431167224,0.005069981541607466,0.2733963670500543,0.07098638615968768,0.001248335702871092,-0.5455497928503679,0.4826930085742733,stairs down
-1.208519977067826,-1.93896484375,-0.47192382812,0.10064616970005769,0.31638454394508586,0.17174098802380436,-0.39453125,0.59716796875,0.04646697398017678,0.21497543133602642,0.13730787193967392,-0.10522460937,0.400390625,0.011752814741030038,0.10811540476672261,1.253584741696413,0.47486747976,1.97654787442,0.09591809951493623,0.3088637328917614,0.004731291944291181,0.3402703142099881,0.06859721861063818,0.0008321740541998934,3.230860601600627,1.3725122308295876,stairs down
0.2019346563296373,-1.36901855468,1.02209472656,0.7091348795205851,0.8399170230049108,0.46167434929170986,0.1162109375,0.91003417968,0.05719649114527147,0.23853749447177292,-0.08546566345544042,-0.51171875,0.23413085937,0.05474055484540168,0.23336007590749078,1.0254158055017097,0.61857623781,1.41947622008,0.02670364335589724,0.16298859625597623,0.002877853921191279,0.20632359329999872,0.053506474009953724,0.0004612003522620976,0.0007667358686189729,1.0000017310901363,Null
-1.0097027175965645,-1.96508789062,0.40148925781,0.17191367851132802,0.4133509324618571,0.3005730564569325,-0.05017089843,0.8779296875,0.037317559662217455,0.19258405328167796,0.16043034652815952,-0.1875,0.87524414062,0.04565880421636602,0.2130227425724198,1.1419631534817178,0.41088660472,2.27431345643,0.0853517223628676,0.2912526260213329,0.01473134917613342,0.4658423454999365,0.12099988760664085,0.0013019426740531125,-0.6889997317801222,0.20496384147040522,Null
-0.9520710424006702,-1.099609375,-0.85168457031,0.005157756605824584,0.07163218711981197,0.36426032940989683,0.109375,0.64282226562,0.018379820745539465,0.13522233322010938,0.08991862817907216,-0.10571289062,0.25659179687,0.007799623698154694,0.08808756695634133,1.0367462184871137,0.92663575022,1.19292427659,0.003561522956866385,0.05952448732336416,0.008826724926392165,0.40650046873008705,0.09370819785001396,-0.0003291962575102865,0.04963246373711394,0.614122879446868,Null
-0.9697272482849438,-1.09094238281,-0.69543457031,0.006799633472215183,0.0822279349380065,0.22800334115702245,-0.05505371093,0.49255371093,0.0167388229142065,0.12901466809331336,0.04980194434544945,-0.43701171875,0.32873535156,0.023900411046550444,0.1541627032533447,1.019707822519438,0.85714400009,1.12456667024,0.0022174646051674055,0.04695750141187497,0.02792856661728288,0.8805381370999612,0.16664832599709853,9.582746697474664e-06,14.420841692236493,3.8439336993979056,Null
-0.933532384920054,-1.13610839843,-0.55322265625,0.02102192072162544,0.144596987235989,0.28535222233610813,-0.0234375,0.76342773437,0.02262384980532623,0.1500051956610085,0.11228687183054055,-0.29272460937,0.94897460937,0.04768407596267317,0.21777585770859167,1.0220186158156217,0.73344691455,1.2364742982,0.011895365917827187,0.10877070673023913,0.020424103121337436,0.644300349679952,0.14252614694828736,0.0002181748017708193,0.10831628366503931,0.8156998581533839,Null
-0.9378691173694643,-1.06494140625,-0.77954101562,0.004985793434988635,0.07039968816062826,0.333655221117381,0.103515625,0.75952148437,0.025454823085271784,0.15907013007221935,0.0685243152432738,-0.19848632812,0.54211425781,0.039651841484358026,0.19853417493816955,1.0312574349123214,0.87869361848,1.13900320817,0.0021696110867508124,0.04644024908464598,0.003328634892130214,0.21050669787996412,0.05752235729871358,-0.0005640083860659175,-0.8657739109250819,0.4695354710041146,Null
-0.9756859312624467,-1.12475585937,-0.74169921875,0.005586396392894252,0.07454315205613433,0.25634051383420214,0.17565917968,0.53894042968,0.009787121905702342,0.09866642157608362,0.04612699467760638,-0.49047851562,0.18957519531,0.011391932547678101,0.10644875368827103,1.0208875245323406,0.85147134485,1.26740759244,0.004235467900367001,0.06490715535124444,0.00019759376555092344,0.058118035270013024,0.01401936998880832,0.00013021005677953698,-0.05948541285790565,-0.511583848623816,Null
-0.843726116674674,-1.20263671875,-0.53894042968,0.038256310289523414,0.19505997939015846,0.4118015455140217,-0.02770996093,0.82629394531,0.04517838162742658,0.21197369399212918,0.29049019191375,-0.21618652343,0.83630371093,0.10919968685570253,0.329554563459079,1.0680261771005979,0.73628235732,1.32364449103,0.013267591846129221,0.11487160383969837,0.012284822931954799,0.46951650441997117,0.11053532281552944,0.0008367535503648399,1.6540842847506605,1.4981186849377872,Null
-0.60632462934625,-0.78112792968,-0.28784179687,0.010314238409976115,0.10127010804105378,0.7394908558200567,0.48889160156,0.97082519531,0.01309425341618884,0.11410457593388358,0.2722188776161932,-0.10473632812,0.74426269531,0.06114806370558891,0.24657784070237035,1.0337823752538637,0.89238966573,1.22596015232,0.003972089185517346,0.06284521061276882,0.002794688883547033,0.19350034974002028,0.052714418989835886,0.0005550972195723315,-0.8645711691423927,0.19998704485132135,Null
-0.6882404145706548,-1.09020996093,-0.23266601562,0.04436321282495921,0.20999796685195193,0.5824919201045833,-0.39172363281,1.09704589843,0.07311806113053204,0.26959754185857043,0.2748710995601786,-0.24096679687,0.68176269531,0.07222062188538511,0.26793793540912686,1.0333168379911906,0.76495071808,1.21217842507,0.009410873929628019,0.09672050880192909,0.007739591482368515,0.3955370702799428,0.08771272704374009,0.0003891676251506877,0.23068410094475622,0.6932045454116472,Null
-0.5902758919582887,-1.12817382812,-0.30334472656,0.06591844594398255,0.2560584716143143,0.6773276915484492,-0.01318359375,1.07946777343,0.09178867434976164,0.3021553008368827,0.05263906876754011,-0.40417480468,0.53137207031,0.06952879169172245,0.26297714724182,1.0142918512263102,0.74068183761,1.17900498332,0.0072408100534390426,0.08486512324896701,0.004799067304950141,0.38789881641991997,0.06908982445647364,-0.00037664188472003767,3.917318935455399,1.5714686727949387,Null
-0.9875308177463934,-1.01489257812,-0.947265625,9.631480295934328e-05,0.009787159575722588,0.19769520576879784,0.15979003906,0.21997070312,0.000230872179372468,0.015152906743060067,-0.05696014237213114,-0.09655761718,0.01806640625,0.0002662732070198306,0.016273234533205984,1.0089786713936062,0.96955820179,1.03284981929,9.77603220320062e-05,0.00986033024913442,2.5095482917359536e-05,0.020915194509939283,0.004995833176851073,-5.2956313527157753e-05,-0.5542373108840177,0.4327171667208411,lift up
-0.9735350175293181,-1.03076171875,-0.92980957031,0.0008520715611290099,0.029107219816409416,0.1962959983097159,0.17626953125,0.2216796875,0.00011310283045912585,0.010604725396756302,-0.06106775456784091,-0.09069824218,-0.04772949218,4.968851369360951e-05,0.007028953876152385,0.9950723552067614,0.95222181771,1.05146470231,0.0008769069250952977,0.029528367706064096,0.0077348001836760865,0.27801940469998954,0.08769750541127008,0.0016629790314417457,-0.9853519038218881,0.6260228335956115,lift up
0.24761015139453416,-1.27844238281,0.970703125,0.3548251630045852,0.59381923175707,0.32130043550788817,-0.67102050781,1.02124023437,0.1908721586297774,0.43553027136104844,-0.47157733040242233,-1.11291503906,0.42517089843,0.12581899648535994,0.3536064366426894,1.0137409224116152,0.64275632433,1.48769078093,0.026770966315597822,0.16310943265707264,0.017259227984442745,0.5892953204399873,0.1309657505251901,0.0015475524152629135,-0.08050091040815044,0.7806423662328589,lift up
0.43330001830604165,0.22924804687,0.61669921875,0.008017896382014703,0.08930921847729406,0.8349113464315625,0.583984375,1.03381347656,0.008471230118149022,0.09179928718650449,0.3364219665486458,0.05200195312,0.51928710937,0.016222375055032563,0.12703496966696848,1.0151153747323438,0.85447532419,1.13886334623,0.0016716929172885008,0.04077972760262494,0.0060520506235059125,0.34764952524994897,0.07759207128636589,0.0012059545817723566,0.8965307656236963,-1.1090491165805167,lift up
-0.3726226977128491,-1.70812988281,0.44201660156,0.47919274938518974,0.690301162478632,0.5427014228319553,0.08264160156,0.98156738281,0.09112909348652756,0.3010315471933087,0.19852178989027935,-0.56726074218,0.79907226562,0.13768045979846602,0.3700152634940703,1.0665422422878212,0.48167203629,1.75930494741,0.039538926069494065,0.1982877661742076,0.019520720324881186,0.6382117337800537,0.13932575505408262,-0.0006357473265434534,2.0917647098117946,1.5379530199423594,Null
-1.123055013017111,-1.38049316406,-0.90319824218,0.0166309946406789,0.1286024891905614,0.1831332736515,-0.06909179687,0.45678710937,0.012740173957418685,0.11255840800762422,0.001700846353611111,-0.2626953125,0.17370605468,0.01574447011736249,0.12512793788332283,1.1504636161133888,0.90952627949,1.39870775797,0.016181613188411485,0.12685312505951424,0.0007555055528383521,0.12173178454008848,0.02741000364405353,0.0001196012120733634,0.15084481908907588,0.7413401105586629,Null
-1.011874371798304,-1.09777832031,-0.86462402343,0.0021059751582125598,0.04575652427810144,0.1682871322149708,0.03735351562,0.30932617187,0.002918238039293839,0.05386253168730379,-0.05011664496251462,-0.24291992187,0.04357910156,0.002942477448912326,0.05408576502602926,1.0295359190560234,0.88008277136,1.16220257169,0.002713744306932305,0.05194106715484543,0.0001537014164995038,0.07281038387009175,0.012361333981675451,5.028228200596644e-05,1.9020620824257444,0.13454702594738152,Null
-0.8243660304821196,-1.26794433593,-0.24829101562,0.08921935357642331,0.29788330900748217,0.4842416514484782,0.041015625,0.78283691406,0.04805761294197111,0.21862394713969158,0.287102077314837,-0.15209960937,0.73962402343,0.05888009041475608,0.24199192119443066,1.0839835081926088,0.80311401931,1.39964147238,0.01674252670529346,0.12904082575809062,0.005212602229381275,0.3711906707400203,0.07200189490172454,0.000613569177138125,10.020032155215223,3.1321960001353126,Null
-0.7624361578756148,-1.07604980468,-0.3310546875,0.051592260292266524,0.22653115867844964,0.46172345002898396,0.15344238281,0.95056152343,0.0450695953416609,0.21172761147953398,0.3324157388412834,-0.02001953125,0.74438476562,0.0492148085148359,0.2212501473912253,1.0212645939593048,0.70756373718,1.17269246517,0.0073953704313145865,0.08576609467530284,0.1433981747407284,1.4886302060800745,0.3776656452229764,-0.002457903385456666,0.6631098243022331,1.1095457170987044,Null
-0.975742073942151,-1.115234375,-0.85852050781,0.002818187653429406,0.05293205873089448,0.2597507210629651,0.12646484375,0.5576171875,0.013727529567977743,0.11682344948493546,0.07421378202093024,-0.09216308593,0.31787109375,0.012905277417094737,0.1132706790587803,1.0261586903701743,0.96735224329,1.19394376715,0.001336598419780936,0.03645308627175068,0.015894353467127136,0.5740729739000017,0.12570578521031367,0.001950886456664429,2.6316465555742736,1.7159094612064474,Null
-0.1004407159221264,-0.89086914062,0.37268066406,0.19999516757118482,0.44592125992870973,0.7237113864906897,0.42883300781,0.98767089843,0.0334624847843863,0.1824011284324786,0.44119367927994246,0.16381835937,0.89721679687,0.07078774603841617,0.2652940253977813,1.0137304320216667,0.90015501799,1.13510369076,0.003365183941037772,0.057843269301152064,0.08297925369119334,1.2057130868399781,0.2872322430170406,-0.0016855458934785744,0.08531870195669722,0.5072569985497806,Null
0.18499152214554948,0.04931640625,0.27709960937,0.0038427115354103575,0.06181907258900966,0.9468585003830221,0.83227539062,1.11096191406,0.003954179589634265,0.0627092762528221,0.3280975006398901,0.00598144531,0.56030273437,0.01865128553403765,0.136194001127771,1.0314653982907693,0.95895795921,1.12024562268,0.0013523764579007795,0.03667350294179987,0.0032314752949490705,0.1931595467999614,0.05668968103795975,-0.00028557279055126773,-0.4906682641252478,0.8709381195008892,Null
0.16988923587529411,0.08801269531,0.2314453125,0.0008759080907852723,0.029516505387660468,0.8139955245202674,0.44140625,0.96398925781,0.026278917121899722,0.16167370891191127,0.4909302410554546,0.24499511718,0.92504882812,0.04796097012857827,0.21841358554927306,1.0031278946960962,0.94743583958,1.06215387204,0.000917005238665696,0.030201017653978698,0.0010262747629262267,0.13661977483002374,0.031949752152242474,-5.0163264207158444e-05,-0.04003738217399322,0.5266143293609794,lift down
0.41846199922424415,0.13244628906,0.89208984375,0.06621448571170105,0.2565726364433993,0.21693668809104652,-0.70910644531,1.19921875,0.544372364034509,0.7356680014990845,-0.22634958666366278,-0.76037597656,0.24499511718,0.12043826976676704,0.34603185874731685,0.9964948918191278,0.76168167806,1.23086525114,0.007220993385086027,0.08472904381264605,0.011358860912504255,0.35903714302992285,0.10626768569738436,0.0017018003851957126,-1.1022842845594485,0.3304914304746477,lift down
0.4308056351671006,-0.158203125,0.84191894531,0.13248526506097977,0.36290677670901794,-0.08977801983171597,-0.712890625,0.48681640625,0.17350838794314832,0.415309175303669,-0.7171659751715385,-1.00134277343,-0.48913574218,0.02752329000293893,0.16540988573473936,1.0190670997355622,0.93054609161,1.08422918218,0.0010324494595164765,0.0320365461795895,0.017280827263171056,0.4636528243700013,0.13106705858991669,0.0025796983525559728,-1.2195160367220566,-0.34636828618968435,lift down
0.7824937975045405,0.51416015625,0.98315429687,0.014091750880485783,0.1183874117214528,0.4191755964915676,-0.10998535156,0.90063476562,0.05983650332946073,0.243952992953403,-0.36999181798599995,-0.744140625,-0.103515625,0.028050304176980387,0.1670289822490662,1.0126083908225405,0.94180821902,1.06883563178,0.0009554033212219916,0.03082594652147953,0.021824464715527285,0.5061936077499922,0.14733124120831906,0.002732875206754632,-1.2392650565398002,-0.022000983465534047,lift down
0.7856685450781966,0.59497070312,0.90563964843,0.0018695845805609807,0.04312039275537257,0.5673281143230601,0.37084960937,0.75671386718,0.009925266810155159,0.0993530592357305,-0.3062403944643716,-0.69787597656,0.00207519531,0.022389190929381377,0.14922079487710935,1.0321164636168307,0.95815977394,1.14263848691,0.0016613595026902777,0.04064825993154519,0.011712892870516379,0.35960517027001515,0.1079300143215154,0.0018568570986385563,-1.313901517441143,-0.4423719513142803,lift down
-0.6837461654723729,-1.15502929687,0.73950195312,0.2653562447755061,0.5136701830473671,0.549299854339322,0.28039550781,0.92468261718,0.02095242562164941,0.14434005104492445,0.10733152917327683,-0.20739746093,0.38537597656,0.022947552531999912,0.15105596758338807,1.0320967467715818,0.38978396475,1.43867128793,0.02317545866059544,0.15180422874842062,0.07561871956504901,1.0022858262100272,0.27421067659871795,0.0006885739677789613,-0.9180471765275824,0.4961990933883113,lift down
-1.0434048970496874,-1.21997070312,-0.85192871093,0.006493260175370881,0.0803706483236106,0.25191942850307286,0.04992675781,0.45166015625,0.008987362032994696,0.09455449675049578,-0.05355326334411459,-0.24768066406,0.17712402343,0.011587846158974999,0.1073661622372881,1.083950369559479,0.90798164866,1.26182657849,0.007040884023003866,0.08369117487555496,0.0002296736969737154,0.0687679065199518,0.015115471537533233,3.969322434567759e-05,1.7307227795566424,1.3476175262077406,Null
0.0722663146624293,-1.08947753906,0.96362304687,0.7319196234807284,0.8531028568496404,0.11099915585209039,-0.37048339843,1.11560058593,0.13909236964034502,0.3718958685485857,-0.08564508298005646,-0.54138183593,1.11608886718,0.21458855646203767,0.46192660860385976,1.0252502749744066,0.25367462156,1.87816255408,0.05419067571225188,0.23213038082633247,0.038249761368955554,0.8303204391500003,0.19502220648489826,-0.001151470749792261,1.0430912506098995,0.8878674099828271,Null
-0.2543665151125683,-1.49084472656,0.98718261718,0.8478985481426636,0.9182947363145326,0.30855439399371587,0.04235839843,0.74938964843,0.037969487707079336,0.1943244816478263,-0.1373050877302186,-0.51062011718,0.23303222656,0.06315404102196691,0.2506171122901757,1.0449585016368854,0.70371523561,1.66962582378,0.03082717342165391,0.1750963132738152,0.01167709355293857,0.8512357940999209,0.10776494930426556,0.0005712991131633781,23.785991621797784,4.019513623942105,Null
-1.017250504027742,-1.26062011718,-0.76062011718,0.014859888219680964,0.12150727539165043,0.18942241053096773,-0.07495117187,0.3779296875,0.008312009486377144,0.09087564920661144,-0.008033014111935483,-0.22351074218,0.27075195312,0.017464874644682132,0.13172774208218738,1.0467809212127097,0.7912655565,1.30729978553,0.015468063443461254,0.12396882465265815,0.0006906884837476927,0.12446846580007787,0.026196038422132393,-0.00039080897546240305,-0.6841088898467396,-0.09420255658477504,Null
-1.0313481596284537,-1.47485351562,-0.70422363281,0.045193331581301774,0.21203861974619712,0.1418035448178866,-0.130859375,0.4482421875,0.015623675098344655,0.12467213277481552,0.07179936674309279,-0.16674804687,0.29748535156,0.017404854195429774,0.13158699955601375,1.0610780896087628,0.71292521771,1.51165300172,0.04419869771660484,0.2096923207412695,0.0014521582788180488,0.16715111549990525,0.038008853269539435,-0.00037281808606876065,-0.6665206969438153,0.19572485429896894,stairs up
-1.03010853549538,-1.31213378906,-0.70886230468,0.02791666905243032,0.16659355833241182,0.2420968395884795,0.05200195312,0.56567382812,0.014860926890837027,0.12154843020634802,0.05711462901923976,-0.19921875,0.32751464843,0.015399947556654983,0.1237331377756543,1.0740645516894154,0.74121831556,1.34548207032,0.027379331286613344,0.16498247857925283,0.0029686240491555074,0.24940078770998753,0.054325534278081816,-0.0008462355729750356,1.5988229039082178,1.2696467498919923,stairs up
-1.0634625020415183,-1.36596679687,-0.79675292968,0.02311826061756257,0.15164835180066433,0.16985476828005236,0.04870605468,0.34790039062,0.00550046965305436,0.07397074680317564,0.008616502371884814,-0.21423339843,0.2470703125,0.01435984877490431,0.11951847690037486,1.086053922227487,0.82912555565,1.40181963591,0.023239490716197318,0.15204544712004534,0.0019397631996007953,0.18867226257998482,0.04392729642637518,-0.0005777645480325935,-0.07650441478765124,-0.5032673617581119,stairs up
-1.0072168277750633,-1.34704589843,-0.77770996093,0.0234127912850193,0.1525274042973799,0.19809539408322785,-0.11413574218,0.61218261718,0.01948459489289467,0.13914479750265032,0.0749774401692405,-0.13708496093,0.27490234375,0.01343415427711213,0.11553842643994688,1.0444481043184177,0.79100041315,1.39368364877,0.024608056140043494,0.15637234074248466,0.00110511501239325,0.14153499488008947,0.03313790297500182,-0.0005258440976953305,0.0005348886645277773,0.5462187191610022,stairs up
-0.3468057383660326,-1.31567382812,0.79028320312,0.5675801670391432,0.7513291503850216,0.46620907990456517,-0.11291503906,1.16931152343,0.10118441061509824,0.3172294049107305,-0.1833462922452174,-0.92651367187,0.13415527343,0.07116578664694125,0.2660432597667874,1.032630576794511,0.43272018067,1.33631535813,0.041047167156100385,0.20204970855189122,0.006992962269250083,0.5677299303899872,0.08339638505070766,0.00018770997592548532,6.245407500760722,1.7105855486311956,stairs up
0.6397971668427012,-0.06408691406,0.98767089843,0.03353253831223311,0.18259195648989163,0.5200679384401723,-0.21215820312,1.22314453125,0.09253202883807421,0.30331540608562874,-0.03535128187919538,-0.89697265625,0.51696777343,0.16312634357571437,0.4027267508547388,0.9699514886289081,0.41161519291,1.35810786415,0.026799806845380473,0.16323536677741973,0.009492956238916696,0.33115909993000514,0.09715142314527773,0.0008802629252657249,-1.0858382571848506,0.2236754933441158,stairs up
-1.168830235794948,-2.193359375,-0.06408691406,0.20465505547308913,0.45120853684946327,0.20797475178760416,-0.19152832031,0.70031738281,0.04764013764028826,0.2176970645723358,0.02337137857932292,-1.134765625,0.65112304687,0.16841502086981314,0.40931388848020156,1.3120610104216666,0.41161519291,2.34332746193,0.10753885692368434,0.3270760748060612,0.002510612807543735,0.26284073575993716,0.04997536092086891,0.000657264492288895,1.4824256513716483,-1.134260439058586,stairs up
-0.6979913884909089,-1.66760253906,0.05993652343,0.29892034197180045,0.5450767868251295,0.18784401633339395,-0.1484375,0.67822265625,0.051240603056761834,0.22567687951433332,-0.45373461174115154,-1.21911621093,0.23742675781,0.25276530888074794,0.5012318803885426,1.1233579435733938,0.64820426744,1.75292121226,0.06609209493409944,0.25630360275069036,0.009350857798668344,0.5856552803900286,0.09640635836510925,-0.000968570325760193,8.943373003731732,2.5669213992340465,stairs up
-1.1633618903846061,-1.44812011718,-0.90405273437,0.02625324302633279,0.16153678362074947,0.15392696495824243,-0.20764160156,0.41040039062,0.011491720345993824,0.10687410142788618,0.06148274739442424,-0.16711425781,0.2548828125,0.01270438827581061,0.11237166895276557,1.184391348628424,0.92501352564,1.47046935109,0.025797362738014206,0.1601281208440808,0.0018594004173000571,0.1436196604399811,0.04298989792802345,-0.0008310062352501636,-1.0931967904733058,-0.1880896254512733,stairs up
-1.161564301676524,-1.5791015625,-0.70446777343,0.04961289069040732,0.2221431545524705,0.16739234311994652,-0.1015625,0.55334472656,0.014211948002643218,0.11889469408137585,0.05295240432786096,-0.16760253906,0.25,0.012033788862789973,0.10940492242440233,1.1875943629749732,0.78251825387,1.59521060285,0.04537100174004961,0.21243440413994935,0.0017775576889314734,0.14105374123994352,0.042048210816168274,-0.0007553500070927563,-1.195419170922824,-0.07597699414275523,stairs up
-0.9107793451631319,-1.65502929687,-0.57775878906,0.05978588348357411,0.24383885994295443,0.43362929794450544,-0.19299316406,0.77893066406,0.033687827465692384,0.18303750848551284,0.04201700399126373,-0.51293945312,0.50671386718,0.06221275430525288,0.2487386700633706,1.058416164767802,0.65701510469,1.76695318818,0.05420289762901507,0.23217467456674581,0.003921386308594784,0.32342816339996716,0.062448700786934964,-0.0008599201105466815,2.8211980596747983,1.4563124585639284,stairs up
