avg_accX,min_accX,max_accX,var_accX,std_accX,avg_accY,min_accY,max_accY,var_accY,std_accY,avg_accZ,min_accZ,max_accZ,var_accZ,std_accZ,avg_magnitude,min_magnitude,max_magnitude,var_magnitude,std_magnitude,Label,var_pressure,range_pressure,std_pressure,slope_pressure,kurtosis_pressure,skew_pressure
-0.5814793904577603,-1.25170898437,-0.2109375,0.1087476436313055,0.3289091814681663,0.6617247263554688,0.11328125,1.16674804687,0.11727219918456608,0.3415573253210649,-0.026759465534375,-0.47253417968,0.36804199218,0.054006749440521765,0.23178754126826082,1.0217020937936978,0.73997812188,1.30544348189,0.011466638026563846,0.106803164529469,Null,0.033148047973378995,0.6306069245899835,0.18159130455554393,-0.0009988882698178396,0.9100955926058192,1.4050198215799652
-0.9362603759728,-1.40466308593,-0.03637695312,0.1435135805269994,0.3778835966595592,0.347723388669,0.03479003906,1.0498046875,0.07280348379845826,0.2691458087718736,0.027414550779200006,-0.54846191406,0.24743652343,0.0389039789537898,0.19674719580980274,1.1030054254157,0.59428378003,1.47421407895,0.03574932040560373,0.188601627255906,Null,0.01043839160178766,0.5014094023299549,0.10191270599772495,0.00019046319923808603,1.654907870370872,0.9030801259720171
-1.14783203124565,-1.53295898437,-0.84350585937,0.027017332476986,0.16395806114552913,0.17942749023085,-0.15966796875,0.48315429687,0.01983134445669122,0.14047130573326272,0.1389788818324,-0.1572265625,0.37316894531,0.014560918708309068,0.12036658221768833,1.18449466944895,0.85195739584,1.53563265894,0.027238845739683968,0.16462882952565006,Null,0.0002467967293392924,0.0845847723900306,0.01567044178358083,4.807083536887913e-05,5.228620414354326,1.9280501826383993
-1.12111206054305,-1.44348144531,-0.85925292968,0.02188355056347581,0.14756060724549228,0.21461914062155,-0.0224609375,0.45983886718,0.020104066726471755,0.14143389407366042,0.056802978514099996,-0.29968261718,0.35827636718,0.01837671808034556,0.1352214276287003,1.1584647941116,0.86420924163,1.4987485851,0.02432365897680941,0.15557005072289898,Null,0.00025228589670017726,0.06245229845001177,0.015843751677449263,-2.2808649478203968e-05,0.6805511589777673,1.2571441734137099
-1.0613732910118001,-1.37268066406,-0.85034179687,0.012597427402410134,0.11195731447921606,0.1362164306613,-0.107421875,0.42492675781,0.01429858836337315,0.11927738855942598,0.1004516601547,-0.12817382812,0.51818847656,0.01908764512630691,0.1378122160792554,1.0892903905509501,0.86996431217,1.42198136214,0.014431057812760441,0.11982863816173761,Null,0.008901949892977648,0.41238384861003397,0.09411397422015903,-0.0004894616495965971,0.4915265882784752,0.9778104286405214
-1.1841711425746,-1.40881347656,-0.93115234375,0.014545851123483135,0.12030428865117701,0.20489990234010003,-0.107421875,0.51684570312,0.0308909375521793,0.17531823312028444,0.11120910644205001,-0.06811523437,0.27429199218,0.007049818499571482,0.08375302625621132,1.2213768140126,0.9360119852,1.45345482108,0.017161389518645962,0.1306735725808885,Null,0.00016768893992080832,0.05290616832996875,0.012917062174550539,-3.358273639655697e-05,-0.5001637623495085,-0.07189669441840167
0.22927734374784997,-1.53466796875,0.99084472656,0.4975648193231413,0.7036170799707221,-0.08416809081975,-0.84594726562,0.93103027343,0.24149903295321554,0.4901954077594459,-0.3924218749977,-1.0888671875,0.19641113281,0.1459387693799907,0.381063086027879,1.0179222620960002,0.4185621025,1.56319435427,0.0583509273595018,0.24095471093693996,Null,0.003967984336720347,0.30694985896002436,0.06283426147442767,0.00024834655793658954,3.528172373768519,1.7759073642660557
0.04346435546804997,-1.28503417968,1.07470703125,0.47311353348173996,0.6861107533148939,0.28578430175475006,-0.30383300781,1.10290527343,0.07384636255268716,0.2710666536848893,-0.6109088134721001,-1.08251953125,-0.02185058593,0.10401194727285461,0.32170155041045473,1.0262703035326002,0.39822017128,1.46936401255,0.051515219983221665,0.22640151033795147,Null,0.015588676105193643,0.45029850510002234,0.12454209218038564,-0.0012540167738899278,-1.267756362603252,0.3755382756833476
-0.3457110595693,-1.48693847656,1.1005859375,0.9212145832373242,0.9573967361136853,0.279553222653,-0.00854492187,0.86340332031,0.03623966326046702,0.18989066576365646,-0.021538696288850002,-0.3466796875,0.39807128906,0.049453189278384005,0.22182408194781758,1.0755836626908999,0.61481587541,1.63520256137,0.043339436774295144,0.20766015407493,Null,0.0006714679412115556,0.09512202901009914,0.02584783552844411,0.00038785213511140237,-1.2439908814820755,-0.2608848787332283
-0.9898868482902041,-1.16479492187,-0.263671875,0.01324452661593663,0.11479090774338009,0.192873584977551,0.0224609375,0.80969238281,0.020796120618985822,0.14384025153887386,-0.004568917413163268,-0.61181640625,0.22277832031,0.021727164433155356,0.14702486712591975,1.0308959692559694,0.66674480626,1.4235383826,0.009884279793844155,0.09916576926992485,Null,6.759507716851799e-05,0.03421240707996276,0.008200622191384106,0.00010411446043343376,3.9919696779542573,2.154547468568818
-0.4770753211565464,-1.69226074218,0.81213378906,0.5787562321121025,0.7587970430656229,0.3101605287501031,-0.05480957031,0.90393066406,0.07343435462921119,0.270288414527944,-0.35865201654871137,-1.12976074218,0.22277832031,0.1302080951070011,0.3599123773351326,1.0516327175405153,0.4529269542,1.82197425369,0.12516653089025712,0.3528758175147442,Null,0.010759365114394778,0.4492839289799804,0.10345967557205667,-0.0008194962038441134,-0.43292387254852693,0.31950216626336286
-1.0571621400490574,-1.27282714843,-0.8798828125,0.007955047789486707,0.08895728370752046,0.1299499192144503,-0.58093261718,0.40270996093,0.04046318509562423,0.20062735595874737,0.1280594271489005,-0.17785644531,0.41796875,0.013814820838708898,0.1172283751222126,1.097736189654712,0.92310481557,1.30906151339,0.0078013174712627175,0.08809354617207969,Null,0.0005305837558740443,0.10284680975996707,0.02297402512514122,0.0003085409727606771,-0.04252028910236616,-0.2958871557824228
-0.9790318265832979,-1.22790527343,-0.32958984375,0.02683091045423648,0.16336521308233692,0.05596599173042553,-0.29907226562,0.677734375,0.061771304757716576,0.2478764490380817,0.007432653548191481,-0.56457519531,0.31140136718,0.03410566368225764,0.18418537015073913,1.0373871609282443,0.89751779502,1.2724265667,0.007614311440033338,0.08702763804354004,Null,0.015267449623530856,0.5663484515999926,0.12323246238352871,0.0011866749897335518,5.438586654810189,2.5004589335407315
-0.01943173615717392,-0.69750976562,0.859375,0.27143565941337044,0.5195771988956125,0.4880026112415218,-0.916015625,1.32995605468,0.4395445138419799,0.6611774988325025,-0.14331253715076087,-0.64733886718,0.16296386718,0.055922619545426065,0.23583615555145035,1.001665150799511,0.63438749348,1.42827725819,0.018565291088983818,0.1358837472542174,lift down,0.0072405590842014285,0.3526620555800264,0.08485993294608107,-0.0009731832512094197,-0.6316175045515111,-0.322472456851171
-0.19715097332292816,-0.58349609375,0.98889160156,0.20118061290004544,0.4472908648755865,0.7297127233654143,-0.66809082031,1.02490234375,0.1331525527946681,0.3638913345103372,-0.1510805583120442,-0.65478515625,0.28186035156,0.04859921990671744,0.21984247981073235,0.9830854919680112,0.7918343816,1.22221923671,0.008581564526651297,0.0923804772013033,lift down,0.016968338987909098,0.45986961395999515,0.1299022373121192,-0.00040004379074091306,-0.21739870719654597,0.9546200606232872
-0.4265723201775419,-0.59155273437,-0.35974121093,0.001509004653953218,0.038737249003455494,0.9233759874699999,0.83361816406,1.00646972656,0.001566759932873977,0.03947159844859303,-0.008231903588044704,-0.27648925781,0.18981933593,0.02237942580411035,0.14917909062247203,1.028928307021173,0.95643825454,1.10370450049,0.0015390043971944543,0.03912041164489445,lift down,0.007077601957150675,0.28989786439001364,0.08389315992029625,0.0011765373003152066,-0.9581499349332239,0.7324495107534286
-0.4743624757198305,-0.57604980468,-0.40551757812,0.002082590006162188,0.04550630682586352,0.9061120674394915,0.79748535156,0.97937011718,0.002041119236360381,0.04505094326717588,-0.046673618465480224,-0.24462890625,0.30249023437,0.020649888660319003,0.14329418209644829,1.034918215508644,0.93835462716,1.10757123017,0.0018254986248592447,0.04260498883119637,Null,0.006700158952941255,0.2804529582899704,0.081622943756994,-0.00015811405293684726,-1.1120805730998478,-0.1149140480270336
-0.4394182477639999,-0.66296386718,-0.27404785156,0.004873802753860499,0.06961287562232914,0.9354157366030283,0.78674316406,1.26086425781,0.004734105765312565,0.06860797134712497,-0.05215332030988571,-0.1865234375,0.20629882812,0.008347423590043496,0.09110282117844551,1.0415518519590854,0.98320727493,1.35643279452,0.0038554667042256436,0.06191474352620531,Null,0.0054655222010038945,0.4076610172299979,0.0737176413456751,0.0006343105346358982,9.846575076877809,3.117233040995503
-0.5026188340275001,-1.47534179687,0.88098144531,0.4140425141961685,0.6415881001674075,0.5312407737519185,-0.00476074218,1.41052246093,0.11180808896267071,0.3334037221355184,0.024128048918372075,-0.73803710937,0.81774902343,0.13432753284199841,0.36544022604777276,1.0643419471720932,0.27060939933,1.54547866259,0.058858552177229614,0.24190153222432942,Null,0.018878987442766625,0.5837922736800465,0.13700082440579262,-0.0002053081086258124,0.029980803579107373,-0.5338376672044394
-1.0238572505451462,-1.32666015625,-0.85424804687,0.007913828255870024,0.08869920269352637,0.19381696020350878,0.05615234375,0.4814453125,0.009846238896040057,0.09893764981855376,0.08378520764467837,-0.02795410156,0.18298339843,0.0020172331077882286,0.044782099358419564,1.0505627669528654,0.86718700168,1.36573788767,0.008900208803933631,0.09406466286141818,Null,0.004756925706153644,0.34043365886998345,0.06876850607051377,-0.00010557243513674587,8.334261894211656,2.9265381933562438
-0.4537953032529585,-1.27087402343,0.91528320312,0.5520587529970461,0.7408050574589964,0.2083357410286982,-0.28955078125,0.71264648437,0.04004659826335129,0.19952352278227697,-0.310933310605858,-1.15234375,0.09558105468,0.1759518024220506,0.418223226873492,1.0437258947126629,0.71909191457,1.41678113568,0.020282188339503415,0.14199357517419214,Null,0.01160354647345865,0.4529926702900866,0.10740058861642315,5.524141838872759e-05,0.025721725102330506,0.5854258406764111
-0.47963326276802404,-1.13647460937,0.04846191406,0.17592387888324515,0.4181751337451172,0.6155165255386825,0.16296386718,1.02954101562,0.03449098997522777,0.18516062513699993,-0.43547670284257484,-0.93981933593,0.23767089843,0.16131992842713638,0.4004421816339586,1.0755048477140718,0.74225731571,1.35561693244,0.011415135749013124,0.10652127319334673,Null,0.04535611997064196,0.935246978130067,0.21233117161143256,0.0025081581823256692,6.0970333469947064,2.639557577946176
-0.3471169211615758,-0.53283691406,-0.22253417968,0.004802017326878206,0.06908628077674896,0.8082815459252121,0.607421875,1.09436035156,0.01733558049861803,0.13126506151441814,0.41157818418303027,-0.17199707031,0.73266601562,0.08500227601032953,0.2906666659615031,1.0215487771194542,0.77039823732,1.24795002927,0.006171858572653083,0.07832275128710979,Null,0.01267625073440079,0.4981209321200595,0.11224716019737034,0.0005139570532774065,-0.7007593004953687,-0.25845116148862174
-0.34202166301073167,-0.36120605468,-0.31591796875,8.308209871455208e-05,0.009087106280420542,0.6729036656781707,0.65490722656,0.69311523437,5.8568888081217674e-05,0.007629663211103671,0.684975228654878,0.66967773437,0.69738769531,4.088362229883605e-05,0.006374506405908233,1.019372289180305,1.0101795713,1.03290831284,3.097162153339852e-05,0.005548222254252719,lift down,6.357270732031118e-05,0.03448809750000237,0.007948903626352567,-1.7007306548056238e-05,-0.1635788637651978,-0.5380194490052219
-0.2914225260388271,-0.626953125,0.05114746093,0.018521226340950936,0.13567202284660881,0.7596699279003086,-0.04675292968,1.43225097656,0.06582093252126756,0.2557628402811228,-0.17924066237382713,-0.81298828125,0.69250488281,0.26836584779511363,0.5164390268828802,1.0093892994891975,0.5509061604,1.44447820657,0.025977094336044136,0.1606758908544497,lift down,0.007323877700592137,0.4581414294500519,0.08531511342654093,-0.00038016128068194753,2.511926151273226,1.1564201884329122
-0.22208099364806247,-0.33825683593,-0.103515625,0.003909269291556209,0.06232845544760421,0.7498977661093751,0.52795410156,0.90173339843,0.004625103737448956,0.06779525675952486,-0.620077514645625,-0.75891113281,-0.52905273437,0.002892159918902965,0.053610483297670625,1.0029652619450624,0.91468094827,1.11628930458,0.0015884799740089068,0.039730995131903646,lift down,0.0014752213602274259,0.16774939578999692,0.03828839545771022,0.0006147574443252181,3.9508045615400196,2.0995906087003675
-0.22636365590308177,-0.34826660156,-0.15490722656,0.0020066400783994623,0.04465444771294225,0.7558163816793709,0.67016601562,0.82873535156,0.001030203877105559,0.03199569670187271,-0.6614345334572326,-0.70068359375,-0.60949707031,0.0004232338733777619,0.020507852767111538,1.030913448452453,0.96779025127,1.11512771203,0.0006544437112927533,0.025501523740916385,lift down,0.016603983334850424,0.43257782399007283,0.12845059659926344,0.0027952460360659596,-1.1449566397285726,-0.030750870819282104
-0.20035625870484078,-0.25939941406,-0.08703613281,0.0015182495189956593,0.03884043176760238,0.8025874241112738,0.71533203125,0.87744140625,0.001884004767720725,0.0432666700515891,-0.6509683208066241,-0.70458984375,-0.6103515625,0.0005545192770009177,0.023473118818847113,1.0540436735965606,0.98002311944,1.10249887398,0.0009786975141023511,0.031184351395761156,lift down,0.01053485092577953,0.3277694813600647,0.1023120225802854,0.0022291398761688378,-1.2319930585467744,-0.32071201951915235
-0.1932916456624516,-0.24523925781,-0.1640625,0.0003893170538652011,0.01966736715824054,0.7863068611354839,0.72814941406,0.83117675781,0.000724502188162289,0.026829610144329826,-0.6370479460649031,-0.68835449218,-0.60302734375,0.0005862682620653775,0.024134744377786246,1.0310353971840645,1.00666872073,1.05601921071,0.00012616868162782514,0.011196190876072633,Null,0.0001054589556475974,0.03540056750000531,0.010236140644236022,0.00019945330486469454,-0.22134935926845634,-1.0268760132555717
-0.33220687373612906,-1.1982421875,-0.01147460937,0.11092452880738522,0.33197723820474084,0.7195533014071613,0.05395507812,0.89245605468,0.0351738726300279,0.1869410185580243,-0.4058152721739355,-0.66882324218,0.67895507812,0.157516996789185,0.3956017670590243,1.0416075546249677,0.68414408737,1.32658459585,0.009576470693769858,0.09754325713176984,Null,0.0019808255222649425,0.26989416664002874,0.04436266451382806,0.0003286944382026531,8.14003887325625,2.5677812433856624
-1.0807714524570589,-1.30676269531,-0.8427734375,0.017439117685345347,0.13162498442166373,0.16184608608705883,-0.06616210937,0.38061523437,0.010196318578836972,0.10064629140582644,0.09971070133568628,-0.06506347656,0.26843261718,0.007047162202856612,0.08367259001117278,1.1046669093984314,0.85702934056,1.33474282615,0.018491102966299085,0.1355368809002421,Null,0.0004682314434601895,0.11931888436004101,0.021567825741794736,0.00024324000742293936,1.5942995212449178,0.66764052639122
-0.9824776598170429,-1.16809082031,-0.89172363281,0.0017842089933765603,0.042126196978920304,0.2332507717958602,-0.12414550781,0.4765625,0.0113508236425101,0.10625345975048633,0.10128029443505376,0.0185546875,0.30297851562,0.004227220038634858,0.06484206234520792,1.0226411283733332,0.94822765146,1.19515548248,0.0014075699926455896,0.0374166060999654,Null,0.0021723391829008847,0.2028548743300007,0.04648289943605135,-0.00039335331443690635,1.292466028683359,1.3886460544462504
-1.0042090119575142,-1.12133789062,-0.92761230468,0.0022142981754852843,0.04692321404488137,0.19482352908299433,-0.00146484375,0.36999511718,0.004232841204720602,0.06487624255173681,0.0900306486100565,-0.18017578125,0.22375488281,0.004816159951157254,0.0692022399054422,1.0311478438863275,0.94037075788,1.14560139721,0.0024450677337260547,0.04930774575791924,Null,4.480134087533835e-05,0.029224552650020996,0.006674445741418436,3.557056639999228e-06,-0.18265549728265107,-0.5235174468017104
-1.2103806328492266,-1.69860839843,-0.435546875,0.05893072900973276,0.24213005258611062,0.2712049975806186,-0.06896972656,0.72399902343,0.04253314580842514,0.2057034340714663,0.07560179405510309,-0.18017578125,0.35546875,0.0152909626675378,0.12333751769978309,1.2626416210207732,0.44740076813,1.74945791397,0.06646532872097634,0.257143391775396,Null,0.0004404061692909844,0.07897528185003466,0.02093169927162465,-0.00011501080793714057,-0.3075106980158089,0.5874372235249502
-1.154173351466488,-1.43603515625,-0.88427734375,0.019245812812188852,0.13831577785123608,0.18495977492255952,-0.1943359375,0.62133789062,0.034178243595086484,0.18432254791241698,0.14035978771101187,-0.16882324218,0.41223144531,0.015449212517376538,0.12392438387605088,1.196664721796607,0.97587466621,1.5070628195,0.02261860070624445,0.14994654440243393,stairs down,0.00021558671404465343,0.06223322040000312,0.014639107206192175,1.7369403442831347e-05,0.7020019489807399,1.0970578888344935
-1.153047195584899,-1.67175292968,-0.6484375,0.05961522458781855,0.24354493957984588,0.22132457386070709,-0.08703613281,0.57641601562,0.027017469663314107,0.16395431618694176,0.07681613497979797,-0.0947265625,0.27197265625,0.005415475135521164,0.07340384357101698,1.188242741726111,0.6674321568,1.70373631364,0.06439079323813254,0.2531118077286742,stairs down,0.0009158297679300715,0.1004324048400349,0.030186161814012357,0.0004780747206985874,-1.2485211541466483,-0.06749507849124414
-1.0991104209325684,-1.64526367187,-0.67248535156,0.07642198956602042,0.27568892445228854,0.23495199901464486,0.0009765625,0.5869140625,0.026256510544838785,0.16159527327598483,0.017346658341202185,-0.18579101562,0.19812011718,0.010735794330296674,0.10333019301011766,1.1407744128345902,0.68858456677,1.67322741382,0.07538730148583778,0.2738162687254029,stairs down,0.001769024560139684,0.14537003989994446,0.04194469882195608,0.0007066572858668264,-1.2425116040106374,0.19116136860619878
-1.156911542335269,-1.798828125,-0.55920410156,0.06957065924539209,0.2630525108091491,0.2222716628837634,-0.08459472656,0.65649414062,0.04337626806582026,0.20770908098475355,0.045529601393118284,-0.109375,0.24243164062,0.007297359278753283,0.08519463694594505,1.1984961543415054,0.56293981629,1.82073842742,0.07352201311102875,0.2704195508291641,stairs down,0.0018743596703433122,0.1431661410400693,0.0431773374331325,0.0007364765148405619,-1.1124630917104978,-0.3845200323173307
-1.165060885122905,-1.64526367187,-0.67724609375,0.05364717093396822,0.23097070391808422,0.25917777801793296,-0.11267089843,0.65979003906,0.041140769380888925,0.20226451166835233,0.08894765842972067,-0.09826660156,0.3369140625,0.00968615009284327,0.0981429443337227,1.2185347059690503,0.71970517503,1.70971924594,0.051804690899305415,0.22696977600179216,stairs down,0.000831039047435313,0.1080568140100695,0.02874711065816281,0.00047106879462030445,-0.7710926392664441,-0.5811221600751351
-0.6677173116917935,-1.701171875,0.85913085937,0.6832051726867727,0.8243131086523395,0.23629097316288047,-0.876953125,1.00268554687,0.1520750754637619,0.3889069046551055,-0.05791506559945652,-0.66320800781,0.2861328125,0.042261768993800845,0.20501728089763704,1.14130980685,0.62630758593,1.86798030988,0.0756297100244634,0.2742602395385116,stairs down,0.0021594381444073442,0.1716274470800272,0.046343306609860774,-0.0004551991567909731,-0.6427313049094967,0.08089951100062602
-1.129703185714715,-1.66040039062,-0.70922851562,0.054061708668733256,0.23190859446899414,0.17494130504989636,-0.13549804687,0.61120605468,0.036330425820573435,0.19011098146156707,0.07756524752922281,-0.13098144531,0.29077148437,0.011261155272611248,0.10584331494161961,1.165740239766425,0.71188414083,1.67010920405,0.05531299364078235,0.2345770615785128,stairs down,0.0007695542127228115,0.13723455598005785,0.02766887936284645,0.0003735645230988242,2.46557122878486,1.1035313809915481
-1.188405890210351,-1.75524902343,-0.69494628906,0.08558787718273257,0.2916973830549036,0.21423125685087718,-0.35473632812,0.59716796875,0.05879588959276018,0.24176859593650002,0.062001010825672526,-0.1904296875,0.27478027343,0.008493370841364409,0.09188961859772188,1.236808027169357,0.69710372199,1.76617025716,0.0848328383086603,0.29040788529070455,stairs down,0.0019322264827576394,0.19190879736004263,0.04382838021970505,0.0007995401448868012,-0.15273203809795444,0.26688084218172275
-0.8991536891171809,-1.78601074218,0.11560058593,0.29835823701449465,0.5447671292538504,0.3818015240578722,-0.01171875,1.10766601562,0.08163347394515635,0.2849548268393871,-0.09969638256308509,-0.69018554687,0.19384765625,0.06117464565951933,0.24667640464409826,1.1504758222012765,0.72450754318,1.8135597896,0.07983891378916068,0.28180532059528984,stairs down,0.0027918030682148316,0.23650810620006268,0.05269680305193608,0.0008265142470110987,-0.13153171636787686,0.46276670403014847
0.04376883370468571,-0.13708496093,0.25695800781,0.006741720474735899,0.08187305025304363,0.9762723214251998,0.50695800781,1.46240234375,0.05207487539219713,0.2275462693073,-0.26329031807760006,-0.74133300781,0.31652832031,0.053281664610567235,0.23016776046103787,1.0409113292232,0.55780107769,1.56002559238,0.05259294460266512,0.22867534517444135,stairs down,0.005611146882978057,0.37571531869002683,0.07469326064983305,0.0005591631391728908,0.7901826452614684,0.7723724684655314
0.08664032907025256,-0.24633789062,0.29638671875,0.01359164505731054,0.11628843616329149,0.9261061543122727,0.48840332031,1.45166015625,0.03824302995328765,0.19506379299439952,-0.3498270054018687,-0.73889160156,-0.0537109375,0.0277502227902255,0.16616278208392765,1.0143077518922727,0.52479635898,1.46635007593,0.038295720023813595,0.19519812318877608,Null,0.0039001778310419504,0.2497191169600228,0.06229349856291911,0.0004437426539316715,-0.5790517148710377,-0.09559027220410941
-0.27046638257533323,-1.15588378906,0.27294921875,0.17072712275393073,0.41193738956188286,0.8445697206392727,0.29187011718,1.35119628906,0.04669098388975386,0.21542518012018919,-0.15172747987551516,-0.50903320312,0.27697753906,0.040126953873758,0.1997091891073544,1.0200643057458183,0.6711025233,1.36055810459,0.025076276211943423,0.15787431323795484,Null,0.016215429371982924,0.43738998558001185,0.1269533538054657,0.0017426188990507278,0.9548031254830756,1.5899668500199062
-0.4002697877171716,-0.61633300781,-0.29797363281,0.0044617170291488244,0.06662719493389455,0.8421797318852525,0.71020507812,1.05358886718,0.006053244804292984,0.07760588161239429,0.3369633838364647,-0.15246582031,0.75268554687,0.05674610189870708,0.23761209023210747,1.0233776187459596,0.90812965834,1.17463334023,0.0026599708406091463,0.0514445006239195,Null,0.002644365188636288,0.26654492390002815,0.051293370028646985,0.000288025946680974,0.4535484820009952,0.22606788278682885
-0.6735986594933879,-1.63671875,0.88061523437,0.6376909475487533,0.796370703606146,0.12109908640639344,-0.55041503906,0.82507324218,0.09472224391653292,0.30692773746645746,0.0449112021835519,-0.51708984375,0.2607421875,0.041236364464016975,0.20251179999959754,1.0835332475219124,0.19301806294,1.75895779492,0.06615633314023522,0.25650501578541396,stairs up,0.003954310943262185,0.23623713226004384,0.06271126443264899,0.0009576448896963599,-0.31468819656598646,-0.9079299847070493
-1.2909298270047427,-1.72277832031,-0.92077636718,0.0333516933922706,0.18210192829064692,0.14616071428377142,-0.29675292968,0.54089355468,0.0473817847004197,0.21705075822256123,0.08965332031200002,-0.18786621093,0.54113769531,0.032082576956204256,0.17860360563276975,1.328124086686686,0.94047421897,1.80618607447,0.038393083127668495,0.19538089487261717,stairs up,0.0026913483770940405,0.19074006739003835,0.05172977134601164,-0.0009548443678399178,-0.7542290772220124,-0.3110434589474221
-0.6129528066715468,-1.92651367187,1.23107910156,0.9502357190343759,0.9721037999795795,0.28902945333812147,-0.33361816406,0.88781738281,0.09085048501000448,0.3005803530318203,0.033791220648287296,-0.49975585937,0.78356933593,0.106484287394329,0.3254166197572734,1.1996982044019338,0.3586591557,2.14815929345,0.1632474757864713,0.40292127770911396,stairs up,0.004511146473191515,0.2422357397400674,0.06697927300302431,-0.000977385382769268,0.21974431714287457,1.124064569328441
-1.1823364910551335,-1.42663574218,-0.9052734375,0.021306919573203232,0.1455780849812995,0.12779978379620321,-0.27575683593,0.43237304687,0.02611088169677119,0.1611559844168562,0.0922897257248663,-0.15588378906,0.34301757812,0.011581748141818605,0.10733039485521702,1.2078255863625669,0.91813201264,1.46074745655,0.022732718360540312,0.1503700536068066,stairs up,0.001963450998005186,0.16579194475002623,0.044192208137271656,-0.0007629159366938658,-0.8491684128691044,-0.1595859054872946
-0.3615579044111177,-1.38024902343,0.38232421875,0.4023728347396495,0.6324602246084486,0.5838623046843529,0.08911132812,1.0859375,0.08655041262272707,0.29332796073418527,0.1837725471044706,-0.77282714843,0.96899414062,0.2139033618989701,0.4611345864592854,1.0789286127530588,0.69870250973,1.39982745818,0.04023371069958666,0.19999260439605884,stairs up,0.0035904170906952233,0.20002988462010762,0.059743593716495846,-0.0010341028949410387,-1.2472451114125813,-0.2308295640844067
-0.6022223395266486,-1.8427734375,0.93908691406,0.6636480308859996,0.8124412250941982,0.41879486908443236,-0.04248046875,0.92895507812,0.08859018811426825,0.29683551376573775,0.10780920080037838,-0.51892089843,0.5810546875,0.07735315179432556,0.27737163995169256,1.128004155561135,0.40515381299,2.09829631466,0.10295393829915729,0.3199959851694506,stairs up,0.0001687399064155189,0.04855473727002391,0.01295483688871739,-4.267651109983386e-05,-0.5454690108035432,0.1952749572869572
-0.8116091008742106,-1.62023925781,1.03625488281,0.6670201566061611,0.8143214684238342,0.23197000068280704,-0.37072753906,0.869140625,0.07221676144348958,0.2679448473121474,-0.04047380413953216,-0.45825195312,0.59606933593,0.07365046442312015,0.2705915001488582,1.2059621966174854,0.580147967,1.77279105987,0.06834606265709668,0.26066526059326467,stairs up,0.0006639623977770295,0.13339998313995238,0.02569201387080035,0.00029612858232888194,1.250192659699091,0.6529913149837571
-1.1854204000844846,-1.49816894531,-0.87609863281,0.02141944135630862,0.14597613457268024,0.1284632731941237,-0.39514160156,0.4853515625,0.041354185193492224,0.20283249071692874,0.09663689996567011,-0.12951660156,0.29125976562,0.013272267252427106,0.11490802192929463,1.2187768071802578,0.88319317028,1.49896591026,0.021410389702326595,0.1459452872442596,stairs up,0.0006013160989120003,0.10409752867997213,0.024458465434115756,-0.0002692364601771633,-0.22094204906983883,-0.4190945413471123
-1.085104995629441,-1.41528320312,-0.77600097656,0.02627761622658838,0.16159950872131332,0.15663895695602487,-0.12097167968,0.57531738281,0.026955222748383266,0.163669786474488,0.10497212854037269,-0.14660644531,0.39965820312,0.017766451113161226,0.13287626005095554,1.1207893894761491,0.78169640185,1.41568367059,0.028265298227446133,0.16759993248474347,stairs up,0.0012031293904304495,0.16916933645006793,0.034578266831548084,-0.0005711433126062911,1.4164862185379326,0.553162390550647
-1.1081510844950526,-1.43041992187,-0.91589355468,0.014408427009232184,0.11971880880992679,0.16813001130500005,-0.17736816406,0.50256347656,0.024992836957187802,0.1576746514505255,0.10107036389573683,-0.10778808593,0.23266601562,0.008331533604674422,0.09103671472437763,1.1395636747842635,0.92342219396,1.44530051973,0.015439207646621064,0.12392719095907592,stairs up,0.001468001999611671,0.13187011185993924,0.038213553528792965,-0.0006570388519517686,-1.1216201111870692,0.09071598495687895
-1.097661336259583,-1.43041992187,-0.86535644531,0.021566477249094093,0.14641757189868512,0.11975896925845239,-0.20825195312,0.34899902343,0.020433874568317974,0.14252103129908295,0.023965744744166666,-0.22265625,0.25524902343,0.016590621923257547,0.12842066898024396,1.1208003593631548,0.89554550108,1.44530051973,0.02195644226127195,0.14773540250249398,stairs up,0.0011473725055158501,0.13276800262997313,0.033771924838077144,-0.0006230537501107249,-0.5814298991267051,-0.09893631357021461
-1.0569411057657436,-1.52819824218,0.02575683593,0.04372419005688164,0.20856644850312173,0.1843418219125128,-0.11853027343,0.77612304687,0.03504096415467878,0.18671172138514364,0.07378054887815384,-0.15075683593,0.43518066406,0.027769169638924306,0.16621300683392976,1.106153952665128,0.56960769108,1.65070926818,0.03916223672691555,0.19738643505494646,stairs up,0.0007879012362277648,0.1313640379599974,0.02799751269430237,-0.00034960090345200856,0.02155962363139219,0.3704689492935717
-0.03271053538711763,-1.52478027343,1.13012695312,1.0232273738508462,1.0085674936754518,0.2569888844177647,-0.03662109375,1.02905273437,0.06083276992363914,0.24591651042693108,-0.13091681985111764,-0.41625976562,0.24499511718,0.03642136161339945,0.19028168148771235,1.0585674130784706,0.43220450391,1.72299702186,0.0780369903535372,0.27852818391288614,stairs up,0.00020560410004781415,0.05098387806992832,0.014296666190590725,0.00021460982415068828,-0.9960848846514829,-0.41583469777582727
-1.2118919859503723,-1.49658203125,-0.85229492187,0.022185560204338046,0.14855151263241584,0.20292825901505318,-0.30212402343,0.58874511718,0.052384524313280806,0.22826713128812048,0.07704974235255319,-0.29455566406,0.30419921875,0.0191703151173115,0.13808817963913206,1.259314773666383,0.85841577922,1.53474162474,0.02329069470134111,0.15220646513009164,stairs up,0.00011500657542690291,0.06674411138999403,0.010695552268282752,2.2059519195058674e-05,6.226862785878522,1.7683498725880726
-1.2309990554525136,-1.45983886718,-0.90649414062,0.018959776165535243,0.13731777318066787,0.11937742806322404,-0.36145019531,0.46215820312,0.03619562419650049,0.18973095135044454,0.11140883815601095,-0.18713378906,0.41650390625,0.026261316468065326,0.16161006158804345,1.2659524772321311,0.93714961815,1.51073951449,0.020469571784031745,0.1426804688824383,stairs up,0.0012687587558901361,0.13584991976995298,0.03552218529221495,-0.0005683779805500754,-0.9560402252166451,0.07889248625799293
-1.1877233331815342,-1.43444824218,-1.01208496093,0.009305003275850949,0.09618801348950055,0.14503617720005682,-0.29345703125,0.53063964843,0.0453818996221273,0.21242421688623178,0.1155104203634091,-0.09448242187,0.39147949218,0.012682175974413547,0.11229478240941165,1.2249300844431819,1.02178642081,1.46687577768,0.011663725500647265,0.10769147753202178,stairs up,0.0015804495019381972,0.16275321962007183,0.039641766802485476,-0.0007281482646312157,-0.7722004799658864,-0.04886984651371011
-1.0869577077473185,-1.39770507812,-0.78991699218,0.024303696892103557,0.1554603552328725,0.11750870177027935,-0.22644042968,0.47790527343,0.02072439465426752,0.1435570127621156,0.04216267676150838,-0.22387695312,0.23095703125,0.01370585005190652,0.11674451189329256,1.1090489232044134,0.80034578159,1.41616989347,0.025622492107460326,0.1596225225131221,stairs up,0.002111358698664742,0.15744211763001204,0.04582099299090103,-0.0007521865270346162,-1.2413107442203444,-0.0010983819457536961
-0.704732582049471,-1.32019042968,0.93737792968,0.5759400101187001,0.7568967621002619,0.21148455584248682,-0.6982421875,0.93225097656,0.09460296411874335,0.3067611763816378,0.0010172526046031804,-0.4228515625,0.4833984375,0.05408656390936218,0.23194911427626846,1.1066113878597883,0.63714297619,1.43765897493,0.037781421753976974,0.19385953691158705,Null,0.0008660650678950727,0.1405885267100757,0.029351025757858702,-0.0002553311786123895,0.4254246009511471,-0.4319731942377175
-0.08749736854209583,-0.58129882812,0.90075683593,0.11076002996899262,0.3318083727946048,0.7306229825471857,-0.75817871093,1.16528320312,0.17291968866871937,0.4145892442299753,-0.49250035085766447,-0.93188476562,0.18188476562,0.05275442272457133,0.22899460250782683,1.0528156929657486,0.77387060696,1.35138562318,0.009260107158200082,0.09594090584697335,Null,0.00595976147369673,0.5585867688799908,0.07696800815431991,-5.639801938444926e-06,19.092013247902763,3.646386361528612
-1.1212866066439646,-1.88989257812,0.14135742187,0.14682100475210685,0.38203696340848803,0.2635346361842603,-0.11071777343,0.6474609375,0.0460925970036815,0.21405573980462353,0.15337231878449703,-0.16442871093,0.45788574218,0.016290332352059487,0.1272554118807325,1.2075792494963313,0.53311115911,1.91169749919,0.10057071707072074,0.31618922193886095,stairs down,0.0014916522767272125,0.15979468283001097,0.03850747890857706,0.0003181684329383095,-0.3378030842018185,-0.3919261691299056
-0.9551169370964101,-1.69189453125,0.22338867187,0.30722079358924625,0.5528519714535444,0.06555050580861538,-0.62036132812,0.61608886718,0.10971165409642586,0.33037710306445983,0.008765274437948715,-0.94567871093,0.63061523437,0.12405231445800198,0.3513063460042143,1.1579347632151795,0.48559409208,1.74838408728,0.11584015766001969,0.339479168093501,stairs down,0.0007302225933055453,0.1182916883000189,0.026953253274100784,0.00028779760948113744,-0.28549259741944555,0.28021796505209573
-0.8606964111305,-1.95825195312,1.26684570312,0.6616610743209106,0.8108795795963818,0.29159698485956254,-0.07873535156,0.66589355468,0.03685719121254903,0.19138138302214924,0.06700668334718751,-0.53381347656,0.36682128906,0.0680702932158957,0.2600862431642557,1.2101413620280623,0.55409200698,2.0059705293,0.12847524376673974,0.357312571137929,stairs down,0.0017058995613495327,0.2108080424200125,0.04117326425110229,0.0007098242127524995,0.2096470310626053,0.2646037627151106
-0.19618722844251343,-1.85339355468,1.015625,0.8936685120055338,0.942809384767411,-0.011300316469572217,-0.84216308593,0.57934570312,0.17098020527793856,0.41239043712165957,-0.17465520032529408,-0.84777832031,0.44506835937,0.12441326169395063,0.3517782684221553,1.0677524103211231,0.57006093577,1.87132294431,0.11233041116512434,0.33425994940945974,stairs down,0.0023371684730297,0.1780800427700342,0.04821483429299741,0.0008126836523940883,-1.0038887526045093,0.3443593454480521
-1.200515567551,-1.6826171875,-0.72314453125,0.06327113843359405,0.25079664125808704,0.23489487591658825,-0.04223632812,0.55908203125,0.028199206848855397,0.16743156560669553,0.1930333754562941,-0.033203125,0.45483398437,0.017242934184668168,0.13092557107017894,1.2545912408775293,0.72746057279,1.74936327249,0.06669725913896997,0.25749742196865866,stairs down,0.0008526733143918553,0.15535910891992444,0.029114559742731465,0.00030135018743177863,1.3889926911656865,0.7044860514989796
-0.46673546992987874,-0.69274902343,-0.22778320312,0.015816922344782873,0.12538366005728158,0.8041888612647877,0.36450195312,1.06384277343,0.022567113980506964,0.1497676319928519,0.06270049124072725,-0.52160644531,0.91491699218,0.15404461250378004,0.39129401834379723,1.026880651016788,0.85753734219,1.18830737474,0.00530376225342962,0.07260591050164215,Null,0.005516557702309174,0.3560968826899398,0.07404811962004759,9.183136544082732e-05,0.10890080159341187,0.45491819931429894
-0.6185682227542486,-0.83984375,-0.45068359375,0.00778663681095484,0.08801301916480479,0.8174814807285492,0.5927734375,1.08935546875,0.007832572943526418,0.08827224741687661,-0.06291997247259067,-0.22961425781,0.24182128906,0.011905834975557148,0.10883081691981868,1.0380861055670465,0.91674820941,1.27372173343,0.004645274598051466,0.0679794514375534,Null,0.002638889948971853,0.2661245862599344,0.05123687094324653,0.0005055768461761367,12.283733186203479,3.446222414662375
-0.8468512641019444,-1.07922363281,-0.44226074218,0.03413283187203668,0.18423681778706216,0.43203870984811116,0.07629394531,0.96325683593,0.08370233703654804,0.2885087937186866,0.17155219183594445,-0.04162597656,0.29357910156,0.006419696391950376,0.07990013399234758,1.0266292428743333,0.85339778898,1.11405060268,0.002857498002315576,0.05330687585493848,Null,0.007950775541600234,0.4360704576899934,0.08891908999966835,-0.0008705584711559366,0.015180318300316298,0.2096210242309059
-0.36547783366687153,-1.14013671875,0.2958984375,0.2356886486129454,0.48411977056507327,0.7244913964254189,0.12426757812,1.39514160156,0.1465210504242479,0.3817099645934364,-0.12535120788117315,-0.50695800781,0.17858886718,0.03683718497209746,0.19139328787249674,1.03103305519162,0.66228472657,1.4290329159,0.028007903515710218,0.16688749138562056,Null,0.0021879647995599336,0.20173435950005114,0.046644844651078925,-0.00018443794976115725,0.6516152585333272,0.7630317244669251
0.03481404165140449,-0.70788574218,0.58959960937,0.06024281134210633,0.24475368961827199,0.9916820740397192,0.525390625,1.66857910156,0.05908969242457676,0.24239993370542356,-0.14897310063775282,-0.552734375,0.27502441406,0.03297693044511786,0.18108469507645256,1.0500828865627527,0.71369541674,1.69809380048,0.055932258936058236,0.2358347573244032,Null,0.0019372442241782275,0.28137303857999996,0.04389032729042211,0.00029939271471989746,5.411248469061995,1.5511161321972826
0.37360647822808984,-0.74169921875,1.1015625,0.1442676409842719,0.3787573743429845,0.6128738917623595,0.15649414062,1.08508300781,0.05719771356363283,0.23848768960718753,-0.5284012355120786,-0.8720703125,-0.04956054687,0.04803142168574846,0.21854423405360232,1.0118598913634271,0.70996356108,1.3526586817,0.019271344938707653,0.13843077315360888,Null,0.043003761436356674,0.924053273109962,0.2067901527418167,-0.0029247772850564025,1.4522984554167566,1.055402045765075
0.5456852988570899,-0.58215332031,1.09887695312,0.3299756173574181,0.5729133569922046,0.3809020027246031,-0.52819824218,1.21276855468,0.15511231813403759,0.39279971746182596,-0.15292051607714285,-0.51477050781,0.56811523437,0.029625670523618777,0.171665141901694,0.979597763802328,0.58231588738,1.35121358656,0.01872099293530879,0.13646222943596956,Null,0.051640642241197666,0.8563250171499703,0.2266437983485729,0.002335921850236437,3.0987504074816528,2.091775297649021
-0.36674572172303566,-0.5068359375,-0.2568359375,0.0033826554623902333,0.057987245222095474,0.6764308384450596,0.49951171875,1.02575683593,0.019660040168958663,0.13979633800759556,0.6367136637336904,0.22998046875,0.92199707031,0.03732925624100093,0.19263192437180668,1.0265299082715476,0.86105333646,1.18533853777,0.0037365771580344467,0.060945349513575366,Null,0.04000275751974532,0.8124764752100191,0.1994107466207428,-0.0017901021268592336,0.29395298576333184,0.7213347199421568
-0.28158879407283427,-0.46203613281,-0.1201171875,0.006543174591628136,0.08067331871920376,0.5578156333519785,0.2978515625,0.92272949218,0.02168475906981944,0.14686319413444338,0.7748729685375401,0.32775878906,0.95092773437,0.0240429261815625,0.15464266676373678,1.0202696082175937,0.89513427698,1.12310905616,0.001930232304561469,0.04381677996699568,lift down,0.05376098969607766,0.9838060382500089,0.23124337346736928,-0.0033040445577209505,-0.844741356372027,-0.349162795176135
-0.3090188419082941,-0.47253417968,-0.11999511718,0.010624040729067401,0.10276938440915949,0.7656975241232942,0.56494140625,1.01281738281,0.012030881448653967,0.10936229495479478,0.5326767865305883,0.09448242187,0.77575683593,0.03929057598067003,0.19763465016410867,1.0122575427288236,0.90671387671,1.14497466497,0.0024601535682020224,0.049453837835140395,lift down,0.02861431772014611,0.6980289650500708,0.1686594148102775,0.0011469569949722068,-0.37894218860433604,-0.04664707578074114
-0.15289400540584613,-0.23107910156,-0.08813476562,0.000816400728434962,0.028499369432195013,0.4844726562467179,0.45263671875,0.56494140625,0.0009862167012345772,0.031323460531840736,0.856407126398718,0.73889160156,0.89855957031,0.0015523740862028893,0.03929902280532088,0.9972415291633335,0.94468943499,1.02163592321,0.00037252702448846317,0.019251405909467664,lift down,0.007281320568673617,0.279875674089908,0.0851115765521544,0.0009879123747606427,-1.0628385700855494,-0.4626363632437577
-0.15517520339911242,-0.16723632812,-0.14343261718,4.038538927768648e-05,0.006336120459494658,0.4518457897987574,0.43835449218,0.46923828125,7.767604376358574e-05,0.008787287533867004,0.8926120735456212,0.87768554687,0.9052734375,4.053061997068938e-05,0.006347502959197157,1.0124774360527218,1.00178084649,1.03108529018,4.765243817309969e-05,0.006882620945782067,lift down,0.016125387508412848,0.4407128255600128,0.12660952181522614,0.0025577567178182367,-1.0149609639090202,-0.1584492377525919
-0.15949642783321052,-0.17370605468,-0.14196777343,6.475443835321158e-05,0.008025809960357498,0.43872777034915783,0.42248535156,0.46069335937,0.00011549443503938276,0.010718515269933941,0.896467670637421,0.87915039062,0.90966796875,5.8350301464141846e-05,0.007618608443431817,1.0108293064113683,0.9968287206,1.02300988065,3.710343651264256e-05,0.006075208248927701,lift down,0.01735672537409553,0.41669649045991264,0.13139777086357318,0.0023606749757060144,-1.5237706142829424,-0.09639996458354164
-0.2669257040037288,-0.45300292968,-0.12036132812,0.012679806823883694,0.11228610553935463,0.4684534449998305,0.29577636718,0.78491210937,0.014576306513039344,0.1203908405936323,0.8192393847065537,0.12219238281,0.96643066406,0.04108618667737993,0.20212387619704938,1.013270231003729,0.84956578986,1.1742039807,0.00310831644307928,0.0555945620832773,Null,0.04239442582289997,1.0176389288800465,0.2053166074452505,-0.0002039769302780071,1.5064829109293987,0.242490037055036
-0.28986132275532966,-0.39111328125,-0.22351074218,0.0022496598488585683,0.04730009598783333,0.38862559559159343,0.29357910156,0.51916503906,0.003867074340181266,0.062014729532357704,0.891418457027912,0.79711914062,0.94958496093,0.0016783067122604156,0.040854439744150636,1.0184529983845603,0.98097144686,1.05787068831,0.00018301215803933612,0.013490982052149787,Null,0.003759227642883987,0.24937333990999377,0.06114386760702224,0.0002993806292952348,-0.08204095814822532,-0.8355129975612077
-0.4958124270351149,-1.29541015625,-0.22290039062,0.08069122913070743,0.2832445700001219,0.48533893453356314,0.19873046875,0.99780273437,0.044180543792852044,0.20958681404522747,0.5307027882522414,-0.2783203125,1.00061035156,0.1871602176435339,0.4313752243798906,1.0274853319413795,0.60545246963,1.45798059068,0.01764328775115812,0.13244579852034452,Null,0.05851995206357217,1.038507847939968,0.24121283237006363,-0.002830726425876802,-0.5350420506029661,0.1127580550602775
-1.044372558589896,-1.26953125,-0.83032226562,0.009892055345493525,0.09919946685291416,0.07298723856442708,-0.71606445312,0.3994140625,0.03398800797198977,0.18387764164556727,0.11955134073625001,-0.17175292968,0.29174804687,0.010274578488511156,0.10109928317690237,1.0729054829852605,0.8372220304,1.46495554688,0.013148594424002107,0.11436831799662482,Null,0.0024962854606530075,0.21280663338995964,0.04983255937515926,0.0006820904095146399,2.8487183323971275,-1.9003436841368861
-0.9811345199831902,-1.27001953125,0.08312988281,0.029778273606397104,0.17203367348070503,0.20064689776325154,0.01586914062,1.0703125,0.05907622607673246,0.24230929664770579,0.08630445983122699,-0.08898925781,0.21215820312,0.0017057019797430027,0.04117326256710082,1.0394624474241716,0.43441011712,1.55357939081,0.019977583531424672,0.14090784814647014,Null,4.62873558446224e-05,0.03224274418994355,0.006782579475123987,-3.790085686868195e-05,0.12980587257314236,-0.19281836293508062
-0.48497106673696805,-1.40954589843,0.90270996093,0.7010625630578705,0.8350649716467531,0.22194720328882978,-0.11743164062,0.90490722656,0.058205067402287015,0.2406147667536937,-0.047567164644468085,-0.57495117187,0.29125976562,0.0729289460890327,0.26933441325427987,1.0284630755769681,0.40905748968,1.63288701722,0.05705732939533705,0.23823062977371975,Null,0.0008582173358224754,0.11646020299997417,0.029217329617773635,0.0002918242095588077,-0.5343514724416649,0.04695907320888439
-1.0464448474668453,-1.3330078125,-0.81384277343,0.0140915446924994,0.11835398789344677,0.179018293105,0.01123046875,0.38330078125,0.008707356840821582,0.0930350865846681,0.13143412271904764,-0.13952636718,0.31530761718,0.009236598149079112,0.095820761832662,1.0780596865293453,0.8430304373,1.33963565489,0.014085261980955771,0.11832760090456933,Null,0.00017527982121368923,0.07090399987998808,0.013199867004805773,2.1109249452782392e-05,2.256099801636412,1.0769451982063822
-0.9542949969911282,-1.28479003906,-0.06787109375,0.08318029922837836,0.28766948672271403,0.2585799779617948,-0.11975097656,1.0380859375,0.08064403791350834,0.2832498521530437,0.07350886418153846,-0.14416503906,0.29187011718,0.013897686839189084,0.1175857842184597,1.0602382143604103,0.64974394715,1.37143733401,0.035835428624949484,0.1888164643141683,stairs up,0.001575233559256126,0.13171905715000776,0.03958731410994472,-0.000607077881610346,-1.288099168734289,-0.10060417953192495
-0.4641352928480981,-1.37561035156,0.25317382812,0.34980207108360006,0.5896236478531259,0.6091885244892025,-0.06091308593,1.18481445312,0.12763518652584657,0.35616309265798485,0.2622751809296319,-0.09191894531,0.54919433593,0.02830544888549704,0.16772535832380808,1.0638595393150307,0.73127125195,1.40364036547,0.026324872367569634,0.1617509507950603,stairs up,0.001382776577807703,0.2599933105099126,0.03707146187998677,-0.00024030010439075484,4.289501873518945,0.2879854400485829
0.1267907840665464,-0.07043457031,0.33471679687,0.01074443293367151,0.1033878583720336,0.9324095421195876,0.74865722656,1.18371582031,0.01532829708534731,0.12348799635876027,0.36401115495773195,0.19494628906,0.62573242187,0.0095710385276081,0.09757921539685482,1.0166666512161342,0.82849698439,1.30483232482,0.01991921253143929,0.14077121928215458,stairs up,0.0004520790716678517,0.07371122511005979,0.021207280994383,-0.0002508809729535402,0.33120543245525047,-1.2720767155349386
0.18290178962988765,-0.07238769531,0.30590820312,0.009434042967159956,0.09685578313023656,0.888023119290955,0.53771972656,1.20922851562,0.029402250656279768,0.17098850684422484,0.45929435129528096,0.23205566406,0.73986816406,0.01742954865579472,0.1316496480934215,1.027812426182191,0.76589395703,1.39174311403,0.0327246310467402,0.18039064500384874,stairs up,0.0012564548511752724,0.1214724636399751,0.035346797818986524,-0.0006461574005988943,-0.7111194838446084,-0.6731007407319569
0.38088754506873623,0.00744628906,1.20263671875,0.06776681446134215,0.2596044478180973,0.8301002586244505,0.45397949218,1.19311523437,0.03211101980290735,0.1787025059370072,0.3288158374806044,-0.17736816406,0.6875,0.057949933629269,0.24006567309912666,1.0313150095356594,0.73317898084,1.39174311403,0.03580829869265908,0.18871022706452176,stairs up,0.0009040887525426377,0.11657042455999544,0.029985350288503743,-0.0005339190448873863,-0.9482391906135144,-0.14707091328849994
-0.6798061605248603,-1.3837890625,1.0205078125,0.4293582620939596,0.6534214662720034,0.26702028412804474,-0.52062988281,0.9501953125,0.08705515070162288,0.294225779084008,0.12376838556011174,-0.1591796875,0.44458007812,0.030728017560574163,0.17480375470224066,1.0290326061367598,0.5957777258,1.40106275488,0.03412215769436688,0.18420513324842155,stairs up,0.0006124637832021863,0.10152193700002954,0.024678780314698872,-0.0001651574202645051,-0.5502405605060896,-0.3148051611361488
-1.097014352173202,-1.37451171875,-0.81079101562,0.020642833698843965,0.14327198861957546,0.18867612688348312,0.01049804687,0.46801757812,0.015987342635167677,0.1260853921099087,0.13663988434629215,-0.07995605468,0.32421875,0.011537302744150182,0.10710969347635524,1.1328969853276405,0.82596830019,1.41185752976,0.02227607008344779,0.14883186359884373,stairs up,0.0002144510336043335,0.053113600200049405,0.014602953554561102,1.5638427374985666e-05,-0.8825304418242288,0.3925099954002312
-1.0533440840833685,-1.25122070312,-0.81701660156,0.012449306075906507,0.11128244880640031,0.15706787108942108,0.03894042968,0.39562988281,0.006247709817668898,0.07883417491429721,0.12782881886926317,-0.05676269531,0.23413085937,0.006022017726411216,0.07739717628100014,1.078320059891684,0.83034063339,1.28280552782,0.012424456289114455,0.11117132910021627,stairs up,0.00043500718516623174,0.08478418435993262,0.0208018670716202,5.374202617288479e-05,0.7565001981950354,1.153338288855489
-1.112045196712335,-1.37658691406,-0.86059570312,0.01872989969431088,0.13644685634458933,0.166156700268503,-0.11791992187,0.47143554687,0.017888058376379145,0.133345207091837,0.15452274162353294,-0.17126464843,0.32336425781,0.010697399210209957,0.10311810184208245,1.147297949625509,0.88142048965,1.4280210382,0.018982963263717983,0.13736554453360234,stairs up,0.0002791508821721345,0.06026159396992625,0.01665771052706341,1.047724570078586e-05,-0.32645946979181195,0.8739160437118619
-1.0961071973137433,-1.66833496093,-0.84948730468,0.027319916314481506,0.16484483766655586,0.0860001671112834,-0.3564453125,0.49841308593,0.04299583331722016,0.2067991998893663,0.14150756182887703,-0.06506347656,0.46374511718,0.012174543282421535,0.11004289514952735,1.1333464682901606,0.87088658559,1.69871002562,0.02658854268905222,0.16262336230932475,stairs up,0.0020418819342297068,0.26642474904008395,0.045066204405310256,0.0002099931428265466,10.06849575664692,2.772331950124663
-1.159436107383136,-1.51696777343,-0.92846679687,0.015025169126619326,0.1222140041092931,0.170213688051716,-0.14599609375,0.70764160156,0.038094105661766,0.19459880974077098,0.1410721096039645,-0.2587890625,0.42260742187,0.028668940046453917,0.16881736091988345,1.2076772582115975,0.99235801282,1.55218957904,0.0160811826394109,0.1264358640281723,stairs up,0.0012328736935393898,0.14161016725006448,0.03500826449464084,-0.0005239602260101678,-0.614387662057597,0.06610000443169244
-1.0764297876561024,-1.431640625,-0.82397460937,0.02372119364656893,0.15362143893240762,0.0770251151826154,-0.47497558593,0.30676269531,0.02418782277587133,0.1551250549043319,0.09976149338615385,-0.2587890625,0.25866699218,0.009024412682678324,0.09475301390077243,1.0990332158171283,0.84538372254,1.44188010431,0.02347414525087082,0.15281938692068842,stairs up,0.0010477172463726576,0.1620056061899504,0.03228535794159483,-0.0004627831162092826,0.551072618233809,-0.35271192272971935
-1.04750213622525,-1.39013671875,-0.78527832031,0.027385543818652644,0.1649678276809938,0.144237518307625,-0.02209472656,0.36145019531,0.01032212344668185,0.10127986065916604,0.068742370603125,-0.16528320312,0.24645996093,0.010279632117836647,0.10107118490005036,1.0694894386985,0.80717501361,1.39565591847,0.026838158367177522,0.16331080759515784,stairs up,0.0014985031856035707,0.19167792462997113,0.03858934491143311,-0.0006914894110179653,1.6256524095579632,0.8496324128573168
-1.0256034491536126,-1.36596679687,-0.77001953125,0.023659867552529124,0.15341445140670953,0.0797393958572775,-0.13818359375,0.20849609375,0.004828650960601645,0.06930634938820512,0.0720732524121466,-0.18981933593,0.32690429687,0.013646992150207315,0.11651412759629452,1.04066842351623,0.77232080821,1.37145752713,0.022457074376630134,0.14946403604544248,stairs up,0.0012406810972455408,0.14525934222001524,0.035130974718822094,-0.0005367147810598187,-0.17031795734814237,0.35696384021679783
-1.0444845760538823,-1.30920410156,-0.77001953125,0.020308152576959868,0.1420869200733091,0.10490435431758824,-0.16552734375,0.27368164062,0.009306113739488859,0.09618405218102663,0.0030230353873529413,-0.21704101562,0.265625,0.017569672301358523,0.13216021068317468,1.062275193360706,0.77232080821,1.33776305766,0.020560837621634385,0.14296814861352058,stairs up,0.0009433965538605068,0.10383599625993156,0.030624290397774277,-0.0005440122544816956,-0.9980993600339745,-0.2569865433722051
-1.06505839029625,-1.37585449218,-0.80908203125,0.02544055712661061,0.15908505343026264,0.13435173034302084,-0.03442382812,0.38427734375,0.007711396456322417,0.08758557491455088,0.038911183674062495,-0.13500976562,0.23779296875,0.009427157448003896,0.09684037210600172,1.0830643683869792,0.82147284593,1.37692959271,0.025561400197191785,0.15946243414829112,stairs up,0.0006641746248025596,0.1206531586399251,0.02570438448913038,-0.0003362591812353818,-0.21230124843315146,0.40881886544213664
-1.0613689181136707,-1.29113769531,-0.84899902343,0.013215203463299172,0.11459303179098825,0.14551553846487342,0.03588867187,0.38842773437,0.00711138834682116,0.08406176038970373,0.11778239962050635,-0.01245117187,0.25732421875,0.005745209655494844,0.07555691609024062,1.0833195640271522,0.8570556119,1.327623396,0.014046003882393928,0.11814019266805265,stairs up,0.00016920024494880936,0.05329107530997135,0.012966470503670268,-1.5330147675075877e-05,0.7941555922482477,1.1534462554453078
-1.1342172573230054,-1.42199707031,-0.84130859375,0.020853848525392477,0.14403401506853686,0.15886976805056996,-0.13427734375,0.42541503906,0.017826219396135004,0.13316852317671377,0.18827796105595856,-0.18530273437,0.55456542968,0.028271626303206742,0.167705519267636,1.1790647081294818,0.86040941751,1.52669459155,0.023670835744200192,0.15345419162366578,stairs up,0.00017225618552071183,0.0766334823199486,0.013090594578732838,-2.3381820901478194e-05,8.06648095443772,2.411476349284011
-1.0738216624502352,-1.39794921875,-0.80090332031,0.028425194113676704,0.16810112161874058,0.15007826860970588,-0.04174804687,0.44775390625,0.016038505627972783,0.1262701923544112,0.10933694278347057,-0.14196777343,0.34826660156,0.01642094336209717,0.1277667780669695,1.1043498107820586,0.8322697508,1.39881338363,0.027604393676362714,0.16565631557544425,stairs up,0.0008761210119195613,0.10982599716999175,0.029512156120965978,-0.0005051094552991541,-0.9191445491613828,-0.07211192321663665
-1.089868545528073,-1.35852050781,-0.80871582031,0.02041429757729382,0.14250604587436075,0.104063034054375,-0.10595703125,0.31433105468,0.009092315793277425,0.09510499451581975,0.06802050272458333,-0.17236328125,0.38732910156,0.01903401240017895,0.13760405851183322,1.1103937086522395,0.89698642809,1.3763021134,0.018680265224786687,0.13631937564682772,stairs up,0.0014307859932712994,0.17321310765998987,0.037727098787074496,-0.0005195326820862771,0.7693829671781547,0.5695178894470228
-1.0534240333861147,-1.34887695312,-0.86999511718,0.019243585541236223,0.13827875806751128,0.10820172546458598,-0.0478515625,0.29943847656,0.007511348802473423,0.0863915841761824,0.0811378819152866,-0.17858886718,0.21411132812,0.010782265708070261,0.103506467703359,1.071068442593949,0.88443295117,1.38041324234,0.018219713404128913,0.134549857949261,stairs up,0.0013242164626673114,0.15935885295994012,0.03627370897640741,-0.0006736946627758309,-0.6100846830006774,-0.044150875097701534
-1.0521657843305263,-1.43725585937,-0.83117675781,0.022168310291142822,0.14849792919034602,0.09308182565521052,-0.23352050781,0.24206542968,0.010668117798445346,0.10301441554477934,0.09610981188031581,-0.16052246093,0.24450683593,0.012985350601774926,0.11365300986440821,1.0726082678016318,0.87142672824,1.44243870693,0.020152340149254273,0.1415848692519801,stairs up,0.0013392213574484853,0.1358141371099464,0.03649894277904814,-0.0005388297247562199,-1.0637624601787323,-0.024138038553617847
-1.0413313996969462,-1.42077636718,-0.77966308593,0.018384358115426335,0.13518236622683913,0.08337036863520957,-0.06372070312,0.23254394531,0.003946913370203621,0.06263608511398198,0.01353445452766467,-0.17944335937,0.20739746093,0.011682767138406111,0.10776275074883054,1.0524118492764674,0.79072145243,1.42579425649,0.017851439918715566,0.1332086523800271,stairs up,0.0011608000744273235,0.13221513996006706,0.03396835550594197,-0.00045343359971343906,-0.5183092859003162,-0.4829912252517211
-1.074055363578,-1.28723144531,-0.84631347656,0.015527327471017075,0.12428877725141914,0.18267853565323075,-0.07641601562,0.3837890625,0.015086674102387154,0.12251247505004433,0.03425042567994872,-0.24938964843,0.3623046875,0.01999825404394085,0.1410521141103442,1.1055401257415383,0.85289077233,1.33584122004,0.016357081512330115,0.1275664495195979,stairs up,0.00025294973094642934,0.06956635251992793,0.01586356053472901,3.285948325970162e-05,0.8377797174063537,1.0487154846670987
-1.0644599914521875,-1.30541992187,-0.87585449218,0.01441342542883429,0.11968016343531654,0.12220382690112501,-0.11608886718,0.33947753906,0.009814157762514725,0.09875636322029588,0.08480606078868749,-0.126953125,0.28271484375,0.009980466140856998,0.09958959899244821,1.0838309180964374,0.88792937563,1.31185030183,0.014596937517036886,0.12043963906270812,stairs up,0.0003256069166231037,0.08471304899001098,0.01798810366309382,-8.300466361539467e-05,3.225604538565266,1.6267052184164148
-0.9920956119035712,-1.5927734375,-0.33557128906,0.06579615182936971,0.25580194391682387,0.22747199089642858,-0.11535644531,0.73376464843,0.04004343249633886,0.19955804578234593,0.05343057820912087,-0.51501464843,0.57531738281,0.05455194141673198,0.23292102840851833,1.076904584552088,0.53684523589,1.70473223277,0.03885227994847108,0.19656756060657654,stairs up,0.03702688082839823,0.7945542336899507,0.19189433662367997,0.0021494282434839753,2.24782411411129,1.7987891059941958
-0.7649356202540462,-1.33605957031,-0.27453613281,0.14039340853425933,0.373606592476064,0.5374523008461272,-0.1240234375,1.17883300781,0.13821612685751353,0.3706982461626277,-0.014294221910751432,-0.48400878906,0.23425292968,0.027997374475462182,0.16683986316501803,1.0724396684318498,0.6411403932,1.36963588556,0.029061562675151777,0.1699811070788007,stairs up,0.009682137832630871,0.3733937381599617,0.09811305579784674,0.0007718178063321872,-0.9734490059011351,-0.07537030544050065
-1.0389295076034735,-1.453125,-0.80444335937,0.022345230967203998,0.1490893171505901,0.15172633120510526,-0.19372558593,0.33837890625,0.010497006502735733,0.10218492599248558,0.12124344674852632,-0.30004882812,0.24487304687,0.012430722062389517,0.11119935795421469,1.0678133046575264,0.83158708635,1.48694501549,0.022020700345963113,0.14800270917483108,stairs up,0.0013553678912209277,0.15306682264997562,0.0367183111812618,-0.00030988854061809437,3.180635073020575,2.0284763756282236
-1.034215938680121,-1.37438964843,-0.76086425781,0.02762110299138712,0.16569158810029222,0.12762858072624242,-0.18054199218,0.4306640625,0.009341632180778107,0.09635878905511074,0.06405584161769697,-0.26550292968,0.23413085937,0.014773825619733057,0.12117874105074605,1.0552383547566664,0.78004482773,1.39485693582,0.028059893772763102,0.1670024964199755,stairs up,0.0018470167307953953,0.19380923348001033,0.04284650149081831,-0.0005164188738861812,0.4616161399421226,0.3794302485318276
-1.1032981434045404,-1.50146484375,-0.76965332031,0.0393806442447312,0.19787450240769985,0.16100442820293107,-0.11083984375,0.41137695312,0.014551699551856583,0.12028328684676855,0.07335864538195401,-0.20129394531,0.36633300781,0.013652464353465486,0.11650751870438433,1.1290836749583906,0.77050202999,1.50425282733,0.04117378560009201,0.2023293222653784,stairs up,0.0019206124768171402,0.15437463962007314,0.04369867817310739,-0.0005207075359150394,-1.0873385835148355,0.2528821088575528
-1.0450181749095555,-1.44018554687,-0.7001953125,0.03658373811859336,0.19073671678270449,0.13971015082155555,-0.05932617187,0.37292480468,0.008460103382585392,0.09172296772476181,0.050188530814111114,-0.34814453125,0.21569824218,0.013620683953572152,0.11638304639062949,1.0661590660453888,0.70112482194,1.44389803982,0.0359439466635915,0.18906151927617632,stairs up,0.001987160952446418,0.23283919631001027,0.04445358443789737,-0.00044106137519285386,1.9209639159727603,1.3916056802740064
-0.7594894980338504,-1.92016601562,0.15405273437,0.28355110621878377,0.5310694776983022,0.4585554969467914,-0.00830078125,1.43017578125,0.15045345412110223,0.3868447882488802,0.08300193745737967,-0.298828125,0.4912109375,0.031580787396820645,0.17723404351533276,1.0966098973479146,0.76619453072,1.93045119953,0.054822249694975005,0.23351463034316863,stairs up,0.0041766476520554135,0.33775462086998687,0.06445395750358002,-0.0003681388022252648,2.203680369233661,0.2619534448395982
0.10909136603611763,-0.07775878906,0.33630371093,0.012234890178873399,0.1102856302364217,0.9449721392428235,0.62768554687,1.24206542968,0.023636114700922452,0.15328756874611033,-0.19128130744347055,-0.70593261718,0.220703125,0.054544766793463435,0.23286029121361618,1.0069088128885293,0.75718930762,1.25563183706,0.01758379949888455,0.13221333285332923,stairs up,0.004626967271382353,0.31249443094009166,0.0678214554314843,-0.00044720862771838524,1.3649083830803388,0.8994877926129816
0.06453709243872831,-0.37780761718,0.34045410156,0.03630999520183768,0.19000029167480018,0.8994571046300577,0.39709472656,1.2470703125,0.037998892496154416,0.19436883937174704,-0.34086829389132944,-0.89453125,0.12622070312,0.06031526358880882,0.24488082907136072,1.0231147365991908,0.75366189188,1.26990559854,0.016557232452970992,0.12830247817949605,stairs up,0.0019421975438703477,0.21052040616007162,0.04394281475363467,0.0005184495871129734,3.6773106137165588,1.9140693552002959
-0.4536908397321548,-0.72924804687,0.07165527343,0.02988312906117798,0.17238917860648617,0.22805364619082868,-0.20422363281,0.71801757812,0.05809812053924244,0.24036875098037475,-0.8566375226561878,-1.41430664062,-0.38403320312,0.03587899772989857,0.18889354468351624,1.0446746578070165,0.75226004145,1.49191136826,0.023633054089983178,0.15330520125021854,stairs up,0.015078447964528998,0.6368008653699917,0.12245465128848121,-0.00030287520203139566,9.078879401521434,2.808908425092161
0.19457281988745947,-0.02319335937,0.43518066406,0.019780036089843942,0.14026088897424252,0.8703844225046486,0.39184570312,1.40734863281,0.04384191078163093,0.20881792901977694,-0.4058580553176216,-0.98425292968,0.04248046875,0.08404041379402916,0.2891126792221925,1.0359110084834595,0.71168024438,1.4730962708,0.03323140527515557,0.18180147429944574,stairs up,0.0005247699237504025,0.1112115840099932,0.02284586022823321,-0.0002103461696913062,0.12366249263194229,0.5189733731317677
-0.7081454964554651,-1.7587890625,0.61450195312,0.5915373010537701,0.7668755640250942,0.38613181890069764,-0.04455566406,0.83679199218,0.07407187793914755,0.2713691719521821,0.029022216796976738,-0.35266113281,0.42895507812,0.046274005166953965,0.21448769254479988,1.129420111977849,0.60955340879,1.78900365024,0.08405333607065903,0.28907551588503944,stairs up,0.0005005333148780456,0.1334781794500941,0.02230747044077306,9.583747474657125e-05,11.801681052572045,3.136529453582303
0.09601384943112302,-1.32067871093,1.18420410156,0.6864587503001887,0.8263097771974904,0.1859287527141711,-0.39086914062,0.83361816406,0.12704208436339814,0.3554753365963661,-0.13640410887235294,-0.58056640625,0.50244140625,0.10501583061574914,0.3231938251790197,0.9672669791346523,0.71347361725,1.58252275626,0.040610813944721026,0.2009817002034623,stairs up,0.0024439249012662436,0.18224088799991023,0.04930370963880074,-0.0006351178777370739,-0.4193144562869544,0.6519114258217419
-1.0774139939663159,-1.41162109375,-0.82788085937,0.028813316430949948,0.16924779911258275,0.13135336713865498,-0.03002929687,0.32104492187,0.005885141704376564,0.07649003641663166,0.07266324584076023,-0.232421875,0.23156738281,0.013748460015048746,0.11691047713564233,1.0974561644050294,0.84932077702,1.42720978123,0.027267598434649244,0.16464549430421876,stairs up,0.0023210168850847537,0.2074457706199837,0.04803585834484863,-0.0007698040256273733,0.3437599043164945,0.6338244114433232
-1.0295661847581958,-1.31164550781,-0.76525878906,0.01993881310758645,0.14084046194341293,0.09495182626953608,-0.11865234375,0.23840332031,0.006763659097818123,0.08202923183636686,0.04364705823020619,-0.14916992187,0.22497558593,0.00772190741535884,0.08764761131307526,1.0419986606425773,0.77787289269,1.31372486589,0.019513755754926167,0.13933115008875585,stairs up,0.000888061284129994,0.11699962673003483,0.029723452838537917,-0.0004240928785111316,0.04584997891266607,0.8848058427247205
-1.0584087007323566,-1.32421875,-0.80346679687,0.020402492354361364,0.14238167077879207,0.11996634902127387,-0.09790039062,0.34631347656,0.008858941521993784,0.09382171999528044,0.07959995148127387,-0.19104003906,0.30456542968,0.015142034253663455,0.12266045889207591,1.0791973279582803,0.82426368446,1.33691157138,0.020541664405271807,0.1428664613493546,stairs up,0.0010067648534152578,0.10481819265999093,0.03162834707071098,-0.00048638213497599977,-0.8768068596985339,0.6224449782558295
-1.1315444634837246,-1.53686523437,-0.79028320312,0.03090602897127152,0.17535206058096245,0.16274962133045917,-0.12536621093,0.37744140625,0.014852027116586348,0.12155760555404313,0.09315957828377552,-0.15222167968,0.33557128906,0.017088741122699157,0.13039000601269835,1.1610210966153571,0.79585033809,1.55710569491,0.03026961944569326,0.1735372657724751,stairs up,0.00043571174705564887,0.10440648142002829,0.020820392117777656,-5.2141266158164804e-05,1.4851014604482264,0.8820533690824321
-1.1277938239280791,-1.47814941406,-0.8212890625,0.029609016036253467,0.17158593607804068,0.17838472700073446,-0.15710449218,0.45861816406,0.018630447796768028,0.13610727765095681,0.17237707450225992,-0.08422851562,0.34765625,0.013209452660918492,0.11460725537621126,1.169219522139096,0.82775137228,1.5035022837,0.028684719159082387,0.16888652580612104,stairs up,0.00043610967312794976,0.08972805550001794,0.020824163288583764,0.00015182364242295081,0.6337633488493295,0.7792444937453138
-1.0859474513798912,-1.49560546875,-0.80078125,0.026147382488829987,0.16126151788079132,0.14333177649086956,-0.0498046875,0.35681152343,0.00903001577742993,0.09476781945748518,0.10867773967967391,-0.24645996093,0.26623535156,0.010513363781027716,0.10225568900746645,1.1116085785819565,0.82244125447,1.49644597541,0.0262901499591743,0.16170117102048515,stairs up,0.0008773108124469163,0.11891616181003428,0.029538835774299048,-0.00014741314638681575,0.7464480624196499,0.8016764974695595
-1.0426160143533116,-1.552734375,-0.7666015625,0.03576315161472864,0.18849648102150382,0.07941149426480519,-0.16796875,0.25854492187,0.010191622538295971,0.1006252610986137,0.06472342354824677,-0.17431640625,0.30236816406,0.01556250958675713,0.12434409648109662,1.0598041675962988,0.78280972234,1.55634109697,0.0357082795109461,0.1883518185897599,stairs up,0.0013027534338934887,0.15034208283998396,0.0359762976973877,-0.0004678791485064787,-0.2838155474938717,0.3704225518775124
-1.046029849924796,-1.36328125,-0.83325195312,0.02196136864723385,0.14781515770722997,0.12526780731556122,-0.09631347656,0.28393554687,0.0056864534150537546,0.0752159617211002,0.06853064712051019,-0.1748046875,0.27880859375,0.011735408057751548,0.1080533827644681,1.0646067238664796,0.83708328975,1.38160817456,0.021728556886162972,0.14702957832371655,stairs up,0.0013918310585247704,0.17454715368990037,0.037211958825823,-0.0005354667674333643,0.17671031517846103,0.5664801539118663
-1.0514154543779886,-1.42260742187,-0.75720214843,0.02753982889846647,0.16547372607075617,0.10703040813293103,-0.04040527343,0.35241699218,0.007756875132294586,0.0878196754159053,0.05289853852275861,-0.24450683593,0.22875976562,0.013465287480582764,0.11570609651580267,1.067958407924023,0.76400728981,1.43829233164,0.027834780475950338,0.16635747796000933,stairs up,0.0017536247144307113,0.16503699458996834,0.04175579494482428,-0.0006068842427341967,-0.38045888382992654,0.4402426134043557
-1.055474102812246,-1.34436035156,-0.81652832031,0.017554000353423967,0.13213678024600112,0.12404302096834226,-0.09130859375,0.38317871093,0.007311597721826587,0.08527894387695412,0.07569338548433155,-0.18920898437,0.36779785156,0.016443272414964797,0.127887999737727,1.0759824854571658,0.81716378215,1.36088910679,0.018590815919258995,0.13598308641646767,stairs up,0.0009669850894592376,0.1067946913300375,0.03101312699809707,-0.00039971302395420066,-0.9770830550370695,0.4842591433867563
-1.0652020854300646,-1.42602539062,-0.79052734375,0.02131313416038833,0.1455184870352595,0.13303695186122583,-0.09606933593,0.37780761718,0.012515872036223629,0.11151288927608147,0.04347987021058065,-0.19311523437,0.2177734375,0.0097614669538186,0.09848091057491767,1.0841668822294195,0.79550878429,1.4630023827,0.02227996998622864,0.148782486349644,Null,0.0011282376433028516,0.1314751847800153,0.033480721180485555,-0.0005617658746945675,-0.22198052196525264,0.7734074862939667
-0.750588214455544,-1.32299804687,-0.2861328125,0.08105087425059496,0.2839558443389934,0.4887062823795854,-0.04602050781,0.87145996093,0.08126027247144814,0.2843224134503802,0.22110791774435237,-0.42956542968,0.8359375,0.11155318730317804,0.3331293915493534,1.0513889852939895,0.83842108236,1.51200649076,0.018226195092633672,0.13465421957231935,Null,0.04131987354254982,0.7288855560600496,0.2027456064468995,0.0009181775316115478,-0.14875911820699494,1.0377440493501258
-0.3625380572106471,-0.60278320312,-0.07202148437,0.025578984995109782,0.1594632257841647,0.5957354377261763,0.32983398437,0.94287109375,0.028293343434110937,0.16771079870463193,0.706021656706,0.19201660156,0.9482421875,0.041391764303926916,0.20285039644386507,1.0370116633615882,0.91659276386,1.24960933183,0.004135989548450357,0.06412222858077653,Null,0.029276824491314562,0.7676518670699579,0.17060072648338803,-0.002003212210351212,0.5046263020810642,0.7090276744785611
-0.3347174359826702,-0.68469238281,-0.10083007812,0.015741479004443507,0.12513617735891325,0.7355023928302094,0.59875488281,0.89660644531,0.005190736400209627,0.07185791375932117,0.6302701141157068,0.3798828125,0.79455566406,0.008522832024753691,0.09207719515469631,1.0363799989768585,0.88894358243,1.31258911443,0.005486001322461802,0.07387339712270523,Null,0.015423156864579443,0.5552212249799595,0.12386447171081563,-0.0007316058838262538,1.8657208154652691,1.3571633260764018
-0.3928276738000632,-0.50756835937,-0.24389648437,0.004159164911827261,0.06428717666277928,0.7371432147412658,0.53283691406,0.96887207031,0.016962041192315883,0.1298256003306947,0.5169592748677215,0.02648925781,0.84045410156,0.06490809429942745,0.2539631539731962,1.024082841453671,0.92429066021,1.10929310187,0.001690436177995056,0.04098459728780056,Null,0.013214162965302981,0.46823248951000096,0.11458852046555365,0.0016701709704005385,-0.5692081141651961,0.4368109953172462
-0.36180188977627026,-0.52124023437,-0.22668457031,0.004685878217847327,0.06826821475913591,0.5904679581888107,0.5205078125,0.64929199218,0.0011391831331981318,0.03366044245894869,0.7501339474197297,0.68627929687,0.86560058593,0.001400331946186959,0.03731973451561088,1.0241591985924865,0.97278411055,1.07849852684,0.0005411543842547981,0.02319976778808332,Null,0.003981077185167551,0.26305911773999924,0.06292501767207945,-0.0001916274932375525,-0.24487956734058303,-0.26376826302707357
-0.3348674216430994,-0.50317382812,-0.13195800781,0.006113110977255601,0.07795743575986902,0.5664890579264328,0.38854980468,0.74157714843,0.00468047938893303,0.06821369484521672,0.7736516584388304,0.49279785156,0.94372558593,0.006305929289459952,0.07917734846526137,1.0227764274436844,0.8371766256,1.15994822117,0.002520916385014503,0.050061703765778356,Null,0.01423632235298216,0.6510879731799832,0.11896667182824229,-0.0001719854112241545,2.88177961359456,0.5047752893974785
0.0031719306595337123,-0.48901367187,0.55578613281,0.14160072546775934,0.37532258518823824,0.658020335771399,0.35778808593,1.13623046875,0.055795889833079766,0.23559879447547472,0.4964941153231088,-0.15795898437,1.19848632812,0.19174816124633012,0.436754676514733,1.0221341207140415,0.6500018106,1.58508205362,0.021991497206111692,0.14791062039195452,Null,0.03268235615723781,0.8489005141999542,0.18031366427505918,-0.002178516545901472,-0.346916022496226,0.4695675031293942
-0.44040030019932097,-0.76989746093,0.15698242187,0.045365703180578455,0.21233385970155602,0.7772224332041356,0.45092773437,1.14501953125,0.030565187519618724,0.17428859263469898,0.30368305724117284,-0.46032714843,0.82165527343,0.11962922190761097,0.34480540877504656,1.0393529351466668,0.85168597874,1.15343964401,0.00437597415692672,0.06594666004258935,Null,0.028414200112719973,0.6653201723100892,0.1680440531995342,-0.0009631740784450407,-0.29744237916065863,0.5288558836193128
-0.892499802425607,-1.45739746093,-0.12329101562,0.1539675229321187,0.39125124568546765,0.41426007044416185,0.00366210937,1.15466308593,0.08696668688822426,0.2940475969569444,0.2858315175649133,-0.09765625,0.82214355468,0.07537953374179572,0.2737586782068785,1.1512654292789595,0.66679647542,1.5436724929,0.039166608073632724,0.1973327430893627,Null,0.02801787100830593,0.830732628279975,0.1669009226957635,-0.0002295393340854221,0.4344400371396584,-0.2678331388821599
-0.4130866156675,-1.64526367187,0.32177734375,0.3960660095774435,0.6275871595703412,0.690471055768611,0.05517578125,1.16882324218,0.12328457918285478,0.350142349415293,-0.07449679904494445,-0.53173828125,0.44641113281,0.06749759007557893,0.259080303118643,1.0915774624458887,0.76573092837,1.73535345589,0.04523848352987209,0.21210176477665807,Null,0.0012372117962299867,0.1544854756099312,0.035076179914039135,5.892500345520404e-05,1.124274004953028,1.0399954878112876
-0.39489680464392474,-1.77685546875,0.35900878906,0.3623662396833382,0.6003482606734551,0.5831206947212902,0.1220703125,1.27307128906,0.11226500248136961,0.334157787877541,-0.37396502750989247,-1.25598144531,0.28491210937,0.1953241388848861,0.4407652539685213,1.115116137922581,0.56114442722,1.83381408697,0.05900979905905927,0.2422654372271678,Null,0.0023795943324526887,0.16746254797999427,0.04864977712730323,0.00048228790415253645,-0.8872273985141725,0.4086556006984723
0.017771876134593016,-1.39489746093,0.48779296875,0.11529217282831904,0.3385585170955264,0.6874212220620349,-0.11962890625,1.13195800781,0.09891205428026933,0.31358728321991075,-0.4807966365341279,-1.15942382812,0.06225585937,0.13026151889211146,0.35986689828316804,1.0152182993180814,0.66416120356,1.47851650182,0.01591656288649291,0.12579357984482392,Null,0.011163648370812199,0.37097215968992714,0.10535057398241245,-0.0010874154744936635,-0.9360674588069466,-0.20608225915895623
-1.162055924090296,-1.55004882812,-0.72290039062,0.03595485162155364,0.1890558145634317,0.22234132303627216,-0.03979492187,0.73547363281,0.035112923026199255,0.18682921144964537,0.1591009557566864,-0.11010742187,0.37817382812,0.019543005481000658,0.1393820877850316,1.215539875174497,0.72597795988,1.62079553733,0.037884350044466955,0.19406231548841354,Null,0.0005378710457542691,0.10369132200992226,0.02312332970928885,0.00027909125098686516,0.6419146517834502,0.6994298562098387
-1.013527248213424,-1.19677734375,-0.90930175781,0.003832917047119844,0.061742092418475614,0.16992585554945652,-0.04016113281,0.291015625,0.004758801600632837,0.06879635563353254,0.0423185928986413,-0.24914550781,0.20129394531,0.009291484742568138,0.09613005535668992,1.0350893246761412,0.92558243785,1.22245499901,0.004302628417101963,0.06541593511529907,Null,0.0002885105579617313,0.08775389391007593,0.016939379144434302,0.00011145785104836397,5.493840450627257,1.9435501946905673
-0.8666685344068308,-1.2978515625,0.74084472656,0.23983336661008725,0.4883879623467632,0.2852456348152459,-0.1806640625,0.94763183593,0.06251231244275818,0.24934056049308426,0.047395966742950824,-0.33544921875,0.44567871093,0.030520220859699628,0.17422239722989658,1.0747742288922404,0.86117677807,1.3123089163,0.010691539564728547,0.1031170007867766,Null,0.002467049606107908,0.20712932296999043,0.04953350846365862,0.000598119764231649,4.8744421364409485,2.3857235251502384
0.26451665704590904,0.00048828125,0.78332519531,0.057497314460163006,0.23910379581566146,0.9241707541686364,0.63037109375,1.17749023437,0.017337473922915323,0.13129724120617808,-0.08141881769176136,-0.49951171875,0.2626953125,0.035415317411110064,0.18765418731466868,1.0180021712864205,0.86541719421,1.19461536024,0.004007703627861703,0.06312632243780386,Null,0.003640985869627535,0.27125665120991016,0.06016891597755225,-0.0003062186096235244,-0.01124449350424328,0.49211860303679184
-0.6512320656427043,-1.22509765625,0.3740234375,0.2873559729158997,0.5343675725995997,0.385032030019434,-0.46008300781,1.08471679687,0.186977043530134,0.43104650245828097,-0.007592159247358498,-0.32727050781,0.32556152343,0.017218471983125865,0.13080588559580347,1.0246784109190563,0.7517634363,1.36717734196,0.010973648833568762,0.10442524682392731,Null,0.0008574825603757017,0.12300311992999013,0.029190573620569142,0.0004905496350386078,0.4676462808500781,-0.7475515071855645
-1.007568998482932,-1.15356445312,-0.87292480468,0.0048786957792695575,0.06966457399159526,0.23072375551842936,-0.11926269531,0.49829101562,0.015257414978242217,0.12319713155925924,0.08971912323931937,-0.30981445312,0.57763671875,0.02450694488129458,0.1561365949076341,1.0550890454950785,0.89347068516,1.27391628321,0.007715080671968896,0.08760529424324479,Null,0.0328842570868891,0.9157881369600318,0.18086483406571172,0.0006368482587464572,6.368708604092239,2.4343263484130824
-0.48351296413792133,-0.8232421875,-0.25305175781,0.014419216247706269,0.11974226244252272,0.8185054478980337,0.34008789062,1.10754394531,0.019588385776520945,0.13956481886713748,0.27169216884348313,-0.27514648437,0.54406738281,0.0441417232083117,0.20950831964214747,1.0237083139791574,0.83168833117,1.28129543247,0.0073253147656644054,0.08534729821104309,Null,0.0791111702500952,1.3270852629799492,0.2804758910733849,-0.0012755159001222277,2.369360649592182,1.4348999970426881
-0.31834193638043956,-0.56481933593,-0.14611816406,0.012444524169546235,0.11124813554896171,0.6457358559365384,0.15490722656,0.94055175781,0.06391969198318805,0.2521279137350312,0.6321370889803295,0.14819335937,1.00805664062,0.0676869467890062,0.25945142221226636,1.0286827362584063,0.88775085678,1.14466926732,0.0030016772622842884,0.05463684224105503,Null,0.046524075834422904,0.9845350539799256,0.21510102055574695,0.0013968644864141263,1.8413275382658663,1.2755464430649228
-0.2872726638557143,-0.3828125,-0.20385742187,0.002180130111857067,0.04654001958335465,0.42648751394759743,0.27258300781,0.54565429687,0.002348880550523677,0.04830763996943321,0.8804606648201948,0.78601074218,0.95385742187,0.001122739782965171,0.033398342247692,1.021957483877792,0.91841259229,1.10747584458,0.0008516473376640861,0.029088093099183844,Null,0.003454703411931468,0.2550888735499939,0.05858558075920176,0.00016983749152814018,-0.1690725478398405,-0.22955863717200067
-0.2754238030825128,-0.63012695312,0.54333496093,0.0640270406267787,0.2523860075929184,0.5651323367349743,0.27258300781,1.13928222656,0.07313271020072458,0.269736298375346,0.630413661855282,-0.10327148437,1.07995605468,0.12886724907356767,0.35805920095147803,1.0247382811854358,0.9084415984,1.25034834061,0.006767041652336736,0.08205083104169296,Null,0.019365213630457876,0.5211864258999412,0.13880167449497635,-0.0015346086787485103,-0.7355505851960671,-0.4214995491590881
0.48155482700565716,0.05847167968,0.81762695312,0.04504614401732721,0.21163349801032288,0.7301583426304,0.01892089843,0.99670410156,0.056096094215424296,0.23616846763618102,-0.11273925781245712,-0.59020996093,0.57495117187,0.13187564439203744,0.3621078144437452,1.0030990994188,0.80383463912,1.10941713548,0.0032334222898965557,0.05670049021919605,Null,0.0013278975206930945,0.14756648352999946,0.03633606383278963,0.00021965247490381154,-0.3922058094416041,0.12360497645651279
-0.023365577493459452,-0.55981445312,0.2353515625,0.05574758324636929,0.23547026342736163,0.9556759396075677,0.81823730468,1.04235839843,0.002856245268332552,0.05329921298405769,-0.14903333509108108,-0.41857910156,0.42150878906,0.05603666776585537,0.23608000097215542,1.024261874332919,0.94229265483,1.10462474617,0.000987153399194688,0.03133396615295799,Null,0.020444056296338,0.5410401593499046,0.142595749880301,0.0015469689925899017,2.4007946151267836,1.9043879501923977
-0.3726074218714194,-0.59838867187,-0.07495117187,0.009569752448519677,0.09750903604354896,0.804572517637613,0.59631347656,1.23168945312,0.0178918631893884,0.1333282858735272,0.4109611265096129,-0.23864746093,0.73156738281,0.07902223523752261,0.2802006680310068,1.0269087458934194,0.82299992083,1.28216152796,0.006358583491144261,0.07948308229960988,Null,0.0340064871233489,0.6530071658299903,0.1838126503596271,-0.0032433247264948735,-1.0790994671239837,-0.11549588853370987
0.29038313633020724,0.0390625,0.97497558593,0.025267060430913202,0.1585438205019485,0.7036758976240415,-0.09887695312,1.12463378906,0.12599116177363825,0.3540315774427821,-0.53936419709,-1.01403808593,0.11303710937,0.08812989683289783,0.2960967160288848,1.047390858416373,0.70927340288,1.38586155361,0.0115760069726542,0.10731275628700933,Null,0.003527117122029808,0.29128797207999924,0.059235478421136675,-0.0001547490686578838,0.6080412023572963,-0.6611747957353247
0.848622041586353,0.36486816406,1.01257324218,0.010500001279148146,0.10216768846235776,-0.17127613740441175,-0.50415039062,0.16101074218,0.021868062485844168,0.14744296125676104,-0.4287655101054706,-0.59997558593,-0.22912597656,0.009569638581633188,0.09753638597967695,0.983225975421353,0.65883483908,1.15838427357,0.008341506290289576,0.09106282779613781,Null,0.004384094607874872,0.26303865058002884,0.0660174659924466,0.0005842400383729148,-0.16970520041743153,0.6131590153758382
-0.005430531125340304,-0.11328125,0.38952636718,0.01863780568362988,0.1361624968526966,0.9250756708073822,0.16101074218,1.32043457031,0.038486979412963654,0.19566674961001457,-0.41856440199282713,-0.79125976562,-0.21594238281,0.011817900462376279,0.10842521218778375,1.0405826282841886,0.6040854742,1.43927486873,0.01687468783159694,0.12956210356676898,Null,0.00410171436552272,0.29562422644005437,0.0638767518053369,0.0006093850406386682,0.28588536105283247,-0.47873064149174377
-0.1051334429358861,-0.18920898437,-0.06652832031,0.0004979390886545654,0.02224382106193162,0.869510698918038,0.82373046875,0.89672851562,0.00010174198152925723,0.010054752355841485,-0.5366782659174683,-0.57019042968,-0.49597167968,0.00022317681171077564,0.014891752759304452,1.027479929557785,0.98776174921,1.07311822871,0.00017181243094989868,0.013066178113773311,Null,1.429357844612578e-05,0.01643232971002817,0.003768701733987169,3.609700544795824e-05,0.4526138373409623,0.9501682800965341
-0.10881361070247254,-0.17687988281,-0.07177734375,0.00041690054844664183,0.020361971566931807,0.8501707642912086,0.81774902343,0.8818359375,0.0001962497517495998,0.01397037781916854,-0.5683345585045605,-0.61401367187,-0.546875,0.00016405614355396097,0.012773203833486584,1.028732039122912,0.99599838548,1.04905932558,0.00011888167665488416,0.010873292078727025,Null,7.431464659735168e-06,0.012607823829966947,0.0027185717640573754,4.381213798602165e-06,-0.445409215402949,0.17837586781533626
-0.1661376953083908,-0.62573242187,-0.06909179687,0.01507007111014167,0.12240695039931514,0.8612776131430461,0.72216796875,0.96850585937,0.0012400259005841854,0.03511266601881213,-0.509285060835,-0.58239746093,-0.13842773437,0.016513813980914428,0.12813628293349477,1.0294820263525863,0.84007359398,1.12876651651,0.00158325832228433,0.03967567436760307,Null,0.00013156189364846473,0.050335480130002,0.011437035927695802,-0.0001150992101796039,2.51215835312244,-1.8568860958165405
-0.31382168275246075,-0.50390625,0.19213867187,0.032843580472793475,0.18075293788508046,0.925181763331204,0.69714355468,1.12768554687,0.0065371854907409705,0.08064092874400199,-0.19404386350303665,-0.56921386718,0.00268554687,0.030546619354662786,0.17431778282894014,1.0277783670667542,0.82096302033,1.18492040154,0.005359325566665836,0.07301552075076423,Null,0.01010037213135684,0.36931440298008056,0.10023717175715452,0.001451742594908539,1.2435977403572807,1.5693280479954643
-0.3444639263699394,-0.47705078125,-0.2529296875,0.003943594782419267,0.06260746128042857,0.6602923768900606,0.36218261718,0.97778320312,0.0523840665829188,0.22818104082396323,0.35681374289672724,-0.48669433593,1.017578125,0.3181819442298697,0.5623642670105335,1.0257689412201212,0.93347963729,1.1633011357,0.002007563359577693,0.044669859065298,Null,0.013922841678759738,0.47567759067999305,0.11763698746610518,-0.001061174029760874,-0.5523190313903603,0.12289950157692961
-0.23484611510807288,-0.31774902343,-0.16333007812,0.0012471700216271629,0.03522320746938285,0.5511379241911458,0.43518066406,0.59362792968,0.0020831430011141435,0.045522448286349236,0.8242702484089063,0.79174804687,0.87780761718,0.0005109192211004093,0.022544582131645542,1.020801601639427,0.99560102356,1.04361337035,0.00011305642846168986,0.010605073922268775,Null,0.0014393699100276002,0.12456050854996192,0.03784010031363826,0.000458808957073315,-0.8717450933040669,-0.7028284820593365
-0.3460991438006395,-0.54272460937,-0.23522949218,0.011255003358810078,0.10578075105032335,0.552182929456686,0.48205566406,0.66442871093,0.0019365670168701259,0.043878330714681106,0.7729825751686046,0.57409667968,0.85632324218,0.005658886076847435,0.07500657022155224,1.020198269299186,0.99641028965,1.04327504521,0.00012977302887631312,0.011358632599145949,Null,0.0009213973698983766,0.11139181316002578,0.030266159459790717,-0.0004421507051019186,-0.9326160053499732,-0.4310552524361664
-0.5819826775163874,-1.39965820312,0.08642578125,0.1895367314749117,0.43421698788355356,0.5283650503067016,0.04138183593,0.96606445312,0.07742903752892533,0.2775313493965751,-0.16760126083905758,-0.94567871093,0.61596679687,0.22090817391341244,0.4687766916298596,1.0514556823573298,0.70144004262,1.44265192887,0.025859613715332463,0.1603877272973472,Null,0.008948177398561729,0.3856498324000768,0.0943468510456718,0.0003532593731851131,-0.42078244429963574,-0.3832705778209338
-0.7785263547445223,-1.19311523437,0.16577148437,0.18579176275470585,0.4296607682006708,0.2977699231161146,-0.22290039062,0.90893554687,0.08114632914148527,0.2839532946487115,-0.1252752413420382,-0.96862792968,0.33227539062,0.13814043156135983,0.3704869177192312,1.048341511787325,0.74679219173,1.33566672386,0.014031953876262047,0.11807869568158971,Null,0.0025805258131821134,0.24167663605010148,0.05063683780642761,0.0006985257722480181,6.756877224164757,2.5839794007084413
-0.42643229166471797,-1.57104492187,0.17224121093,0.2904999152673862,0.5375966630403958,0.2711964142591282,-0.0888671875,1.03918457031,0.06320047508089023,0.25075161032479015,-0.6047895382586154,-1.07531738281,0.35620117187,0.19801270423520323,0.4438437275324441,1.0615998610226667,0.58000889117,1.62744335193,0.04327382887986152,0.2074895462636196,Null,0.013021547017709386,0.5873872620599059,0.11381902237111337,1.395763250068293e-05,4.077178502282457,1.841208810219668
-0.4666657366037714,-0.62963867187,-0.25061035156,0.00845136331018795,0.09166825953163017,0.837596261156857,0.63244628906,1.04528808593,0.010584115671778336,0.10258476987738846,0.10134695870434285,-0.44177246093,0.63024902343,0.08746999171352479,0.2949070416070927,1.0146057408917142,0.77063438816,1.1513761499,0.006122657635701959,0.07802352863489836,Null,0.030880114023953176,0.7994194226399713,0.17522458797078277,-0.0008901390640931182,-0.15576744117059826,0.18516123091026368
-0.45498574746308107,-0.57214355468,-0.38354492187,0.002172085096444657,0.04647950188979368,0.717578124995946,0.65551757812,0.80407714843,0.001772711328777864,0.04198963092692129,0.5696315456039459,0.46447753906,0.640625,0.001946830807301322,0.04400349301512467,1.0256445395450269,0.981359237,1.06268649708,0.0003253111551505849,0.017987571166616555,Null,0.008402371082017553,0.46139696002001074,0.09141637085310592,-0.0003836727258533828,2.0399996103501072,-1.1077546772916984
-0.35536760602285716,-0.61157226562,-0.01953125,0.02060008809968344,0.14311664232556043,0.8788671874962857,0.66149902343,1.24487304687,0.008257743620315564,0.09061212123062654,-0.18333914620320002,-0.50817871093,0.49792480468,0.08561004884082457,0.2917547747025473,1.0215777807754285,0.91275930019,1.24575911187,0.002513892511305866,0.04999527388905137,Null,0.009956037715108878,0.49128461947998403,0.09949445246355468,-0.000750172995463995,0.7162001071110891,0.26928355659468706
0.29674348778082876,-0.01953125,0.48413085937,0.010950668066661727,0.10435596359632082,0.8194391240033148,0.64990234375,1.24487304687,0.013167208240041332,0.11443103264932233,0.4779868784496684,0.04272460937,0.66955566406,0.013037443997998251,0.11386577150602038,1.0087683440023756,0.78619502988,1.24575911187,0.005410462314885636,0.07335237049950954,Null,0.0017325860735210481,0.16365081290996386,0.04150920108569078,-0.00022059694051512063,-0.31075110310913256,0.6299200604014713
0.4232997995168254,0.40075683593,0.43908691406,7.620229220344394e-05,0.008706268171392884,0.7322558852070898,0.7109375,0.75866699218,0.00012110613875540558,0.010975671530001138,0.557007481808836,0.517578125,0.58422851562,0.00016438667718520107,0.012787372928261825,1.0128719939010054,0.98760022004,1.03614835161,8.931439275688758e-05,0.009425594402065472,Null,4.500765048533618e-05,0.02557120880999264,0.006691002523425211,8.633101234429739e-05,-0.39055949207983254,-0.7115671644265045
0.51174200148375,0.22644042968,0.95849609375,0.041434778238083794,0.20294862072291422,0.6150534493547023,-0.47680664062,1.14050292968,0.11326392770668609,0.3355439429654676,0.24649483816886905,-0.376953125,0.58288574218,0.14412059846902064,0.37850064433742764,0.9970385168995834,0.84546272966,1.20568902653,0.0037754450770793257,0.06126150659031949,Null,0.002787332099002061,0.2885586531599529,0.052637827049641796,0.00010869516094198038,2.801166001732083,1.348819096062499
-0.2779816658239785,-0.82775878906,0.92822265625,0.10751802200439145,0.32701677039969584,0.6154306063053225,-0.49658203125,0.98071289062,0.11764902861828795,0.3420767559467463,0.13437972530193543,-1.15734863281,0.87878417968,0.37539716323510053,0.611047378618575,1.0283094433060214,0.78821405742,1.38286735404,0.013919928098616172,0.11766515956520576,Null,0.025679377313307324,0.5822674510200159,0.15981650773607903,0.0004789249953340953,-0.7527587850631261,-0.3228398748711366
-0.3356359145177647,-0.42846679687,-0.22106933593,0.0015110680648616796,0.038757959559115374,0.5265754250878824,0.20202636718,1.01513671875,0.05192868872623822,0.22720745113525215,0.7369664809242941,0.09094238281,1.05639648437,0.07210354198851007,0.2677300945097968,1.027444255637,0.87323571196,1.15782146373,0.0022289613123392953,0.04707281354675847,Null,0.05590483657857199,0.9998006294899824,0.23574559295710712,0.0015973451602432297,0.30339079974825856,0.40960180008113517
-0.31513206245695874,-0.37817382812,-0.28039550781,0.0003327648378304143,0.018194767246688958,0.23115083359783506,0.20458984375,0.26196289062,0.00017512084058303391,0.013199172543677144,0.9421997070280412,0.90673828125,0.98547363281,0.00041385716877701917,0.020290980370644487,1.020348805374227,0.98869702485,1.0616648842,0.000374334160555348,0.019297787516363428,Null,0.004646650572573826,0.26099205191997044,0.06799043142603747,-0.0006302282612718807,-0.5499902774649224,0.33820415149620947
-0.3103042602503125,-0.34350585937,-0.27612304687,0.00027403909970459875,0.016502313635713174,0.21426544189068747,0.18823242187,0.24438476562,0.00013227216992697856,0.01146496702415384,0.9459159851040626,0.91345214843,0.9833984375,0.0002507026178408382,0.015784033910231345,1.0185081928677502,0.98443731988,1.05674409624,0.0002510017662051527,0.015793448172149442,Null,0.003063988801983534,0.19631873445996462,0.055180058644143694,8.360445839915581e-05,-1.2126649796425872,-0.24818112977836213
-0.3017978567263492,-0.32897949218,-0.26953125,0.0002352560185958158,0.015297427161345939,0.20783019696232802,0.17687988281,0.22729492187,0.00016939393286870082,0.012980665186099992,0.951392764132963,0.92639160156,0.97241210937,0.00011270629146297356,0.010588199180149256,1.0197494086275662,0.99380414023,1.04062041032,7.216389112832991e-05,0.008472430088147697,Null,0.0015514880301142535,0.2189360408100356,0.03928459111073943,0.000132882848290912,1.0655678602350713,-0.07437641020524427
-0.30006699334672615,-0.33056640625,-0.27209472656,0.00023563458532582763,0.015304639770618973,0.20358494349541664,0.18322753906,0.22668457031,0.00011686400260440558,0.010778143789228464,0.949231828958869,0.92724609375,0.98156738281,0.00013002432672792915,0.011368833379118882,1.016317885663512,1.00022582395,1.05031675403,0.00010633379672688543,0.01028109223091856,Null,0.0011581817329247921,0.16331723866994707,0.03393063209016795,-0.00017704504549079442,-0.12046107663983419,-0.00370112700639563
-0.3000757461895385,-0.33178710937,-0.26086425781,0.00036208527587659723,0.01897968462087817,0.2055338541628718,0.16296386718,0.22595214843,0.00012137457676640903,0.010988727999154489,0.951130558890718,0.92919921875,0.98156738281,0.0001553158524656759,0.01243058168045928,1.0185774271154873,0.9994362941,1.0369928801,7.486755434351453e-05,0.008630389224559571,Null,0.002020602791555188,0.19284948131007695,0.04483570815719842,0.00020554625929581155,-0.43275172924237815,-0.03602541916498984
-0.30169792894698116,-0.36059570312,-0.25,0.00071637782640816,0.026680935243865684,0.18248667206754718,0.11901855468,0.21472167968,0.0005113482700499941,0.02254178881975283,0.9554781163976098,0.9287109375,0.97351074218,0.00010518086708750595,0.010223470653362446,1.0190868786981757,0.99611554589,1.03077887119,4.821754907526174e-05,0.006922015172594695,Null,0.00215658271408287,0.18405969469995398,0.0462927564613164,-2.2117198263670698e-05,-0.83700256857359,-0.006395729924067758
-0.29797035134865596,-0.33386230468,-0.27734375,0.00014567704342300603,0.012037185448107448,0.19913343203612904,0.17846679687,0.21228027343,4.331188747991712e-05,0.0065634615767756295,0.952141218284301,0.931640625,0.97338867187,6.055125911494039e-05,0.007760522837483092,1.0174594040405913,0.99929655188,1.03331276468,3.811823528315758e-05,0.006157377569576467,Null,0.001079493978595767,0.14623465466991092,0.03276721299604298,-0.0004105666805732782,2.5546999257958687,1.6037550719908709
-0.2917990291777059,-0.30712890625,-0.28137207031,3.1968664404928335e-05,0.005637429683627151,0.2009219898857647,0.18896484375,0.21728515625,3.2252428060789996e-05,0.005662394184064416,0.9539967256395294,0.94567871093,0.96508789062,1.578205892786061e-05,0.003960962419300199,1.0176878237597649,1.00747588546,1.02973625316,1.719906685719077e-05,0.00413496020242975,Null,9.676380999529457e-05,0.04987913556010426,0.009807885149866373,-3.903676563332156e-05,0.5809423696462335,-0.1400509543888766
-0.28618315076984535,-0.36279296875,-0.27380371093,0.00018390835647029603,0.013526284606327673,0.2255507007052062,0.1884765625,0.6435546875,0.0076436909859499535,0.08720258320113121,0.9508157317140723,0.55322265625,1.01135253906,0.0023861370463912086,0.048722041940936205,1.0227455797293814,0.92294998855,1.16666769839,0.0009820998252800903,0.03125759835698654,Null,0.0065849135231383325,0.3228731573699406,0.0809380668778683,-0.0007711697217602081,5.933759681828835,-2.7476425498934236
0.06284422311534163,-0.57958984375,0.36694335937,0.08781584666619442,0.29541565060908587,-0.15892265746130432,-0.52917480468,1.04797363281,0.26760496824776175,0.5156964471351706,-0.6970882060333541,-0.97241210937,0.55322265625,0.13669649547802903,0.36857488916401354,1.0002242172826707,0.81903483481,1.15006136756,0.003773408038621326,0.06123700451206979,Null,0.04057989559713505,0.9560924603400736,0.20081794381020598,0.001673531886082372,3.106597273435277,1.3421281452478213
0.25996724674848315,0.12097167968,0.30004882812,0.0012266471227823387,0.034925003175542466,-0.4309754103717416,-0.45971679687,-0.38439941406,0.00019866245317963334,0.01405511906680249,-0.8728466248210112,-0.96801757812,-0.84753417968,0.00037798125433390273,0.019387051455572495,1.0084244403142697,0.99391566731,1.05423852053,5.763614707391003e-05,0.007570491958574629,Null,0.00013686667998019387,0.050624466089971065,0.011666094721359023,0.00019761933204527317,0.9899527681210678,-1.0963719322133139
0.2792481840289887,0.22314453125,0.30712890625,0.0003917852599804759,0.019737887911174,-0.43090271681522474,-0.44262695312,-0.41528320312,4.744341484539693e-05,0.006868542698923815,-0.8698771616006742,-0.89086914062,-0.84948730468,8.898668688386195e-05,0.009406740225851315,1.010357313655618,0.99302912482,1.02378647802,4.658422983329064e-05,0.00680606499211724,Null,2.367211458798588e-05,0.017118898800049465,0.0048517136333658655,8.044336997521472e-05,-0.7245602024952449,-0.6356428647578497
0.5094455150801064,0.01403808593,0.63220214843,0.026133528063829844,0.16122816111284885,0.5189202491249999,-0.45629882812,0.83715820312,0.24525331852867727,0.49391171235387127,-0.14455527447872338,-1.20239257812,0.21508789062,0.20118230244042234,0.44733900322956427,1.0085839083451065,0.85765222917,1.22383483777,0.0025366612216850344,0.05023114912926325,Null,0.0014911438100379507,0.17497928371005855,0.038512493999053224,-0.0002486125965180502,-0.2531747089378378,0.41398464616827857
0.625403550088,0.60192871093,0.6396484375,7.867337808880683e-05,0.008843675339575387,0.7689697265584705,0.73486328125,0.81982421875,0.00034721722969701865,0.018578879821040967,0.1900333180105294,0.05615234375,0.25268554687,0.001842389588404058,0.042796635412026454,1.0103046803985294,0.99143648635,1.03333166292,9.666151498452574e-05,0.00980269951786537,Null,6.559735725743295e-05,0.031226295890064648,0.008075363177593704,7.010743446867951e-05,0.3471794425542498,1.0606279648910484
0.610472087614367,0.57836914062,0.642578125,0.0002622283544092498,0.016142139922577715,0.7905466586690506,0.75415039062,0.81677246093,0.00018510744869550108,0.013562296360296692,0.18071041831018986,0.14929199218,0.20483398437,0.00019112297825398216,0.013780904874176762,1.0153120220039873,0.99711416,1.03155479839,7.282134938848316e-05,0.008506494858171629,Null,0.00010063671060103636,0.03835034250005265,0.009999988469728388,0.00011529136524971679,-0.7591248260055474,0.03454699218156133
0.5950409093631087,0.57409667968,0.61242675781,6.98868465101997e-05,0.008338149584721628,0.7949187125531089,0.77783203125,0.82482910156,0.0001247130078705789,0.011138528919145851,0.2178164467249741,0.16760253906,0.24450683593,0.0002072025122743951,0.014357190676726963,1.0167363834335232,1.00193565754,1.03490230396,6.060897475674231e-05,0.007764981559418306,Null,4.627018165639788e-05,0.02486860325007001,0.006784573662547304,-2.6683064522280885e-05,-0.9397740834617312,0.005204508221406095
0.5931628349729609,0.57202148437,0.61071777343,9.165499499812232e-05,0.009546881999895071,0.7962100918689944,0.76391601562,0.83312988281,0.0002495348659566601,0.015752486039548676,0.1944143625577653,0.11779785156,0.22705078125,0.0004758807311201448,0.02175367048453298,1.0120676450698325,0.98996097319,1.03755115359,0.00012187216461413566,0.011008692680445416,Null,0.00016466492307169292,0.050176940059941444,0.012796288809664413,2.5922370258782317e-05,-0.6570461910793393,-0.5052769545805673
0.6001522843969613,0.55712890625,0.61901855468,0.00012615064377463956,0.011200610648170337,0.7930301223636463,0.76831054687,0.84326171875,0.0003523185227182286,0.01871822672004455,0.1896986144645304,0.12316894531,0.2392578125,0.0009368257371658112,0.030522940624451475,1.013101928020663,0.9954102284,1.04135351083,9.760204768448602e-05,0.009852045972891877,Null,4.854587424407431e-05,0.02755008076997001,0.006948213079210154,-7.681836338559982e-05,-0.5307664795637543,0.043914020064059575
0.6077282321028386,0.59204101562,0.62670898437,7.746559609027457e-05,0.008773016473880717,0.789839812243871,0.76623535156,0.81494140625,0.00015918872173470737,0.012576235435276953,0.18348585559135483,0.11169433593,0.251953125,0.0012539325122129699,0.03529649593142926,1.0140286980571616,0.99489112509,1.03132967207,7.484483230650745e-05,0.008623338241113995,Null,8.252686073598852e-05,0.041004048030004014,0.00905507754668073,-2.783974110373911e-05,-0.4355997382830221,0.21857476190833175
0.597231850102228,0.5732421875,0.61743164062,8.081645899184375e-05,0.008966477617345193,0.802695160699171,0.77355957031,0.84265136718,0.0002406458434728709,0.01547252318846448,0.1614610741134715,0.12524414062,0.20690917968,0.0002863346092421363,0.01687752974313833,1.0136811596581348,0.98895512852,1.03551728052,0.00011543002496287225,0.010715966682104632,Null,6.055141820317296e-05,0.033100870209977984,0.007761293724954739,4.827561377116934e-05,1.9873507743679548,-1.4931954574700506
0.6000326948517544,0.56176757812,0.62854003906,0.00021151204084037843,0.014500866467933702,0.8011024876611111,0.77880859375,0.84448242187,0.00022972469727265704,0.01511228897256669,0.16437017429309944,0.10363769531,0.19738769531,0.0005486317135334954,0.023354300266540468,1.0147151983002338,0.98299391304,1.04321753288,0.00016006697463842088,0.01261471008225115,Null,4.4371580920869784e-05,0.029847822329998053,0.0066416939098025264,-2.184337606531258e-05,-0.06388597009536756,0.5934981967322261
0.3214035034155729,-0.32763671875,0.62475585937,0.09527717220498849,0.3078651278288717,0.4372844696032812,-0.35693359375,0.97473144531,0.25656463170079863,0.5052013040139118,-0.27663294474401046,-1.02722167968,0.28601074218,0.30574582524389066,0.5515010417675976,1.0121996309506252,0.94200136044,1.08129523133,0.0006617527965229345,0.025657477806175288,Null,0.0024851061759068966,0.2489603590599927,0.04972084989794571,4.9512401809570415e-05,4.176153519837843,2.025039081021622
0.11438299288171976,-0.08215332031,0.28540039062,0.008967398249670447,0.09439428512026994,-0.27889800830668793,-0.53991699218,-0.17687988281,0.010490058206112844,0.10209428264476453,-0.9706043802207643,-1.09851074218,-0.82775878906,0.0031413189749130853,0.05586869046074903,1.0265230346792995,0.93077351746,1.12998907171,0.0016562739789440421,0.040567529665418246,Null,0.0025384040272362707,0.23896442702994136,0.050221866240899915,0.0002295182832573858,3.48617093285921,1.8639855606754838
0.05285901521294738,-0.13037109375,0.20007324218,0.010637996839211308,0.10286888442168908,-0.38882928145121043,-0.53479003906,-0.28918457031,0.0032835132135083586,0.05715095419165116,-0.9298693205145789,-1.0087890625,-0.77685546875,0.0024037201473073168,0.04889855814476821,1.0162619933397896,0.85568098805,1.11462762631,0.002093839796354347,0.045637918301559846,Null,5.8735280990870416e-05,0.033320058039976175,0.0076436998850703,6.736247986278754e-05,0.17633478985321327,-0.8203356024348138
0.08620064558083831,-0.06921386718,0.20336914062,0.005156008948500599,0.07159004570064023,-0.3438494105497006,-0.48315429687,-0.14416503906,0.006355152902570178,0.07948017422458481,-0.9533983790194012,-1.14392089843,-0.82348632812,0.007802230803735846,0.08806537832090029,1.0229496307415566,0.90091335985,1.20766369444,0.007447831910851454,0.08604204852848456,Null,0.00012388495576972898,0.05316753413001152,0.011096987414937242,0.00013965753848954214,0.6755243770664787,0.7828952918093618
-0.8370174485773978,-1.25854492187,0.10119628906,0.14707910444555056,0.3825293463924573,0.15763387874464282,-0.42834472656,0.98315429687,0.08211926709075745,0.2858326280155112,-0.190470792809847,-1.14465332031,0.17651367187,0.1681320887152161,0.40899177490025007,1.0662781733231121,0.81339622549,1.3658447211,0.020182866794887712,0.14170353906910624,Null,0.0013729817735372313,0.18024634672997308,0.03695912288581227,-6.59575201417667e-05,2.9624842517812917,1.4606648490398422
-0.2504615992145354,-1.34191894531,1.06677246093,0.6268135175925416,0.7895494329767414,0.4124208877629508,-0.57373046875,1.47265625,0.23724353061524628,0.4857438809492548,-0.3214451524054644,-0.85595703125,0.10290527343,0.06318540681040308,0.2506793397217882,1.0770964592765573,0.43188888866,1.81166545794,0.09872725431229147,0.3133492637925421,stairs down,0.00403116557188854,0.2723734061800087,0.06331774904969183,0.0007132209879493188,0.25475131644584526,0.6571354059354456
-0.4449589900184971,-2.02392578125,1.06970214843,0.7891529360184413,0.8857716174915489,0.15655623419416187,-0.82653808593,0.88562011718,0.1651817800348019,0.4052492715079475,-0.24963872832109826,-0.87194824218,0.49951171875,0.09859615726356312,0.31309142000281753,1.0968111686987865,0.26563313415,2.13130057546,0.13211651391529555,0.3624263161583453,stairs down,0.009071186676384613,0.358661424229922,0.09496711047156697,0.0016168875907386117,-0.7517117870770043,0.5512861081836641
-1.1251412436563872,-1.97863769531,-0.39624023437,0.08795107534788281,0.29578809731563016,0.2530754049387435,-0.41174316406,0.97412109375,0.10927025235153483,0.32969403511359574,-0.02737314913382199,-1.01794433593,0.24450683593,0.06120649175446056,0.2467509653842306,1.231829857429372,0.67429613087,2.03241985818,0.07077983969795151,0.26534744133117033,stairs down,0.0024661247039872753,0.21999926273997517,0.049529920818858784,0.0006459171898163926,0.03938801124949487,-0.35843855195353674
-1.2472725374120481,-1.91625976562,-0.19250488281,0.11830558139541646,0.34291820769702924,0.3109873576313253,-0.89013671875,1.29248046875,0.24061859083296933,0.4890491603608355,0.05940485575024093,-0.45422363281,0.64184570312,0.04465929396387239,0.2106899667106238,1.4035847688683736,0.6164380243,1.92380924893,0.08756036524630938,0.295013377944988,stairs down,0.000514188206063311,0.09426323828995464,0.022607314894734325,-8.231882895882137e-05,1.5041868546722839,1.3412390070523823
-0.6950955563843005,-1.68920898437,0.01281738281,0.14220001512956237,0.3761159761116297,0.13885592920051815,-0.52075195312,1.31628417968,0.1443935743071752,0.37900583250449194,-0.6038268094209326,-1.17053222656,0.32141113281,0.15363131973952535,0.39094155898139354,1.113087509373057,0.73944313215,1.85750454499,0.06636964912432212,0.2569547916112251,stairs down,0.004846542836129773,0.2738304375800453,0.06943652652039259,4.8670791053822476e-05,-0.6405545572814875,0.23155966275968584
-0.7217969301693785,-1.67309570312,-0.09875488281,0.17187588431007547,0.4134063789012371,0.3272780941000001,-0.41748046875,0.96655273437,0.08721025155203364,0.29447841731853447,-0.504546257059435,-0.93884277343,0.28527832031,0.16365010617571976,0.40339252509766527,1.1255080695590962,0.79018529946,1.75715852228,0.03645412736053459,0.19038952659934755,stairs down,0.006291851558743617,0.2833248721599375,0.07909680382162046,0.0011850020227303685,-0.9267648551985115,0.16104984764262426
-1.2458686418396236,-1.76037597656,-0.57946777343,0.06389256816310718,0.25208938837666833,0.28567078292774195,-0.19763183593,1.18835449218,0.11619442680237953,0.33995547588325725,0.12042695732392472,-0.35107421875,0.71594238281,0.05375066320840491,0.2312178218653239,1.3514868211841937,0.91640026744,1.90917040732,0.054656813451987786,0.23315865760512608,stairs down,0.0013484880445540778,0.13032878673004689,0.03662291780880749,0.0006192725105907815,-1.1027821536739382,-0.27428243276347336
-1.213953564735497,-1.70361328125,-0.79870605468,0.04082169509824738,0.20145215743471137,0.15399419773298245,-0.24560546875,0.583984375,0.04431492394079614,0.20989466962932427,0.13043962445,-0.14819335937,0.63488769531,0.0319668026615613,0.17826907273870984,1.2598803453997074,0.81129368767,1.71230927,0.04378815864198743,0.2086434459522223,stairs down,0.0007025370396558344,0.11218358933001582,0.026427800436569764,0.0001475842963928168,-0.04098540751345592,0.6686920976031803
-1.1310177364823244,-1.48559570312,-0.67578125,0.04088370167080176,0.20164996575451588,0.2781659100487027,-0.06970214843,0.95642089843,0.0799306078784494,0.2819548732307457,0.047491290117405396,-0.505859375,0.3017578125,0.028399208038479444,0.1680645673717069,1.2104825870416756,0.69853514814,1.6497649999,0.04219978785214452,0.20486991211688838,stairs down,0.0011996624522947789,0.16177223579995825,0.034542405683311676,0.00030632848421140505,3.904711376711705,1.9134213992882105
-0.7908902375561958,-1.76489257812,0.31616210937,0.23502664266695897,0.483476290997617,0.4836638077415216,-0.05041503906,1.33190917968,0.12120034284514102,0.34719107898919044,-0.15739905315804348,-0.93090820312,0.18591308593,0.05860548027504759,0.2414269500906527,1.112551363325652,0.72701251542,1.77812317745,0.05934242738843528,0.24294014529531102,stairs down,0.0046843667274965115,0.29106852916993375,0.06825619541604382,-1.385534549549631e-06,0.6262336820308305,0.8821466386380997
-0.7743317522290285,-1.76489257812,0.14599609375,0.24454165810342027,0.49309662055217146,0.46052804129142844,-0.01794433593,1.24011230468,0.12738539826846526,0.355889704412661,-0.07474679129451427,-0.58959960937,0.19909667968,0.03421088919729165,0.18443263919891878,1.0759774722882858,0.63154673258,1.77812317745,0.06371655316063908,0.25169914296864365,stairs down,0.003515986805374168,0.29512889497004835,0.05912609789425141,0.0007457754679483277,0.6390387820609718,0.5343466715388434
-1.2075265873338727,-1.74328613281,-0.72741699218,0.0786032499465034,0.2795512402057445,0.27390955224647395,-0.19934082031,1.09387207031,0.0835298136857609,0.2881787334151839,0.0081871782431214,-0.26196289062,0.24389648437,0.011893008437948436,0.10873942580515258,1.269662337545029,0.73028228542,1.87807056217,0.09473924715954425,0.30690653537098184,stairs down,0.001284827104964645,0.14545144532007726,0.03574073808265819,0.0006151750057473603,0.01955658956528694,-0.4540661680092578
-1.2467742414065748,-1.70617675781,-0.78454589843,0.04131606570936417,0.20270125839017092,0.2428383168575138,-0.19934082031,0.64807128906,0.04840446297498746,0.21940153828710945,0.06854956189342541,-0.18530273437,0.32263183593,0.011546545611034655,0.10715760608263153,1.2946243460457458,0.78895984586,1.73391774739,0.04300850598107213,0.206811242261943,stairs down,0.00048591703776593506,0.08990618833001918,0.02198254792438518,0.00015972064282518617,-0.492237048573144,-0.24919361082372085
-1.2220894478431894,-1.5859375,-0.83117675781,0.028791352333571024,0.1692209307445099,0.19241844383205406,-0.16967773437,0.60278320312,0.04612263358686221,0.21418058281263558,0.06167058171264864,-0.12475585937,0.25598144531,0.0076619814426827325,0.08729584942467963,1.2592719931836216,0.83221059308,1.60035757468,0.030861212033490425,0.1751981582983886,stairs down,0.0004591151335033692,0.09823551343993131,0.021368982897625864,1.82080992499051e-05,2.3539058801291546,1.4947300983255227
-1.1952690036778162,-1.72717285156,-0.72521972656,0.06392938345732249,0.252114999965428,0.16581848845936786,-0.59301757812,0.62841796875,0.10234110541298896,0.3189873636063042,0.04543260596120689,-0.16284179687,0.19201660156,0.006090549729363077,0.07781739246465999,1.2532079041441955,0.73180455959,1.78699987941,0.05940972606829626,0.24303968988831268,stairs down,0.0018283417959279397,0.15858809361998283,0.04263606553678575,0.0003709321314973356,-0.7428074193538388,0.44280352646977045
-0.23792497501802326,-1.73547363281,1.21362304687,0.9017778065804901,0.9468552752961694,0.19978297033848838,-0.53186035156,0.97985839843,0.10939446374091326,0.3297854596807418,-0.21767478765232556,-0.92822265625,0.13134765625,0.05703337975585206,0.23812137732397498,1.0661503207311045,0.58373918776,1.77148330671,0.07306028991345473,0.269509778646436,stairs down,0.003559654429218524,0.26403651799000727,0.05948914828716553,0.0007041410771650822,0.44008396297222996,0.7957227556146461
-0.6103228793102732,-1.65368652343,1.0361328125,0.6382876268485161,0.7967431934565173,0.20167016201245902,-0.52526855468,1.505859375,0.1617235156325524,0.40104835191588933,-0.06430904200868855,-0.92822265625,0.76354980468,0.13934710007954726,0.37227092354395747,1.1107750422883609,0.51239705447,1.86437887575,0.11835119481925144,0.34308084612625794,stairs down,0.005712214556508176,0.32606090921001396,0.07537241053140162,0.0011671045068111867,-0.44353546515921893,-0.5032996513852949
-1.3200010557392974,-2.0009765625,-0.73278808593,0.07899288685442976,0.2802960903702338,0.21828151393416215,-0.18151855468,0.81811523437,0.06913645704164532,0.262226517467326,0.14529930320745946,-0.173828125,0.59765625,0.03243993192173482,0.17962344206248274,1.381429286679135,0.73845551467,2.00422491176,0.08285571430071136,0.2870676672402546,stairs down,0.0005728380608586029,0.11689768650001042,0.023869261381702114,0.0002245075713302206,0.08756022428456012,-0.07332277044029772
-1.2844033654670521,-1.65905761718,-0.84680175781,0.048295216516983944,0.21912565668065825,0.18641265692618494,-0.16186523437,0.66918945312,0.06320836139515694,0.2506850516969807,0.09851709266537573,-0.19494628906,0.40234375,0.025076077646512405,0.1578959442823343,1.3347504346036416,0.84987328475,1.67857710042,0.04866002837796409,0.21995171410477582,stairs down,0.0003342132237351098,0.07772960659997352,0.01822858621478419,-5.795742835967474e-05,0.49684845836673786,1.064814570120218
-1.2147625862244147,-1.68322753906,-0.80944824218,0.052817538132741024,0.22920862501435482,0.14623568920148938,-0.11218261718,0.50708007812,0.03095324861250951,0.17546681644425327,0.031318177566968086,-0.27990722656,0.36486816406,0.013171792854819044,0.11446278926737666,1.2401998789379254,0.81560606733,1.71260554726,0.05657255270916323,0.23721643045034602,stairs down,0.002792400739145,0.2438254300399194,0.05270244343219786,0.00047493848538432865,1.632742174963366,1.2864433528204555
-1.1359552688113017,-1.65051269531,-0.61584472656,0.06394754403918006,0.2521292450403735,0.22884716507745564,-0.19555664062,0.626953125,0.04271394088506787,0.20606114547078058,-0.017236472586686393,-0.32385253906,0.3046875,0.017778573216668234,0.13294124476091473,1.1850980072608286,0.62533094465,1.71284105061,0.06267981981915648,0.24961757412359975,stairs down,0.002854711010568345,0.2450216342500653,0.05327118573338425,0.0008447084186016268,-0.4198244111543068,0.4669284780508206
-0.757113086929847,-1.61999511718,-0.03503417968,0.11099222750717674,0.3323039882880435,0.07826014927270408,-0.2041015625,0.3623046875,0.014997055801382919,0.12214966316187506,-0.5946773606870408,-1.18579101562,0.10180664062,0.09436188593532871,0.30639916406834583,1.0601643298836734,0.77837195518,1.638590564,0.028409509382714106,0.1681206795913926,stairs down,0.004016549876341537,0.2986106354600224,0.06321437554015409,0.0008765788363411121,0.07704612529817645,-0.05913186789162481
-0.9252768462527672,-1.48510742187,-0.21630859375,0.12033338337687126,0.3457984523460758,0.08492101513283017,-0.48559570312,0.60583496093,0.06313618423231106,0.2504777461424687,-0.4455113440916353,-1.12036132812,0.16137695312,0.1275688424042297,0.35604286629657544,1.1491362057194967,0.71642670181,1.56497742705,0.0507163236259256,0.22449354787406095,stairs down,0.0029775529421738455,0.20747043704000134,0.05439509347459437,0.0009247963184066799,-1.0753718894768656,-0.30893596678483853
-1.3038447810872589,-1.65869140625,-0.87646484375,0.030950687610350976,0.17548098905852547,0.1865748681380203,-0.34912109375,0.67980957031,0.07995293183063222,0.2820409179264446,0.03284682840111676,-0.18298339843,0.32983398437,0.013407940059593013,0.11549839587697075,1.3516069009577665,0.90343449051,1.69002327091,0.03290666929607875,0.1809409582312468,stairs down,0.0010885218453309824,0.16817026609999175,0.03290890994442565,0.00019110956820627233,1.5791523241565093,1.1141015935887697
-1.1876484263989204,-1.89611816406,-0.63342285156,0.06381042427642522,0.2518885965016715,0.17916037819295455,-0.05529785156,0.56127929687,0.024341574411469676,0.155574001720739,0.051114169032215905,-0.12524414062,0.29772949218,0.010703002631904655,0.1031609912561461,1.216268845656932,0.63546351875,1.90253432648,0.06457018040142748,0.2533837097692339,stairs down,0.001103206004230965,0.11533321955994325,0.033120051151799786,0.0003029643074326367,-0.42128034202411246,0.9037093698421074
-0.6348936661398914,-1.54553222656,0.05505371093,0.1646429533641828,0.40465807134492554,0.2736060101029348,-0.11657714843,1.29467773437,0.0971883010471417,0.3109020806602008,-0.47844198475510863,-1.21008300781,0.15563964843,0.18083773154525473,0.4240930532169286,1.0396381947523914,0.55249108395,1.74783435147,0.06663469418340094,0.25743455305439716,stairs down,0.0039368874911339434,0.263405782729933,0.06257388723313213,5.347218886041375e-05,-0.44671617724804724,0.3241949324990078
-0.6913838446855064,-1.19702148437,-0.30700683593,0.045161036328633705,0.21183769018940324,0.11614372156664558,-0.3681640625,0.4833984375,0.06014726942917669,0.2444720648841885,-0.7128782634446201,-0.98889160156,-0.3095703125,0.024278081941913453,0.15532038885943356,1.0554360715638604,0.84728641616,1.30348882604,0.014609789803820293,0.12048785324565078,stairs down,0.009451107344598747,0.4849025301399479,0.0969086694238774,0.0008898195037866975,8.417159557442833,2.6771617247539656
0.7630642820846327,0.07385253906,1.18444824218,0.04913696866048678,0.22104153154566825,-0.1296655687220904,-0.63232421875,0.35412597656,0.05101360858096244,0.22522299195043097,-0.4851722501730509,-0.82739257812,0.20458984375,0.07223515568704474,0.26800568550466264,0.9920431098060454,0.34931101934,1.21010096788,0.021858133445544905,0.14742673151837676,Null,0.004200063875943396,0.25332842211003026,0.06462456732159248,-0.0006524806244336308,0.39193926738866525,0.9543865302841984
-0.5582215682302718,-1.45642089843,0.92224121093,0.4912697538081228,0.6989991484214757,0.11116160516989133,-0.95483398437,0.93310546875,0.2522389708455476,0.5008673545696115,-0.10893780252048912,-0.51110839843,0.16174316406,0.02806998364012743,0.1670850962270833,1.0293389380091849,0.42659403715,1.68870045207,0.04392106440315162,0.20900326065920113,Null,0.0280958793251586,0.6399879942699727,0.16716214980917843,0.002048664150535275,1.6675716121535018,1.6915886126513475
-0.9172197895629677,-1.30517578125,-0.52172851562,0.04739164572231384,0.21699284128575913,0.2538101688470323,-0.0146484375,0.82263183593,0.03422857414346821,0.18441188853451174,-0.20287534652006456,-0.91357421875,0.44055175781,0.12515729169022516,0.3526327059310065,1.0604309316090323,0.7553259177,1.46361118595,0.027980371309195957,0.16673287853516025,Null,0.031447496681701465,0.7573387897799648,0.17676144830345686,0.001084926081748704,-0.31462688979750597,0.310123612214026
-1.3082813005952851,-2.25952148437,-0.4853515625,0.1472892844715135,0.3827873137359091,0.2682435030741451,-0.36645507812,1.05810546875,0.09650522530749446,0.3098470561960568,0.06025972514487046,-0.50463867187,0.38452148437,0.027657615799176565,0.16587438648077207,1.374024871433938,0.60860420041,2.48951676444,0.17016876692005314,0.41144509167628773,Null,0.0016015085320270149,0.1898559931099726,0.039915041780743274,0.0003799633236798809,2.064418582209405,-1.410226736436652
-1.3281449881171346,-1.89184570312,-0.88549804687,0.06123787930925336,0.24673824806053657,0.20754237481538013,-0.17114257812,0.59191894531,0.04676594909530039,0.21562111216871072,0.059381853067309934,-0.201171875,0.27429199218,0.012378538567909401,0.11093308547713429,1.3652232012121637,0.89128781634,1.92320655424,0.06680380419457586,0.25770746724332644,Null,0.0007324996261742177,0.12024798970992379,0.026985477624628756,-5.7491901707437e-05,2.684084737679246,1.5944567402469172
-0.8171060771809424,-2.02233886718,0.76147460937,0.4116367711322306,0.6399074970581483,0.1940368332757068,-1.4189453125,1.41076660156,0.2527912449877318,0.5014655826834662,0.08456852298670157,-0.70837402343,1.2353515625,0.20638378483416817,0.45310400732952366,1.1894434304537174,0.59610973301,2.48964651611,0.16480422105832374,0.4048967420632216,Null,0.15065900265993776,2.003470665949976,0.3871307428635643,-0.0017099095997339263,17.74032708639144,4.37616837361593
0.09741906274639248,-0.93298339843,0.89709472656,0.43605617964595017,0.6582524822647345,0.23204793809227844,-0.40832519531,0.98376464843,0.10831236890029389,0.3280653099279778,-0.025593045390379737,-0.84521484375,0.84240722656,0.40947952482108124,0.6378776389394148,1.0010248747842405,0.70181306727,1.35585285867,0.009814098186027112,0.09875213233417256,Null,0.02273622657294041,0.640548276459981,0.15030743961879345,-0.0003192597953011219,3.1183889956601227,1.8777541290805941
-0.6088145266255376,-0.77856445312,-0.42163085937,0.007217823407705178,0.08472908535746869,-0.15422008883258065,-0.34020996093,0.79919433593,0.06209750863235745,0.2485229386979504,0.7440789335482796,0.4189453125,0.88513183593,0.005911413116539935,0.07667875406910832,1.0107055558699463,0.95929980092,1.19590150121,0.001396510729098146,0.03726932528096925,Null,0.011359612485642405,0.5489215961999889,0.10629458735154733,0.0008727141250101256,14.687135203497604,3.8742610139277542
