avg_accX,min_accX,max_accX,var_accX,std_accX,avg_accY,min_accY,max_accY,var_accY,std_accY,avg_accZ,min_accZ,max_accZ,var_accZ,std_accZ,avg_magnitude,min_magnitude,max_magnitude,var_magnitude,std_magnitude,Label,var_pressure,range_pressure,std_pressure,slope_pressure,kurtosis_pressure,skew_pressure
-0.7833308877073575,-1.02978515625,-0.4990234375,0.045356985692645735,0.21241933858310266,0.544121144345803,0.24536132812,0.919921875,0.046660068566502864,0.21544908111478434,-0.2058700008060622,-0.4873046875,0.01989746093,0.020063164971374964,0.14127707085272312,1.0299100732226942,0.83703963985,1.15388508533,0.0028570939667439347,0.05331313507064955,Null,0.00010480862308278254,0.03886225177996039,0.010211051523827014,0.00012043500462636157,-0.7888241133527067,-0.057884890636318825
-0.4061785888633,-1.15893554687,-0.01782226562,0.15224413675241313,0.3892080626973844,0.20985168456945,-0.29272460937,0.8173828125,0.09697276793863553,0.31062502168843764,-0.7369207763634,-1.083984375,-0.21948242187,0.07526687587289878,0.2736613628072737,1.0270497982159,0.71485402667,1.46123671909,0.020202090300502722,0.14177827707022048,Null,0.00541728451488584,0.28201327960005074,0.07341796845671644,-0.0008497313061516031,-0.6845413941140084,0.2873859281528508
-0.9562689208939501,-1.12243652343,-0.79943847656,0.005091932924850385,0.07117916310428307,0.30687255858975,0.21862792968,0.41125488281,0.0025657246161053895,0.05052619115889167,-0.19099365234010002,-0.32946777343,-0.04455566406,0.00542955535746887,0.0735010719696082,1.02629037352125,0.88986217724,1.20789868317,0.004873806604553394,0.06963790326776523,Null,0.000856906781824433,0.12418547208005748,0.029199696024364893,0.00045479549038868194,1.2293033904406272,-1.321228754062957
-0.5699932861302499,-1.10754394531,0.17407226562,0.20914834013841227,0.45618263715064844,0.46792419433255,0.23327636718,0.79638671875,0.022558765491870154,0.14981979730466466,-0.48474609374620004,-1.38598632812,-0.18115234375,0.09574542210919545,0.30865303335403893,1.0348008508306001,0.66055451743,1.56285063147,0.03399662060480537,0.18392019329530226,Null,0.0021790016175708285,0.19183788722000372,0.04656293171056752,-0.00010108848176954748,-0.0019610525466586815,0.49299838499169457
-0.84157348632435,-1.62622070312,0.05065917968,0.1685532656603206,0.40952472371276805,0.6007507324181001,0.17004394531,1.03369140625,0.05568650585808776,0.2353891954376779,-0.22862365722310002,-0.63842773437,0.16162109375,0.030549034427496447,0.17434531612681473,1.14167931434515,0.71955053695,1.78160712777,0.07185865039166336,0.2673936370591212,Null,0.0048911610784963255,0.26215241568002057,0.06976177515734418,0.0009070180460306191,0.12629555133332504,1.0706894501585598
-0.6912066650352,-1.02966308593,-0.48327636718,0.012019574968256971,0.10935939417085158,0.6934735107385,0.21081542968,1.02136230468,0.023140253145827856,0.15173843244247226,-0.16233215331715,-0.5732421875,0.09509277343,0.0183352428818193,0.13506874793011966,1.01230481910645,0.59481388697,1.33491326269,0.013558231901693772,0.11614835660561583,Null,0.00395015902428834,0.22250804093005172,0.06269296794032723,-0.0003738920811387432,-0.6624911720075812,0.5945157574408513
-0.5840893554652,-0.61730957031,-0.56201171875,0.00014847697324482285,0.012154611815216425,0.8356744384718999,0.81091308593,0.85974121093,0.00010781957539146653,0.010357628952347597,-0.10700439452689998,-0.15307617187,-0.06970214843,0.00044596664871647003,0.021065061487517373,1.0255553813515,0.99544456869,1.04148625083,7.631964388584952e-05,0.008714243837902418,Null,7.385445928088062e-05,0.031423973440041664,0.008572350143599842,-6.58824548310907e-05,0.2019001574255812,1.0543492444399307
-0.6172973019362311,-0.6904296875,-0.55212402343,0.001516230930402685,0.03884085065361132,0.8082496221304523,0.73779296875,0.87585449218,0.0013194249350148089,0.036232508317248176,-0.10530987456427135,-0.18237304687,-0.04443359375,0.001202115349531061,0.03458431102219836,1.0242296129477892,0.94659958853,1.074264782,0.00038670444071897767,0.019615330798215078,lift up,0.00017213294680320734,0.05463769865991708,0.013086938416634318,9.562368315980877e-05,-0.39001840784491426,0.5761956227439312
-0.6091048342287816,-0.837890625,-0.21740722656,0.008558147039145649,0.09227515737395717,0.7281091370519289,0.04028320312,0.98571777343,0.0799915058844757,0.28210894638641826,-0.21222636420873092,-0.79821777343,-0.05249023437,0.06875684071090128,0.2615488887663392,1.0466678179477158,0.69364156219,1.18178204407,0.0072227704029849855,0.08477090652949736,lift up,0.008061639981106643,0.29573838473004344,0.08955846107848044,-0.001301313962082447,0.4387121313040394,-1.3764711655823076
-0.6886716233042784,-0.92419433593,-0.55749511718,0.009420664248626085,0.0968096282589349,0.5438452651771133,0.00012207031,0.96618652343,0.05359637140320327,0.23091145802561783,-0.2816092894229381,-0.79406738281,0.14501953125,0.08798639147104001,0.29585951627533263,0.9951339225574227,0.82614797643,1.26217271769,0.009321653973783308,0.09629955457338236,lift up,0.007025791487096585,0.30578263610004797,0.08360368453040813,-0.001034931971158348,-0.7118154223607989,0.4202314145142269
-0.9432548360592552,-1.14807128906,-0.70690917968,0.0101148783462668,0.10030491414617614,0.3685685827335638,0.16979980468,0.71618652343,0.016126454074299947,0.12665178665643229,-0.1274647814130319,-0.22692871093,0.19201660156,0.00935400943560922,0.09645856139436704,1.0344015041455852,0.85513743425,1.26657286812,0.007413943022872501,0.08587495068836758,Null,0.0003058002683723801,0.09672584777990778,0.01744057542629218,5.930266531367359e-05,9.307906655390864,2.73284087614208
-0.9771597257188172,-1.2626953125,-0.64270019531,0.018360270346502953,0.13513533666516606,0.3265407111018279,0.05395507812,0.50146484375,0.008792820002170828,0.09351762815829272,-0.1917947748616129,-0.51452636718,-0.01306152343,0.009855534561920377,0.09900781694878347,1.0570482379255912,0.72387952627,1.31752546144,0.017809628434849012,0.133093492494333,Null,0.0009486721667833857,0.13696376368000074,0.030717613494376916,-0.00017650340985404125,2.4174898101631808,1.5312193100515255
-0.9586668587740982,-1.11547851562,-0.68139648437,0.008879556587217778,0.09397358362898858,0.35639595073049174,0.01403808593,0.91687011718,0.022767781562546736,0.15047713266688587,-0.16474022369928962,-0.36486816406,0.14221191406,0.012851354287512757,0.1130536523417071,1.0536644760347542,0.82265999368,1.25337237582,0.007286077872076834,0.0851249859847042,Null,0.0006325359888378215,0.131582572190041,0.025081457454153258,3.267117716174038e-05,4.270466680532853,1.8910728583735756
-1.0060867477207693,-1.40563964843,-0.64868164062,0.03466241955475248,0.18566627776754732,0.368060101515934,0.2412109375,0.89233398437,0.014454476987669114,0.1198960248900695,-0.1935344318736264,-0.33642578125,0.03625488281,0.004779690265968249,0.0689451102801341,1.0959052200156592,0.73476896472,1.59401587063,0.03793499307626189,0.19423325937740515,Null,0.0002811455246918081,0.07874817289007296,0.016721266969390605,0.0002007274118918253,5.178299649268766,2.1932808254573275
0.2676988237339326,-1.43505859375,0.83630371093,0.390104681584955,0.6228266871692382,0.7129057123389887,0.26879882812,1.32788085937,0.04524787008438988,0.21211711050045406,-0.1024423663522472,-0.67932128906,0.39892578125,0.03978666640417671,0.1989048662210164,1.0049177355626968,0.56743851353,1.5562397765,0.05330134044738987,0.2302214036846691,stairs down,0.003296848472758056,0.23481167344004916,0.05725667517525432,0.0004870505254733428,2.2363468474254837,1.4614871458410146
-0.9863508838683617,-1.74060058593,-0.5419921875,0.07256055952171163,0.26860866117410875,0.34043272201265534,0.10021972656,0.6123046875,0.014513337440317298,0.12013051728679246,-0.2012153237518079,-0.46520996093,0.1181640625,0.013086556928899094,0.11407287836737665,1.0756539486346894,0.59244742061,1.84132336287,0.07224141282271597,0.26801729281418835,stairs down,0.004891939329082232,0.30343726030002927,0.06974454282434349,0.0012129788430575183,-0.4676673950762811,0.3720086394457327
-0.9266608537909714,-1.29724121093,-0.43493652343,0.03721133992855124,0.1923504710168085,0.3627253069155999,0.09106445312,0.82177734375,0.015768059474627335,0.12521164593451148,-0.2694287109326857,-0.57092285156,-0.05883789062,0.012091621886749683,0.10964728407279263,1.0425034763383998,0.61899184596,1.42392434212,0.04098168627190873,0.20186011296810924,stairs down,0.0015180102807506625,0.151242226420095,0.038850172924830464,0.0006703101124634586,-0.9948893610327287,-0.01899692972417889
-0.9887257835036993,-1.23706054687,-0.63879394531,0.02978188317342242,0.17207479059903927,0.3484705224849711,0.24877929687,0.46850585937,0.0019386572043429704,0.04390274585188502,-0.2418346956250867,-0.33630371093,-0.11511230468,0.003128946946199849,0.05577508895256826,1.0779528651208672,0.71965983067,1.32150105582,0.030335415014815816,0.1736665361981893,stairs down,5.8553544914735255e-05,0.031642566710047504,0.007629881068374543,6.061457841468655e-05,-0.45714028543805796,-0.006242142838648055
-0.9517714556490001,-1.4580078125,-0.33642578125,0.07991537642837779,0.2818604015799295,0.4245591107502353,0.17419433593,0.81652832031,0.022525899507146348,0.14964422546803413,-0.24390222885641175,-0.57800292968,-0.04895019531,0.01754336787614684,0.13206124183318302,1.0906435534813528,0.43411270222,1.6832908349,0.07582918461574627,0.2745598852501851,stairs down,0.0007162294028895072,0.10113936423999803,0.026683633349955604,0.0001542682393937231,0.9238128103758148,1.2749678362249535
-0.8832798342694083,-1.52087402343,-0.11767578125,0.0891899438149932,0.2977619731734711,0.44395166882,0.1591796875,0.97387695312,0.0331532968740461,0.18154096925972882,-0.23220301520520711,-0.54553222656,-0.03479003906,0.01630850116352392,0.12732635688120178,1.0421530658172191,0.21799775617,1.61850689771,0.08343660260708656,0.2879980814160961,stairs down,0.00266470139943494,0.19592520458002127,0.05146779512989612,0.0008179064850770784,-0.8753225980592174,0.3824992400645403
-0.594964855442994,-1.44116210937,0.71826171875,0.3359025890553194,0.57783319072764,0.572090925567425,-0.02331542968,1.47692871093,0.11162528081030712,0.33310188524707507,-0.1906380110839521,-0.55895996093,0.03796386718,0.016586195329307808,0.12840123361713382,1.0454711762916764,0.47673066095,1.83018544634,0.0864567211167508,0.29315357101676937,stairs down,0.003817206302340759,0.2334605192698973,0.06159828552461709,0.0010731268538666599,-0.9063738974176272,-0.20891144911607823
0.06928160132475612,-0.66955566406,0.90466308593,0.2023541273218268,0.4484643360311003,0.8111691358577438,0.455078125,1.1865234375,0.04401878239545206,0.20916590349701764,-0.3216835580196341,-0.91467285156,0.21862792968,0.08574576531297838,0.29192965810376675,1.0348503067406098,0.73116657767,1.34535779245,0.025610182196362782,0.15954316829254703,stairs down,0.0032596089916332857,0.21436651331998746,0.05691865535173996,9.245941519525958e-05,0.08950328724177625,0.8615361741825884
-0.4064301281426219,-1.42858886718,0.84606933593,0.5342278848811862,0.7286771560699925,0.5822351967374999,0.20886230468,1.09643554687,0.06148343603867596,0.24720140986337463,-0.18520969297536585,-0.78674316406,0.34582519531,0.04770151509456307,0.2177398727786094,1.0531487985756096,0.61175098358,1.59229998916,0.06927551047919014,0.2623987401454641,stairs down,0.0011090665873875988,0.15793899542006784,0.03320096363428314,-5.343034385251883e-05,1.0965726605926855,0.8565267274618169
-0.98821720075821,-1.59509277343,-0.44982910156,0.056260317230786644,0.23645936505445206,0.3553956585134568,0.16552734375,0.85717773437,0.014638299242186754,0.120614838930877,-0.18528314283962963,-0.44262695312,-0.01635742187,0.010109744255895087,0.10023641268099628,1.0806350247243828,0.48477127416,1.61995788674,0.05025562535448522,0.2234846872716107,stairs down,0.0011780445696636084,0.10480279218995747,0.03421655578231036,0.0006234242189873691,-1.6010687293280437,0.08059218338204192
-0.8570549011198125,-1.61499023437,0.56311035156,0.15245487489258627,0.38923261929662006,0.4999107360810001,0.16796875,1.55944824218,0.07947688333670368,0.28103407767715516,-0.17071456908793753,-0.43725585937,0.04443359375,0.016413542458705858,0.12771436026672547,1.0655007036248125,0.40851785308,1.89458165445,0.12588548912233835,0.3536929527363017,stairs down,0.008765039795122545,0.3943886821899696,0.09332876457128868,0.0017687733378502586,0.22164025162153544,0.752880158574469
0.24863726537729558,-1.66101074218,1.18176269531,0.5664448645376583,0.7502548355191131,0.6961861856291823,0.2275390625,1.623046875,0.09846831340149535,0.3128082732808269,-0.0640162821825786,-0.427734375,0.38122558593,0.02586803847076111,0.16032886953043507,1.069272772444214,0.59143125614,2.04356971348,0.09427914836852863,0.3060820114770854,stairs down,0.0029747008098127093,0.17448019985999963,0.054369035302165344,0.0010856464911842127,-1.3032555363934257,-0.04639474982343142
-0.9936033601171337,-1.34777832031,-0.65942382812,0.02557945879224317,0.15942563251598094,0.3314807673135668,0.19250488281,0.50537109375,0.004848524472993354,0.06940923678812007,-0.2349122648746497,-0.31518554687,-0.0615234375,0.002614139719591833,0.05096556826063518,1.0759645334378982,0.72106145205,1.46176692041,0.026615493561335742,0.16262216369437266,stairs down,0.00010215373393295476,0.04534522841004218,0.010074873359366219,3.39748414537022e-05,0.45364111483901226,0.48388408031127955
-0.9462147248058974,-1.28491210937,-0.45715332031,0.03494796763989083,0.18634361326941629,0.3204275277905128,0.11669921875,0.60290527343,0.009107322123728577,0.09512592629617163,-0.19816941481019232,-0.47436523437,0.03857421875,0.011386070478091388,0.10636297686141344,1.0276816696807052,0.63928787901,1.43809504217,0.036457276169353584,0.19032492133477552,stairs down,0.000816460293851433,0.11919391020001058,0.02848203949893778,0.0003639741759372596,1.8920775016737599,1.5296451621812752
-0.9874560863909739,-1.82788085937,-0.45373535156,0.07981724132419167,0.2816006881194704,0.4417161817634415,0.09228515625,0.89294433593,0.03540705974827826,0.18755570845987826,-0.21694748122519478,-0.58923339843,-0.01525878906,0.012366667446631147,0.110843874035796,1.1207688795225323,0.63760228084,1.94506608022,0.08846292641030268,0.296459932913746,stairs down,0.006068978972054064,0.23879235025992784,0.07765030597293275,0.0016461576039583261,-1.3661422075451541,0.011662230928983254
0.015165441175555521,-1.39440917968,0.84033203125,0.566400324776068,0.7501322295895804,0.6319907194608496,0.15307617187,1.29113769531,0.0740123573508472,0.27116160578726706,-0.1818903505382353,-0.50085449218,0.21398925781,0.01985389726306827,0.14044263323033052,1.0118326003306537,0.41654426048,1.62986875588,0.06787978267919603,0.2596846625599488,stairs down,0.0029523931046090772,0.20464474550999512,0.05415806881389742,0.001062594271601528,-0.37649232910957586,-0.654894671514628
-0.6022165879822994,-1.29382324218,0.70837402343,0.48995770056776833,0.6980956996804419,0.5218375302854545,0.22106933593,1.27075195312,0.057981834605664286,0.24014947703254108,-0.15819006934946525,-0.32385253906,0.10144042968,0.00948216180143618,0.0971156787230307,1.0875580319521392,0.6396596893,1.40305748524,0.03463323099775357,0.18560179566457677,stairs down,0.0009575968422196027,0.11948251553997125,0.030862209957991594,0.0004907830658334141,0.10785442373876819,-0.8849724858831823
-0.9770882346377842,-1.32092285156,-0.62475585937,0.031535718222335966,0.17707777388809584,0.3155774203178409,0.14587402343,0.412109375,0.003836588112128641,0.06176398073340967,-0.21098535710732955,-0.32727050781,-0.05383300781,0.0028784365269721368,0.053498427771084794,1.0512996598271591,0.68711140877,1.35147837007,0.03178839763287894,0.17778577484500152,stairs down,8.339558250785521e-05,0.03272617821994572,0.009106137708758788,1.5635914272853845e-05,-1.0321886693656002,-0.21811037370601696
-1.0259892032798985,-1.8994140625,-0.28540039062,0.10015778434902618,0.3156728832193959,0.31197082209355326,0.01000976562,0.73010253906,0.028883349674118958,0.16951912483824785,-0.18863952946238577,-0.71337890625,0.08605957031,0.02931067179399882,0.17076851776012075,1.1088297663256854,0.30579568387,2.01945963645,0.11418868802295598,0.3370594161460071,stairs down,0.003650107740086817,0.240539862300011,0.060262586024838805,0.0009919040020250453,-0.6903012556767072,0.16490399688611973
-0.84283888483247,-1.90832519531,0.29968261718,0.1781037586450473,0.4207503350400831,0.5687542651034939,0.13073730468,1.06811523437,0.06217772597962178,0.2486024162498963,-0.21950595349861446,-0.67700195312,0.04553222656,0.02382087976901888,0.15387456090368512,1.1085814911906022,0.50670088363,2.16953751106,0.11630073399870877,0.3400001870108181,stairs down,0.018383834683008905,0.5662261034199219,0.13517798892919877,0.00265802304032,-0.22883267701476306,0.6068411166853384
-0.4718391664554301,-1.33947753906,0.99340820312,0.7056242990704968,0.8377533169395607,0.4789008684023656,0.185546875,1.3154296875,0.07320418571129376,0.2698344211185312,-0.15546376217860217,-0.45690917968,0.35290527343,0.031067294513761487,0.1757847150597393,1.1061487562223118,0.61539848197,1.68575124286,0.05843783403337421,0.24108847365639233,Null,0.0029840651308390602,0.19928627049000625,0.05447955368687018,0.0008396170440462339,-0.3477389168073861,-0.732983651935536
-0.9824170473569491,-1.2919921875,-0.75134277343,0.008361107477088039,0.09118042323732249,0.3101510085593221,0.15966796875,0.62670898437,0.008657648190287059,0.09278326855460131,-0.18614826094248585,-0.34094238281,0.0791015625,0.007475118410578357,0.0862141873659664,1.0535306382407907,0.78017208123,1.35119670261,0.01047594914882736,0.10206254452757954,Null,0.0004494453143381575,0.09910511575003511,0.021140153151623573,-0.0003491607538842759,-0.04843138512824474,0.09686272508602102
-0.964532968944847,-0.98596191406,-0.95568847656,3.197594993637308e-05,0.00564028433101177,0.27533768634040817,0.25317382812,0.29455566406,0.00011710036548951825,0.010793651589947861,-0.15941012635188775,-0.19421386718,-0.11999511718,0.00025732544222582576,0.016000392411328862,1.015831422365714,1.00411550218,1.03562262483,3.731809692085385e-05,0.006093250238351944,Null,0.001259144817602598,0.1091462214699277,0.03539379337326706,-0.0005941800773120852,-1.0184013994088423,0.6451536712998949
-0.9069480667532934,-1.04321289062,-0.50610351562,0.015618472732387737,0.12459915306121082,0.35393519601065865,0.2119140625,0.59057617187,0.011574137200916991,0.10726057519020238,-0.25308611292658684,-0.49865722656,-0.06433105468,0.018537157430620187,0.1357429795161498,1.026171052342395,0.8089731957,1.17880555842,0.004332349289237039,0.06562322056958377,Null,8.024282481605735e-05,0.032767067969984964,0.00893097580665601,-2.3311858717764276e-05,-0.4625799130768229,0.45707048081436624
-0.38831862124491623,-1.27233886718,0.76379394531,0.40280979762386293,0.6328976722653712,0.6119057426201117,0.25439453125,1.03747558593,0.046856802762726614,0.2158588263539162,0.07368136784256983,-0.45581054687,0.68920898437,0.11169556612118675,0.3332740142061645,1.0289245836313408,0.66201868251,1.40627349198,0.030358801890408384,0.17375039466202824,Null,0.0028238969385889524,0.21001724586994897,0.05299170669112457,-0.0006562185608718154,1.2795430712184999,1.39358923101866
-0.947286854616087,-1.7265625,-0.14013671875,0.11654630648915547,0.3404598399951755,0.4691241720407609,0.21081542968,0.95092773437,0.04237916554405678,0.20530183630982676,-0.22415957243152176,-0.58935546875,-0.0087890625,0.015573907722230478,0.12445588342618548,1.1143295301646194,0.49249392764,1.96929367445,0.10004180486007724,0.3154331932420575,Null,0.00042214152834240705,0.09908729903008862,0.020490175228771557,-4.361735467336712e-05,1.4253573559360948,-0.9258224552901556
-0.7332992553671875,-0.97192382812,-0.181640625,0.045611179877345726,0.21301084866461117,0.5471706390346354,0.35803222656,0.83544921875,0.020576258200866844,0.14307022817275436,-0.3868465423547396,-0.68225097656,-0.18420410156,0.01769717299623933,0.13268383556491445,1.0337222820164582,0.90700009971,1.14958692626,0.0022352650017427303,0.04715530719362689,Null,0.00044699872115959156,0.06319669261006311,0.021087214202454973,0.0002623291738946111,-1.3445199475432736,0.053318949744609705
-0.8880799759231394,-1.12719726562,-0.64538574218,0.013545850047400228,0.11604781387542025,0.3943282726159302,0.27258300781,0.54345703125,0.005220706564171345,0.07204410884333856,-0.27487750385755816,-0.5634765625,-0.0537109375,0.02507653761646184,0.15789472376590144,1.0288625203988953,0.8817470079,1.20545835385,0.0047964654101372494,0.0690548983297646,Null,0.00013413096310410443,0.041330340130002696,0.011547776059625793,9.786894792462008e-05,-1.0954248256404782,-0.1949796838732284
-0.5891145920334759,-1.00708007812,-0.32446289062,0.023166374883686194,0.15179753135680246,0.715919535424278,0.3984375,0.91528320312,0.01582596735042242,0.1254644830578611,-0.4012927703005347,-0.69970703125,-0.0869140625,0.02106877909117303,0.1447622596649617,1.0349614227922461,0.85024658511,1.35549688172,0.009277073453525181,0.09605968683613919,Null,0.010545005900381283,0.3733392520999814,0.10241394189511939,-0.0008753042328644017,-0.12601353546235972,0.6957602666919628
-0.4376028682373034,-0.47180175781,-0.34240722656,0.0009349942877189674,0.030491662972387548,0.8656355611353372,0.79406738281,0.994140625,0.0009156829546413511,0.030175133278567655,-0.3598173334324157,-0.51171875,-0.32312011718,0.001584838994194961,0.039698052903636635,1.035701070123708,0.96655445334,1.16779084908,0.0010350321472843969,0.03208141767347731,Null,0.000820897556813132,0.10822195510002075,0.028570715300567675,0.0004957432640706507,1.1196392042749501,-1.3176133613038963
-0.463187081470306,-0.52368164062,-0.38110351562,0.0007341563701423674,0.027026110973951373,0.8348002531053572,0.658203125,0.92602539062,0.0038565278349825013,0.061942325372552176,-0.38382331692081634,-0.5615234375,-0.30944824218,0.007890008165765301,0.08859883194524867,1.0347058660036224,0.95864685862,1.09189705568,0.0005577053023446243,0.023555463636459807,Null,3.98307794862847e-05,0.03061311892008689,0.006295042591087019,3.6653848572429076e-05,0.8669826908719309,0.1126346816692276
-0.42650563131119756,-0.48547363281,-0.36450195312,0.0013912266524603184,0.037187309044116004,0.8277273577807185,0.64660644531,0.8955078125,0.0026508460137884206,0.05133198500315897,-0.42770952235802395,-0.60852050781,-0.35400390625,0.006016074451158393,0.07733078334820659,1.0290656698321556,0.93675509104,1.10893472477,0.0010028387631282735,0.0315726739538255,lift up,0.00017280863263585905,0.04617534031001469,0.013106252340181255,-0.00019906758096224962,-0.6685162271594614,0.6246136280963221
-0.36716320739875613,-0.48815917968,0.19836425781,0.043158446701413784,0.20722868542049927,0.8988984520721393,0.75891113281,1.12145996093,0.004149861106621481,0.06425896849050847,-0.25330197158487566,-0.44958496093,0.34924316406,0.05448058273537804,0.23282941193087625,1.0516096921768656,0.85857064144,1.15901906058,0.002496886316226755,0.04984439784213997,lift up,0.006074286853290265,0.25409776691992647,0.07774359472449696,-0.001292163682089432,-0.7959536612377467,-0.6140740415248299
-0.35931693412027027,-0.60314941406,0.22351074218,0.10448592286710694,0.3223680103466414,0.8854967271920001,0.75366210937,1.20458984375,0.009678474261339455,0.09811298682769337,-0.18152053420183786,-0.36145019531,-0.07983398437,0.002899603590325375,0.05370223512485022,1.0289794025406487,0.85196856345,1.28179915801,0.00378894034350416,0.0613877804199714,lift up,0.015199479163500925,0.43750025268002446,0.12295251041223676,-0.0022607479281191575,-1.3019042640373681,0.25579131878334704
-0.5956095819852717,-0.62756347656,-0.56970214843,0.0001339833390412942,0.011543620260577599,0.7992560345152174,0.73937988281,0.85668945312,0.0006224729645540099,0.024881518428582057,-0.2218004309565761,-0.349609375,-0.13464355468,0.0033792874509766782,0.05797345736031556,1.0230319858177719,0.97804286142,1.06747971467,0.00027674094412281534,0.016590265737853105,lift up,0.014798117551060405,0.3915248801499729,0.12131649928658701,-0.002274822307400952,-1.2685799557666315,-0.047068761557743234
-0.5936347113675555,-0.63244628906,-0.54577636718,0.0003209070324076215,0.017864048129159094,0.7316894531213889,0.630859375,0.77465820312,0.0014522508535946912,0.038002405098847926,-0.33305257161111107,-0.43811035156,-0.27893066406,0.0013525417564036865,0.036674618410213584,1.0004437675122777,0.93017887305,1.04514517849,0.0009213631835658246,0.03026953087202841,lift up,0.014133076096396947,0.3873464616200408,0.11855192536172712,-0.0022252304465709906,-1.3570409701776767,0.2510134633803182
-0.4035110890515847,-0.64697265625,0.30590820312,0.1053540325921758,0.3236948060998874,0.7917974086369398,0.66259765625,1.10620117187,0.01026745485047915,0.1010512174089001,-0.29032789553120214,-0.60266113281,0.24072265625,0.037201841819203364,0.19235007945434535,1.0092667746154098,0.74806963335,1.20880513256,0.007464217069897221,0.08615932334040825,lift up,0.0010538123428491702,0.11231058943997141,0.03237365912986284,-0.0003636049533134611,-0.582520176629528,0.7194085254289584
-0.5117332972356995,-0.61206054687,-0.31689453125,0.007574884706764318,0.0868080445550721,0.7995965987255959,0.66040039062,1.01696777343,0.005172875877812505,0.07173613742127713,-0.3268499028464767,-0.62902832031,-0.15563964843,0.023574640639061267,0.153142065553419,1.020296752120829,0.86450483164,1.21041945789,0.003118270009579734,0.0556966172235968,lift up,0.0011656146671103276,0.14238389727995582,0.034052536071144474,0.0003676845443635842,-0.08521506955762836,-0.27278136929139096
-0.8039718939296938,-1.02893066406,-0.36389160156,0.03648876481203789,0.1905324057598327,0.5006458515993367,0.0546875,1.02258300781,0.04782829654699071,0.21813820074859103,-0.21593989157892854,-0.65209960937,0.109375,0.03456762814440611,0.18544881421753484,1.0215226797340817,0.71420887337,1.33839385321,0.01851110589914296,0.1357080008005799,Null,0.0004094790442073649,0.0874333090100663,0.020183901144486132,-2.8829985455417373e-05,0.005469106740972229,-0.2572163088234627
-1.0051755114781766,-1.24829101562,-0.61987304687,0.017956474039339365,0.13363108545711955,0.3550364457403867,0.228515625,0.50854492187,0.004127914287949847,0.06407111776504942,-0.10294438988917128,-0.40808105468,0.12915039062,0.017535260270563107,0.13205445990032114,1.0810357935442543,0.69743545985,1.36774825449,0.01885038101809629,0.1369168918235259,Null,0.0002099338783891502,0.05878272576001109,0.01444901459295554,0.00019812700666141256,0.19327786186828977,-0.705486358625636
-0.995968484125602,-1.25634765625,-0.66369628906,0.02448147463727147,0.15605543687225532,0.3382395799212565,0.04516601562,0.58129882812,0.009614466772465293,0.09779636624178,-0.14390619886722514,-0.26330566406,-0.04455566406,0.003880890280754477,0.062133497273797814,1.0672203203541364,0.70171478632,1.30528977478,0.026023264259961636,0.16089442750792582,Null,0.00011976092953316949,0.04557654619998175,0.010914848096043178,-0.00010185674799259243,-0.07064582743583037,0.16146029095495318
-0.8649050394656771,-1.7314453125,-0.34118652343,0.08069039845984223,0.28331984746548183,0.5059655507376563,-0.0009765625,1.14392089843,0.058316863155869834,0.24085914866078822,-0.23696899413760417,-0.47351074218,-0.02294921875,0.013344547823433039,0.11521738137184855,1.0558001230067187,0.44878135616,1.86152199599,0.09756875127960936,0.3115454713200435,stairs down,0.004295519958277661,0.3061564195199935,0.0653693158790496,0.0008438020419176822,1.1004801711444046,0.8179439217766835
-0.9982655571068447,-1.85620117187,-0.33813476562,0.07802944292822298,0.278589614271501,0.45254075973026725,0.19018554687,0.9921875,0.03289975429791581,0.18089726306098083,-0.18323537244737967,-0.40844726562,-0.01159667968,0.00886344823393889,0.09389382362562951,1.1200924996844919,0.45171454024,2.13646359288,0.09431384537116558,0.3062833545213995,stairs down,0.004510120761700414,0.2699119750200225,0.06697762662902514,0.0011112367191409807,-0.6210577463855369,-0.5192539300795608
-1.007600233287111,-1.681640625,-0.4814453125,0.053822296518832746,0.23135099688653774,0.36793348523933334,0.12683105468,0.80065917968,0.017522660528658404,0.13200497117385504,-0.19587402343322222,-0.5419921875,-0.03759765625,0.011844357565012578,0.10852905407558054,1.0996406380734998,0.49928878328,1.78811262559,0.0628667915372307,0.2500350607099854,Null,0.001092689199932669,0.11493468249000216,0.032963900017708575,0.0005264565719302074,-0.9209264489199263,-0.43180008543000215
-0.9836377230524433,-1.27416992187,-0.67932128906,0.008789454419329745,0.09348536964360646,0.3383497758313636,0.19384765625,0.60144042968,0.007754940303595955,0.08781160596857382,-0.1314752752096591,-0.23962402343,0.00244140625,0.0042819433242360806,0.06525039540725344,1.0550517504349999,0.75986421234,1.32200528713,0.008635820072105857,0.09266473392076004,Null,4.454584543609856e-05,0.034655655180017675,0.006655279411232505,6.505805442494083e-05,-0.04788066579931938,0.07442649705456052
-0.9677440622872192,-1.09777832031,-0.86804199218,0.001781543109622969,0.042095322081227876,0.27534297187951867,0.04516601562,0.37939453125,0.0031781760998078135,0.05622437643665952,-0.15976523332673798,-0.21508789062,-0.02136230468,0.0018450175785148814,0.04283866447908595,1.0209629602567916,0.91366227672,1.17668214293,0.0022719501432900135,0.047537360857362654,Null,1.956443821736038e-05,0.02377807378002217,0.004411328094020714,-2.4401179784344966e-05,2.152360779460853,-0.8431385154804654
-0.31312290736519993,-1.37634277343,0.92163085937,0.7231033586638757,0.8479217767409388,0.5678550502201714,0.18017578125,1.16174316406,0.05258783389618436,0.22866423416924248,-0.10289620535554286,-0.55151367187,0.35339355468,0.03392846608508117,0.18366978286050092,1.0873143408254287,0.58031089042,1.5709558801,0.05414311632012788,0.23202096259608282,stairs up,0.0015812714517396556,0.1609303026999669,0.039651426391399486,-0.0006075778359316672,-0.10370918911791183,0.7847594941677491
-1.000006921509536,-1.2265625,-0.77673339843,0.011083692186970449,0.1050074271326414,0.3371235955590722,0.23193359375,0.45861816406,0.0038792209464626587,0.062122660617543915,-0.15978060063298968,-0.35363769531,-0.02770996093,0.007103558019010099,0.08406510417861619,1.0712720119565464,0.82762228804,1.27778867969,0.011582908708347679,0.10734618294730464,stairs up,0.001337705414111159,0.14002749793996827,0.036480268987202205,-0.0006374295094268732,-1.012021003338616,0.1315244764403543
-0.9789742507462148,-1.2265625,-0.74548339843,0.014218484691209681,0.1189039707883023,0.2999405510640113,0.09851074218,0.47155761718,0.009678745451049346,0.09810231023456992,-0.19120831677813563,-0.35729980468,0.06335449218,0.01081924103490667,0.1037213352176987,1.0513157923237286,0.83267497739,1.26910581649,0.014251492844177323,0.11904190831574046,stairs up,0.0013817018055065898,0.12635036561005109,0.03706609745598695,-0.0007073357756748366,-1.23279926832166,0.25377478029337375
-0.928432009994715,-1.26342773437,-0.59020996093,0.025425673099629047,0.1590406673174219,0.34334836969383414,0.13244628906,0.65588378906,0.01663628311762179,0.12864713272941375,-0.19300897627497407,-0.32397460937,-0.01782226562,0.006159838115238237,0.07828104403732611,1.021999914118549,0.71977990417,1.30183952973,0.020722049224780655,0.14357813584972579,stairs up,0.0004330897073450436,0.07502580159996342,0.02075682343770561,-0.0003349926255050252,-1.0361520505538229,0.36663828484337374
-0.9661689845957471,-1.29516601562,-0.59020996093,0.030158862851162732,0.1731633219049795,0.3478519834281034,0.13732910156,0.49145507812,0.006038493989390209,0.07748412741294464,-0.21074316967086215,-0.49426269531,-0.08715820312,0.006559517517041174,0.08075778068091306,1.054664012946839,0.68699138424,1.40455685518,0.03039208237296132,0.17383157145031747,stairs up,0.00018862984590606332,0.048074037950073034,0.013694734985821761,1.1336220463034445e-05,-0.7846329968435164,0.465058362690174
-0.992202838674293,-1.1904296875,-0.73376464843,0.014577522480591036,0.12042092996386804,0.31064529818047126,0.17114257812,0.45068359375,0.005000623576935044,0.0705297263688378,-0.18760864896581153,-0.40307617187,-0.01208496093,0.0078087546865974276,0.08813552719651063,1.0619725286095814,0.794271639,1.27574853125,0.015704062048326774,0.1249873666743102,stairs up,8.590590595409555e-05,0.045176021489965024,0.009244248850662483,-6.1414160562751e-05,0.208615755993522,0.08147627389910794
-1.0066386975704211,-1.31237792968,-0.73388671875,0.014043676865108302,0.11819375100378436,0.3591861122496841,0.04443359375,0.63012695312,0.01376139416528038,0.11699985373895473,-0.18348195928900002,-0.46313476562,0.046875,0.012745449203340213,0.1125982588308704,1.0950646042929473,0.76044926617,1.3736147893,0.017263228024901746,0.13104338567830826,stairs up,0.0012920496058061077,0.15338751621993651,0.03585037440143293,-0.000625543739426218,-0.7458159361156871,0.17619989754985213
-0.9964075465619775,-1.31530761718,-0.70812988281,0.021943964687862017,0.1477159012639996,0.3489507470393785,0.19396972656,0.5322265625,0.006410663635536917,0.07984012272609596,-0.18997795837333334,-0.37963867187,-0.02355957031,0.005847822293163771,0.07625472935585437,1.0777145341535592,0.77423233074,1.39528559736,0.02335881740052128,0.15240356518383788,stairs up,0.0018665973815432813,0.13919093521008108,0.043081917710623766,-0.0008002315318518859,-1.3867283724538377,0.07770534065991767
-0.9938571068512365,-1.41040039062,-0.57263183593,0.030627635737141324,0.17453644613339966,0.3569795341867742,0.1201171875,0.638671875,0.01784542812348042,0.13322719302577166,-0.19643410302892475,-0.38891601562,0.02429199218,0.014722604720106617,0.12101012739142472,1.0908187019088171,0.8210330251,1.46531639611,0.026887717608834308,0.16353336047204997,stairs up,0.0010829738857583815,0.11902687547001278,0.03281998545874706,-0.000578970608740536,-0.8824477008517526,0.27632412103983706
-0.9554203333442134,-1.36437988281,-0.43359375,0.041656276441756325,0.20352457447886396,0.36647770913387634,0.23486328125,0.53393554687,0.004285459370444425,0.06527927508791535,-0.20170061775387638,-0.3681640625,-0.06982421875,0.0034472736467254204,0.05854832995777882,1.0484089722389325,0.56615447663,1.43428154019,0.03798060810798966,0.19433793738005914,stairs up,0.0005864567245402139,0.08903581076003775,0.02414874787314137,-0.00039773852215003785,-1.2836839642298963,0.2848983951433636
-0.9835415757813706,-1.24548339843,-0.68286132812,0.018630588095201676,0.1361470402984511,0.33263044792644664,0.23608398437,0.43383789062,0.00201662282816792,0.0447927021295383,-0.17106698127705586,-0.30895996093,-0.02697753906,0.005316296588298867,0.07272764475219105,1.055457101273401,0.74575876035,1.30171382683,0.01920044286848639,0.13821352571832105,stairs up,5.952040192219677e-05,0.03136211353000817,0.007695340661873725,-1.6000566141884023e-05,-0.3539404958845407,-0.009398826209867348
-0.984586784634759,-1.20703125,-0.71728515625,0.017411894901072547,0.13155608677645272,0.3143729703938555,0.14306640625,0.41711425781,0.004677669697450004,0.06818717595217473,-0.1510281850014458,-0.26672363281,-0.05358886718,0.003359169919641108,0.057783509380010624,1.0487454854157832,0.8076107297,1.26514610013,0.01593599174482136,0.12585702918212932,stairs up,6.487353309843738e-05,0.03818152962003296,0.00803011386483291,-8.297001936937343e-05,-0.32779585964791425,-0.19588749175845085
-1.0088698069220834,-1.298828125,-0.67907714843,0.016029756184311114,0.12627853289792038,0.3580131530722917,0.14135742187,0.60974121093,0.009645203747646979,0.0979539091178158,-0.19222958882343752,-0.3701171875,0.02868652343,0.014242954161555629,0.11903265143913605,1.0979990624621874,0.7930759489,1.39125323302,0.01714126445074778,0.13058325708808716,stairs up,0.0017485031745239485,0.15075645395995707,0.041706071346467484,-0.0007323554376975923,-1.0541703950667782,-0.2306413400432637
-1.0666087597059537,-1.38452148437,-0.771484375,0.01865668533132989,0.1361941379780646,0.39615908936583816,0.12658691406,0.61218261718,0.015410155625818501,0.12377834859836605,-0.16420150491849714,-0.29223632812,-0.01257324218,0.005743920168132422,0.07556929480582425,1.1566315736729478,0.84334696751,1.48329121526,0.02347816039808415,0.15278235660006242,stairs up,0.0020543579296979806,0.16565533317998415,0.045193838389433645,-0.0008751091274035244,-1.0359750573148354,-0.26964640718489946
-1.0165338134733,-1.365234375,-0.6298828125,0.029198572368936596,0.17044817249560615,0.3875756835904,0.17895507812,0.62524414062,0.009644356498775207,0.09795986278206667,-0.14977844238,-0.326171875,0.14404296875,0.014640474959704709,0.12069495675009037,1.1090047775077,0.70033972406,1.46744175232,0.028087756632195586,0.16717451315626616,stairs up,0.0014537745217358684,0.163172309540073,0.03803295477776068,-0.0006205036169067066,-0.6473365621769811,-0.21687841147373685
-0.9413590694460735,-1.28515625,-0.4677734375,0.03585472157059769,0.18877169796767776,0.3702624736350307,0.1982421875,0.54431152343,0.006404180870981453,0.07978026960210932,-0.18310996213177916,-0.30969238281,-0.01879882812,0.0039041976666844,0.062291616881888334,1.0349120460990184,0.57733286897,1.38141598739,0.031812572142626346,0.1778128313378343,Null,0.00030658716676314044,0.08385229252996851,0.01745583753073919,-0.00021454611910890127,1.199798527684317,0.9691946154761037
-0.862146826935445,-1.09204101562,-0.51354980468,0.026411039231765555,0.16208874587537733,0.4541213749551831,0.24755859375,0.7724609375,0.02458276199417411,0.15637792821877128,-0.20710219138371722,-0.55908203125,0.125,0.03245188236908241,0.1796718598606604,1.032926381337801,0.74019111365,1.18329779068,0.008531244197019054,0.09212262478367983,Null,0.0026453659489156117,0.199231037020013,0.05129830275373091,0.0006868652373895204,0.7916446458323287,1.2124443169012475
-0.6570304032661272,-0.80651855468,-0.49194335937,0.00443908011422838,0.06643358105358149,0.760081737713237,0.57751464843,0.92565917968,0.0053570930573721125,0.07298032064569977,-0.18347167968387282,-0.40478515625,0.05224609375,0.014166591125530459,0.11867899273062733,1.0317009985327745,0.84988597006,1.15882928657,0.002506847351442625,0.04992351053686489,Null,0.0007890598882606252,0.15915110088008078,0.028008906591369998,-7.54011939477251e-05,7.519041358868586,2.297998730822723
-0.9356664792416162,-1.35522460937,-0.39758300781,0.042002781841444466,0.20442760718557312,0.39867054332020196,0.11413574218,0.88671875,0.023610879954695716,0.15326980487440328,-0.19928348425358586,-0.40478515625,0.03405761718,0.007040192883941691,0.0836937055830653,1.0547615677095958,0.62880951273,1.45680760771,0.03406084536021863,0.18408916559293317,Null,0.0002490908972081191,0.07943583128997034,0.01574270822869225,0.00016298925498235757,0.674040757164097,-0.2768778138249459
-1.0066721846378048,-1.61193847656,-0.50646972656,0.05319176302333893,0.22992916953902115,0.3347480587808537,-0.09716796875,0.65319824218,0.026734154761957372,0.1630065692638335,-0.1237740865545122,-0.3291015625,0.11743164062,0.010786776043323398,0.10354227648003973,1.084938331463049,0.5832510206,1.65985392791,0.054163826487864074,0.23202060092410323,stairs down,0.0008316693680112395,0.10358295225000802,0.028750621094651922,0.0004669991915567725,-1.0375105656156178,0.5034186690951911
-0.9158659282438947,-1.41223144531,-0.43383789062,0.051048695352761894,0.2253442211568781,0.3797144839602105,0.02062988281,0.71154785156,0.024171033290020648,0.15506068916826188,-0.1641222502023158,-0.46984863281,0.0986328125,0.01786823085669422,0.1333198692483451,1.0247765025605788,0.46821648117,1.57631262962,0.05263778450084883,0.228824700436364,stairs down,0.004319901663097404,0.26156748900996263,0.06555276758882714,0.0011029839209297995,-0.6271162289682106,0.19060684386117632
-0.9742452566933142,-1.5400390625,-0.41296386718,0.08104873448182368,0.2838760272658001,0.3742689732101714,-0.26953125,0.73620605468,0.028407066544309183,0.16806171619310054,-0.1902322823627429,-0.46154785156,0.16162109375,0.02776687269783111,0.16615716913164927,1.0905032147430285,0.52323878487,1.66946134407,0.07610457780169398,0.27508125072416334,stairs down,0.001944333953744961,0.18355483661991912,0.04396843724774938,0.0007866120060383018,-0.45043171137527427,0.005591196540292417
-1.0497072778526768,-1.41418457031,-0.63037109375,0.041368666935508204,0.2028786195591289,0.2883744673261616,-0.31677246093,0.59643554687,0.023909128393819565,0.15423480547565588,-0.1860314571468687,-0.49548339843,0.01208496093,0.014479863599570736,0.12002805078534967,1.1212448188329798,0.7014089412,1.51138603136,0.04203007745931174,0.2044940203058035,stairs down,0.0007225994019983463,0.15282494272003078,0.026813241319711082,8.43882387895486e-05,10.1977659059665,2.9882576417787945
-0.9866127106037349,-1.38879394531,-0.64685058593,0.04130750450030169,0.20262937623095437,0.2732139495443976,-0.05786132812,0.4814453125,0.015575770110426546,0.12442644481782114,-0.09655173427819277,-0.24401855468,0.43273925781,0.02295813466628648,0.15106234689764525,1.048286038643193,0.73700406849,1.41764749087,0.03805882851231903,0.19449822225675997,stairs down,0.003437617980086175,0.244758002530034,0.058454336349303145,-0.0005204788991704188,0.14329613027795407,0.836220993897293
-0.2431937552779459,-1.708984375,1.12438964843,0.8207259343336435,0.903487453112571,0.559875818197946,-0.33825683593,1.24536132812,0.13344527588585453,0.36431298366961246,-0.04568201013470268,-0.40783691406,0.33361816406,0.037457546822692867,0.19301573406493125,1.1077062987138917,0.1318941341,1.78135260068,0.13467430707556569,0.36598680010094653,stairs down,0.002719224343275812,0.23695119236003848,0.052005055843755796,0.0002279020375608506,3.9029889432689906,1.934036076322099
-0.282988990484581,-1.26843261718,0.92199707031,0.5688193181861856,0.7520914549654668,0.6006739099562011,0.00366210937,1.48657226562,0.0994974081799798,0.31454976830007925,-0.07091944177648044,-0.46496582031,0.50756835937,0.046057611272111616,0.21401006093454103,1.0469873818330167,0.56969499471,1.63934421954,0.060460089759163824,0.24519853974807332,stairs down,0.005325669502972493,0.3079034780599841,0.07277305242588405,0.00120517576771657,-0.7580648597435786,0.19715804331263506
0.46206680688712815,0.19897460937,0.93444824218,0.03060504983749334,0.17449384190844025,0.7117024739548717,0.38659667968,1.19750976562,0.03143723740183446,0.17685027791828253,-0.521357296671282,-0.90234375,-0.07214355468,0.051691998347222365,0.22677502326361024,1.032261637657077,0.54121750463,1.49181390249,0.03962975000277132,0.19856112538857554,stairs down,0.0015350224530525653,0.1628044235900461,0.039078773561063956,0.0004924282986163986,-0.4629225815599174,-0.27228280024268003
-0.5936893259953846,-1.04028320312,0.44409179687,0.21165895375322766,0.458700919890656,0.562064447342781,0.30920410156,1.0078125,0.03394734393521183,0.18370212866923188,-0.2889028695878107,-0.76989746093,0.140625,0.031273674751653956,0.17631966260676235,1.0000776080380473,0.50990489358,1.3589293418,0.027095059933053712,0.16411804938712035,stairs down,0.0007482825466154086,0.1183846312200103,0.027273702338314578,0.00010447879999240474,0.042161572173424755,0.5158393908389538
-0.8995689978926923,-1.47924804687,-0.57336425781,0.03689721998987817,0.19155805389466612,0.40711455292335164,0.23950195312,0.6787109375,0.009191407334463093,0.0956080807064008,-0.18075997488489012,-0.40307617187,0.13903808593,0.011524034191878425,0.10705473050123605,1.0111780411199451,0.66311949924,1.63368508873,0.042690450195378954,0.20604826444844793,stairs down,0.0009329459717550099,0.12256735833000221,0.030460136161664236,0.0004354900283479826,0.07318631261419917,0.8183751041138372
-0.8806118807918681,-1.32446289062,-0.47924804687,0.03150042338802199,0.17699532236372026,0.43689702630945043,0.12145996093,0.81640625,0.01451109525385564,0.12013061209055766,-0.23258284683730768,-0.47863769531,-0.07763671875,0.005079298348338144,0.07107313216437677,1.0168646777737913,0.57080053324,1.50839391181,0.03902271733764224,0.196998240608438,stairs down,0.003975055794583933,0.2919334628600154,0.06287459605182069,0.0010609308608983635,-0.0027876447224444156,0.6935195310227443
-0.8949924744244847,-1.36340332031,-0.50244140625,0.04630415762877926,0.21462869426963546,0.3860190479985567,0.07763671875,0.67260742187,0.017916543500874633,0.13350726640846114,-0.3164886789185052,-0.49890136718,-0.09985351562,0.011594163980897581,0.1073983251686789,1.0350163543632471,0.66727528631,1.57951041586,0.05463415095171791,0.2331362940790542,stairs down,0.004184948903152689,0.24490198180001244,0.06452423576912822,0.0009248400295851943,-0.9129562475649124,-0.26717668256107824
-0.8903180184409467,-1.232421875,-0.65148925781,0.022792766333068867,0.15052540613872537,0.45321817792721886,0.296875,0.62414550781,0.007344478522427196,0.08544600675064791,-0.23292460243686391,-0.36669921875,-0.09265136718,0.003591333084309443,0.05975016813939782,1.0290249968089944,0.758606976,1.4169827756,0.02712381362276508,0.1642051085812157,stairs down,0.0006290328986984781,0.10794549879994975,0.025006215438176542,0.00036879514907460335,-0.4296744079044852,-0.39685397907255077
-0.8674154476204592,-1.10229492187,-0.62780761718,0.016697749155586306,0.1288897069507636,0.4487479073621429,0.31213378906,0.62756347656,0.005943917005574707,0.07689987580226257,-0.29745234274979593,-0.43225097656,-0.18896484375,0.0037432480063372105,0.06102581258961855,1.0237374318380612,0.79378691872,1.25547771676,0.020579102675039828,0.14308776066885806,stairs down,0.00031986384070222017,0.05557065471998612,0.017839054973044128,-1.5859144110487644e-05,-1.2040734429992077,0.24308632735250324
-0.9125969742884915,-1.48034667968,-0.63208007812,0.0333725874505724,0.18217065739173166,0.37768281904329604,-0.03674316406,0.81225585937,0.0200067786948329,0.1410496684911168,-0.2575738150284357,-0.46350097656,-0.12353515625,0.005755324012382412,0.07565164482196368,1.0295357334554749,0.72400412769,1.54230008666,0.03776693012615719,0.19379355430379572,stairs down,0.0030407846888471984,0.19357568796999658,0.05498906313883842,0.0009943208805583486,-1.0085066041355102,0.3366741784146087
-0.7907669870446314,-1.15246582031,-0.50549316406,0.027601489688259893,0.16569918131934336,0.5131803813695789,0.26281738281,0.71826171875,0.010728617893123456,0.10330610573997864,-0.36336798416542093,-0.49755859375,-0.13537597656,0.007052762095250857,0.08375943107942853,1.0183061513557896,0.70598497481,1.33025772853,0.027227114814207122,0.16457160815256627,stairs down,0.004443639924429211,0.2387512294899352,0.06648497834759054,0.001134709260671119,-0.8839737418808262,0.2854287069791966
-0.8997291266550278,-1.24975585937,-0.60534667968,0.02599975546886042,0.16079336254431686,0.42644820399458094,0.15148925781,0.69482421875,0.014590397017911665,0.1204528389870751,-0.2937741412755307,-0.43872070312,-0.12487792968,0.005383091113544322,0.07316432176157846,1.046326470005363,0.73449288091,1.40831391616,0.028751770544958356,0.16908916620678593,stairs down,0.005134958375354413,0.27810818538000603,0.07145817977709999,0.0012357075945920281,-0.5490231080766668,0.22900501841392165
-0.8879492975017743,-1.09619140625,-0.58654785156,0.019166092114653803,0.1380689994483231,0.42298872752473116,0.20288085937,0.60571289062,0.006612951059275137,0.08110115633550766,-0.30758831064768816,-0.47412109375,-0.18701171875,0.006017674915721916,0.077364861693001,1.0345646989888173,0.77388106256,1.27517987039,0.023411507311279865,0.15259632692958902,stairs down,0.0004579724877638723,0.10032199510999362,0.02134268657146336,0.00019747502879907404,0.6739123128192532,0.6548285570229831
-0.23662386235396904,-1.16381835937,0.99768066406,0.4294040684322094,0.6535982293420429,0.6494272762925257,0.28955078125,1.07788085937,0.04315237945891541,0.2071954258984761,-0.24663174029226806,-0.75610351562,0.15881347656,0.04533375319562455,0.21236778017260743,0.9868653068982474,0.29597560266,1.66890229894,0.08030532975948741,0.2826506408284389,stairs down,0.0012663441822406364,0.14616762907007796,0.03549389574151447,-0.00018574105030349025,-0.6667791173788138,0.4175420716678864
-0.045668574102748535,-0.23010253906,0.12878417968,0.007330171120196523,0.08536571104616651,0.8237476014216959,0.45288085937,1.56091308593,0.06492112231856789,0.25405012622018985,-0.5972829004442105,-1.06481933593,-0.27368164062,0.034571966477667665,0.18539091465092944,1.0310473357860235,0.55833936113,1.79248329937,0.08100626739121129,0.28378256910753763,stairs down,0.003626260811553367,0.3087122845900012,0.06004210695817587,0.0008352282902578457,0.6495450361418675,0.23640925979969862
-0.09704652124255102,-0.36340332031,0.08801269531,0.00932059234459671,0.09629661625427052,0.7383671974617858,0.31213378906,1.35900878906,0.04539295685868427,0.2125120235187118,-0.7230423907808672,-1.24169921875,-0.34375,0.046878628759510106,0.21596169123751013,1.0515367703892347,0.57837324998,1.75384455531,0.07311173453642487,0.26970115958717644,stairs down,0.0064210374451828325,0.3547925811899404,0.07992669798042672,0.0010669994760551236,-0.2614118116707167,-0.025785972090516363
0.41408137684989693,-0.47875976562,0.80651855468,0.11229000015460551,0.33423223321639534,0.7669419750689174,0.57458496093,1.02551269531,0.011721040326477292,0.10798436272366317,-0.15719195493567012,-0.85668945312,0.45617675781,0.05662373753627366,0.23734334328251058,0.9757626171229381,0.59668201002,1.11884249965,0.012025664373752482,0.10937859211501598,Null,0.001910516000774918,0.2038657847799641,0.04359665101991628,0.0002272816463505511,2.351335581919977,1.267404403595191
-0.6857026941591765,-0.84362792968,-0.47875976562,0.008904332064173721,0.09408482151902514,0.7062693876339411,0.51574707031,0.95593261718,0.012327523195470782,0.11070234122702412,-0.26104664521705884,-0.38354492187,-0.18493652343,0.002880706985888086,0.05351412571160048,1.0296816091584118,0.9244484462,1.11889114395,0.0008816774109988619,0.029605591925970738,Null,9.103981675935827e-05,0.05248605296003461,0.0095133741871893,-5.874707274847519e-06,-0.3091616277316809,-0.12537622034840523
-0.7248952598727979,-0.97778320312,-0.42443847656,0.021690820299620713,0.14689599255825359,0.6330705553720726,0.34606933593,1.39685058593,0.02825697709263356,0.16766206453727006,-0.3275722049024352,-0.62780761718,0.32775878906,0.032807334332785106,0.1806580973677414,1.0503725904711916,0.82042027628,1.48203938592,0.012664403812746658,0.11224431005686547,Null,0.0008749606324705302,0.18883322376996148,0.02950300251992821,-6.538864927948976e-05,6.1728355945336695,1.6128839155249153
-0.23721038979756612,-1.29309082031,0.76684570312,0.46100654715855555,0.6771760177962237,0.6460962043203174,0.12109375,1.00268554687,0.02221837321834635,0.1486634309038055,-0.15266862495761904,-0.74145507812,0.41064453125,0.1040783667426478,0.32175718726010344,1.0193589972707406,0.48789694349,1.48943877574,0.04234392223293071,0.20523128493568996,stairs up,0.0031015928786171697,0.2015157520199864,0.055544417669878055,-0.00027001354540602936,-0.5242130312818882,0.7295914959363715
0.39578349938112356,0.1884765625,0.60388183593,0.012269560572791605,0.11045646408071427,0.654405229543764,0.31030273437,1.08642578125,0.031187952217524708,0.17610434123785682,-0.5899822792281461,-0.96118164062,0.34008789062,0.08757085574134685,0.29509131576797776,1.0216913302579778,0.72052575593,1.24445245688,0.01999327668240366,0.14099984008249453,stairs up,0.002905144462293298,0.2592761725799164,0.05374777600969439,-0.0008034718867318534,0.8837975192664524,0.9565033401718536
0.20320287243844828,-0.80798339843,0.56457519531,0.11805161197801757,0.3425976567898765,0.7086799007683907,0.38806152343,1.30285644531,0.04666013193056097,0.21538795289616158,-0.4713043563645402,-1.06909179687,0.25598144531,0.12935238335986507,0.35862094035038844,1.0147264190459193,0.59123295017,1.33925483372,0.028514680966159913,0.16837696840525102,stairs up,0.005211175774763512,0.2749463136099166,0.07198073692802577,-0.0003976637347565342,-0.7291410471176007,0.1759698997814878
-0.49385992855721916,-1.28503417968,0.67358398437,0.36188136723645065,0.5999551422891968,0.5904749905962031,0.08874511718,1.30065917968,0.08184999568203273,0.2853283988150568,-0.24636204357272723,-0.72546386718,0.25720214843,0.07742725069660888,0.277512524451858,1.0551301003509628,0.43306703622,1.3906336259,0.058638314433058135,0.2415051563819799,stairs up,0.01861881466018548,0.5279367324200166,0.13608544671046827,-0.0017646632496220163,1.982324746648942,1.706803076571817
-0.9905903063277366,-1.37902832031,-0.65869140625,0.027671737696948095,0.1659099061907616,0.31751259251263153,0.13110351562,0.46923828125,0.006287525353167092,0.07908497401192095,-0.19677348889436844,-0.30456542968,-0.06958007812,0.004642334076522844,0.06795513769596812,1.0631043550686317,0.69768489125,1.41720681434,0.029164264517290338,0.17032547780133178,Null,0.00020790796794235025,0.06612759195002127,0.014381019278183858,-0.00014149619141158107,1.3981920707270339,0.9788785825262457
-0.9662374441921141,-1.11413574218,-0.79296875,0.004023802567182765,0.06325195182487262,0.32135951450571426,-0.33325195312,0.61633300781,0.02353516415493925,0.15297279987836174,-0.20508231026497145,-0.740234375,0.03454589843,0.019372310771181706,0.13878620915814813,1.0583909165398286,0.85245205849,1.22168196228,0.005448390316809478,0.073602015311106,Null,9.334855176109316e-05,0.04333175452006799,0.009634061005895462,2.713103130648387e-05,-0.08460075656222887,0.32110980588291743
-0.9469948253377586,-1.11511230468,-0.65649414062,0.007151657248291977,0.08432411143826846,0.30021088698373566,0.21545410156,0.48254394531,0.004645082503384832,0.06795871266385642,-0.1893352640055172,-0.263671875,-0.13940429687,0.0008050032600376764,0.02829093148908707,1.0155672545838506,0.83730494875,1.19669538176,0.00394878284838191,0.06265850855295604,Null,7.916418667069697e-06,0.009813000810027006,0.002805516353198382,2.2191882131999386e-05,-1.0948068224890293,-0.12438473160069488
-0.9792043104485025,-1.11987304687,-0.73620605468,0.009802468280884994,0.09874233471216726,0.2884182037485027,0.00500488281,0.56420898437,0.007828016398055034,0.08823919394349687,-0.1543889173180214,-0.28405761718,0.04187011718,0.007720610682214653,0.08763175220246636,1.0390822218979145,0.80552483482,1.26054351801,0.011146852004146642,0.10529597888760932,Null,6.124455042351757e-05,0.03621567975005746,0.0078049368644907,2.1611978690677556e-05,-0.11772410672122868,0.19532735938406967
-1.0048455489277897,-1.34777832031,-0.65393066406,0.017761782702215696,0.1329221562997002,0.33292172080163146,0.09301757812,0.61218261718,0.011195242522713575,0.10552876476888498,-0.19951107627078948,-0.40380859375,0.05810546875,0.012892407666968357,0.11324554247198336,1.0888521426234739,0.77787300763,1.43485169997,0.01647300317656408,0.12800899640199248,stairs up,0.0011852299949718233,0.13073858722998466,0.03433645209346342,-0.000570724130204586,-0.895891957477446,0.3133022210069386
-0.9715548428586932,-1.25463867187,-0.70324707031,0.018014991616119427,0.13383808766270405,0.39200383966210234,0.17663574218,0.65698242187,0.016391477298374195,0.12766496741327837,-0.19442471590511365,-0.37780761718,-0.02893066406,0.006621514125350278,0.08114118489399633,1.078492895999318,0.85394079237,1.31602411921,0.013109220132277513,0.11416976800791216,stairs up,0.0009977993460083612,0.11731458882991319,0.03149809568120595,-0.0005839541918984003,-0.7776670535175825,0.16872390504262982
-0.989778217512421,-1.25805664062,-0.65563964843,0.02443360547867012,0.15590063359428072,0.3175196597415263,0.06530761718,0.47900390625,0.007902404793297924,0.0886612270901022,-0.1888472707605263,-0.37780761718,-0.01818847656,0.006158326884824544,0.07826822240259651,1.0629491098471053,0.77013971507,1.31284558197,0.024703891600146476,0.1567605534502875,stairs up,0.0020471499674120305,0.1427709593100417,0.045126217367505286,-0.0007947042087709034,-1.3058755987685815,0.061723302265574854
-0.9625307280415517,-1.322265625,-0.57592773437,0.030622610513274997,0.17448959424226673,0.3699123338687356,-0.00500488281,0.71801757812,0.020003776844544238,0.1410277015688956,-0.16205184760764366,-0.34399414062,0.01721191406,0.0072855976409377035,0.08511008395089102,1.0613828961178162,0.78148866822,1.40194475985,0.0220158939846116,0.14795055207150548,stairs up,0.0016209154598750548,0.15188726450003287,0.04014473631478751,-0.0007797606125678616,-1.1380733288054101,-0.21001841916367936
-0.9613201866816564,-1.15759277343,-0.65991210937,0.011820644971002693,0.10838877098990496,0.3022573272106135,0.16394042968,0.44104003906,0.004074593166067964,0.0636364334479994,-0.1609837818697546,-0.27197265625,0.09680175781,0.00785296456752569,0.08834470482599624,1.0267179564369324,0.76585012162,1.26169159803,0.01093158226046111,0.10423299544106843,Null,9.913933392234302e-05,0.041088472249953156,0.009926284156209378,7.267945063680364e-05,-0.37079957335049407,0.3511850598638928
-0.9713018216045728,-1.0380859375,-0.908203125,0.0010090414010448731,0.03168549891102596,0.24993313736346737,-0.02221679687,0.38159179687,0.006617707532939923,0.08114464074242123,-0.19324895963889446,-0.42517089843,0.01550292968,0.00864395432871694,0.09273897439745182,1.0285417258464824,0.95120910477,1.10887201081,0.0015375477054380422,0.039112930535296846,Null,0.00011732469548195725,0.053261327900031574,0.01080440299821684,-1.6105097281274835e-06,4.542779231699823,1.8892793933987715
-0.9910685221316666,-1.15612792968,-0.76574707031,0.006554730860795864,0.08073608666108978,0.34009806314727775,0.12744140625,0.72631835937,0.016791627040165652,0.12922205780467916,-0.11797756618594445,-0.34436035156,0.01892089843,0.009106912498018305,0.09516469166500767,1.0669700093126668,0.93701042266,1.27288428383,0.00568175321437067,0.0751677318983038,Null,9.826120587470052e-05,0.03551818542996443,0.009885105476751765,6.363848514232955e-05,-0.8740268147605312,0.2616643149515834
-0.623181216927619,-1.10607910156,-0.20178222656,0.08548984526699797,0.2916119305573129,0.5879390655962433,0.07116699218,1.12670898437,0.06442535963706206,0.2531491353300411,-0.4170890686965608,-0.82897949218,-0.12768554687,0.03520480059485869,0.1871323911262893,1.0382633910601058,0.78168403013,1.27323987515,0.014215344030660243,0.11891228098973024,Null,0.000802996386886746,0.12209756044001097,0.02826212534037506,-0.0003243231142179451,-0.3923007919978927,-0.46659210595973216
-0.5525903168624844,-1.40417480468,-0.22485351562,0.07748758120213098,0.27750007545565486,0.6757713933874535,0.15759277343,1.02648925781,0.03861462249898896,0.1958948190310781,-0.38224612407521735,-0.93249511718,0.35339355468,0.11914931918397516,0.3441064679729878,1.053680707277143,0.76994222713,1.62564617844,0.0313915887863572,0.17662562094446993,Null,0.007919429934482903,0.30007935343996905,0.08871437836494522,-0.0009609496987307716,-0.30427477122484925,0.8750537176746205
-0.595496052842827,-0.8916015625,-0.29138183593,0.03992628991524255,0.1992918757705568,0.7133028519685339,0.50573730468,0.97473144531,0.017253910935105872,0.13100983292440374,-0.33622829576633495,-0.65905761718,-0.11108398437,0.02402364228114371,0.15458934002480657,1.0253976058796859,0.82643800421,1.19660752397,0.006121311173251527,0.07803372619357192,Null,0.0012951458650737476,0.14689581676998387,0.03589380164694484,-4.8018672462355535e-05,-0.44377472739388235,0.48405255605113956
0.3365181770079558,-0.51391601562,0.99792480468,0.1777808165611974,0.42047425855224263,0.20111117705303863,-0.63598632812,1.07092285156,0.3299421816412398,0.572816983564381,-0.5540616367367955,-0.95703125,-0.21179199218,0.03674427735128245,0.1911577105274413,0.9932084314944752,0.75810151635,1.22694935741,0.015757726225792097,0.12518253458400702,Null,0.0021765057310485637,0.16331364328993914,0.04652398131616488,-0.0005711508417236758,-1.1640836917577064,-0.04133935932440543
-0.10467190212627778,-0.48388671875,0.78125,0.12090906890735696,0.3467525801747864,0.43062065971994445,-0.53247070312,1.01977539062,0.13933285115495628,0.37223484490258424,-0.7399814181827777,-1.03369140625,0.39233398437,0.09253889988662573,0.30335588816974624,1.0405581725399444,0.54895563782,1.39430803494,0.012089639657370555,0.10964704735015614,Null,0.00848006098506335,0.3116091395099829,0.09183109242052133,0.0008343258151709727,-0.4205212047347211,0.8381039094252735
-0.3523811261641752,-0.37219238281,-0.32580566406,8.438351955206119e-05,0.00916234429370737,0.8642345310450514,0.81359863281,0.92883300781,0.0006300164583888214,0.025035354019293462,-0.41201561996237107,-0.45141601562,-0.37475585937,0.00038175543987951054,0.019488140710025158,1.0204127847145361,0.95922275229,1.07778601223,0.0006824254013115097,0.026055858162872286,lift down,0.0005739579767710226,0.09819202433993723,0.02389559437425667,0.0003989597962292937,0.14188206426322392,-0.8012678578700173
-0.3579231862234831,-0.37194824218,-0.33679199218,7.671546901616949e-05,0.008734098879402487,0.8718590897086516,0.82019042968,0.91186523437,0.0005066266046325885,0.02244505263421385,-0.39467457974556175,-0.42956542968,-0.37658691406,0.00012186738741069385,0.011008303191991649,1.0219037910384272,0.97224268106,1.05379493527,0.0004316177318359802,0.02071697162033584,lift down,0.012618157432756696,0.35816155594000065,0.11201459238801688,0.002170304437239973,-1.3368350625165457,0.09191252376703338
-0.3847875180419565,-0.55541992187,-0.33386230468,0.001073716041948722,0.0326784428741221,0.9012676736545653,0.63720703125,0.95458984375,0.0037871981674408904,0.061372759174611,-0.37837152895418474,-0.57885742187,-0.32763671875,0.002719599315515101,0.05200787329292094,1.053424612768859,0.91608997197,1.13822373328,0.001408442113814339,0.037427096295449186,lift down,0.00416656334471378,0.2753685232000862,0.06437327845239747,0.0011799211939500667,-0.6001729480629807,-0.4690988610445572
-0.9741645105068557,-1.14184570312,-0.81921386718,0.00362680693812061,0.060067562435946055,0.2741523034762371,0.14343261718,0.34790039062,0.002762716820059752,0.05242590973658853,-0.170558024923299,-0.27270507812,-0.04870605468,0.0030316689112147343,0.05491850099810241,1.0287174917406186,0.85838691955,1.20591858007,0.004381556246662886,0.06602250302120666,Null,2.1934961955016318e-05,0.02280904173005638,0.004671391135498632,2.9187615610280116e-05,1.2242592930631604,0.6423955305935408
-1.013924632349706,-1.20727539062,-0.82849121093,0.008082658154113692,0.08963879241794993,0.29203096277147056,0.13024902343,0.5908203125,0.009229672453165114,0.09578820523563505,-0.15925077550205882,-0.32458496093,-0.01892089843,0.00695385253532491,0.08314413701765888,1.0738490081611765,0.89517796555,1.28041120729,0.009714948111923565,0.09827411336829253,Null,0.0001164836177192053,0.06307857781007442,0.010760967427137573,-4.120031632983289e-05,5.154502694693452,1.6462320055734223
-0.7702261606816667,-1.18701171875,-0.56311035156,0.037501340985047836,0.19314766760370344,0.5991579691527604,0.16381835937,0.81750488281,0.04559219573838556,0.21296651470496827,-0.19728342691697912,-0.39221191406,0.12927246093,0.012152590358092703,0.10995133294619171,1.0389418542877602,0.87076458891,1.23495941572,0.006543317826125933,0.08067984906890646,Null,0.0036066197559093713,0.24605862573992,0.059898541534948994,-0.00023866415588844942,1.9930138981451062,1.646075371924833
-0.9011537563836478,-1.15649414062,-0.39709472656,0.03832521166369738,0.19515166562607172,0.46114095051679244,0.23950195312,0.83264160156,0.03262501401752444,0.1800550617175719,-0.11542938040194971,-0.33740234375,0.04345703125,0.009431104704969108,0.09680800370340505,1.0523127667998742,0.7270603935,1.24963639454,0.01063351646923995,0.10279415842920869,Null,0.0006013789434373445,0.11641235874992617,0.024445790761017515,0.0001915761857692558,-0.33903615833642275,-0.44639944313696245
-0.9809017927245811,-1.20300292968,-0.67565917968,0.017795426653386414,0.13302635401313045,0.31019498515748606,0.19165039062,0.43664550781,0.002655172995676049,0.051384235198989985,-0.18055835915307264,-0.28527832031,-0.05432128906,0.0040118668170546655,0.06316212594009353,1.0473511113331841,0.72105905484,1.29333990365,0.018475244738250275,0.13554346565030234,Null,8.902613091766485e-05,0.034578176019977036,0.009408973282509309,2.0375968965246734e-05,-0.8549377551554187,0.4966702387177294
-0.9393027785101695,-1.36584472656,-0.64855957031,0.03186675546386037,0.17800763269421307,0.2940211754023164,0.03100585937,0.53527832031,0.00959463143547031,0.09767509650984618,-0.12289308019700566,-0.39782714843,0.09533691406,0.01415319774985373,0.11863067133185042,1.003603241656723,0.69071621055,1.48345253539,0.03210315551394804,0.17866667779410414,stairs down,0.0023601502943791266,0.20663671511999837,0.0484439481455115,0.0008047429405560601,-0.3208125810812299,0.34623968320833803
-0.9901233429565426,-1.75451660156,-0.52722167968,0.06885045172881411,0.2616949100035114,0.3815664737743084,0.12084960937,0.68103027343,0.014626918383249136,0.1206197149138209,-0.18867460209914894,-0.36767578125,0.01721191406,0.009949514746713892,0.09948161536652639,1.0869681234331383,0.65561997734,1.91088607902,0.07335573572272217,0.27012135354149747,stairs down,0.0042276924633563185,0.24796910545001083,0.06484754997289723,0.0010460853566661155,-0.5219562810413243,0.4843295319099564
-1.0291682652027976,-1.88793945312,-0.41101074218,0.14203044277059002,0.3757459560239925,0.33773367745190475,-0.02209472656,0.70544433593,0.02792753843873041,0.16661723527558853,-0.26047479538297624,-0.66259765625,-0.017578125,0.022565782775525695,0.14977136789105283,1.1330244434538097,0.49334539724,1.97310442979,0.1496224837745109,0.38565771579477515,stairs down,0.0035073032690583305,0.2263324104400226,0.05904596907397967,0.0007286281172846934,-0.48221520100032444,0.27170812192994387
-1.0343644249209627,-1.41577148437,-0.49755859375,0.036751362001732804,0.1911931762750176,0.3023309554613369,0.02038574218,0.61254882812,0.015140015081243517,0.12271533088310618,-0.19938194560122996,-0.41381835937,-0.01245117187,0.007451698486551961,0.0860921008661286,1.1061398261644384,0.72782611688,1.5101348159,0.036743839415178996,0.19117360773734363,Null,0.0010520746902928854,0.14883194811000067,0.03234885813178506,0.00040656284704675914,-0.17544026312753402,-0.5693182835670253
-0.980785843884852,-1.10168457031,-0.82409667968,0.0037958487725705753,0.06142791001609852,0.2957207493491716,0.10754394531,0.4130859375,0.005540548151155462,0.07421431022766932,-0.1389124040742012,-0.29162597656,-0.02807617187,0.0048675949421308155,0.06956143044241636,1.0388451733046746,0.90953519203,1.15381689145,0.0036304214280529637,0.06007445084605449,Null,0.0001298081165523312,0.06925847358002102,0.01135957838954053,6.857839756160063e-05,8.836031768699849,2.2417021309749683
-0.9718418219113333,-1.09350585937,-0.88793945312,0.001398434881297471,0.03729964370295969,0.2716020632979487,0.05859375,0.37707519531,0.003067555712400275,0.05524332228844396,-0.1496995192265641,-0.23266601562,-0.02038574218,0.003079108022947035,0.05534724677338034,1.0230836051153334,0.92859621673,1.14557637093,0.0014680247394818456,0.03821644158584762,Null,6.568098229839903e-05,0.04407582489000106,0.008083573266084177,1.3237941839447403e-05,0.907926082038021,0.16972017118068689
-0.7696586277131057,-1.38464355468,-0.24951171875,0.08131018138413908,0.2842624653407989,0.3678979340509317,0.08142089843,0.65637207031,0.015181556695718346,0.12283021335369863,-0.467778744901677,-0.89758300781,0.142578125,0.09489352430099618,0.3070897646111643,1.0535435827836643,0.76465696327,1.64860963148,0.02695009237457438,0.16365421013976827,Null,0.008273492181360899,0.4351085660799754,0.09067581833744932,-0.0003582953690164079,0.6499603384177965,-0.16014563726054273
-1.056887961179424,-1.40502929687,-0.74584960937,0.02068481781524058,0.14344518235119685,0.3003031945313089,-0.02612304687,0.73205566406,0.02070701268611826,0.14352212027117406,-0.10192551537916231,-0.51086425781,0.27270507812,0.03940533171016003,0.19798742655263254,1.1292448851670158,0.7698108533,1.48555779765,0.024534467926582988,0.1562242465653955,Null,0.006807653611970567,0.5837691981299713,0.08229223199344436,0.00042513960825192013,21.424177530444265,4.342386375370804
-0.6011970200198203,-1.15856933593,0.6337890625,0.2288656149436174,0.47696452924669763,0.5713650823308382,0.04455566406,1.22839355468,0.06627472366488173,0.2566668444348781,-0.21463542640904196,-0.67224121093,0.05798339843,0.029529711264901053,0.17132684158224698,1.0157045349391618,0.58756134088,1.36696887856,0.025185306217663912,0.15822293133674295,Null,0.009556489659136481,0.37835472304004725,0.09746417377764824,-0.0005704676702299476,1.1303383246983278,1.3752686483623704
0.11585780552387755,-1.37268066406,0.8798828125,0.6661598074637717,0.8141013652708705,0.0020938795435204104,-0.67370605468,0.77331542968,0.19724795844101184,0.4429916379640915,-0.4147712551778571,-0.72351074218,0.08569335937,0.047317524034846015,0.21697029311841914,1.0215130169312754,0.23132581885,1.67273989703,0.0482494830453055,0.21909658193007414,Null,0.001153664367620226,0.1325545669000121,0.03387887726782406,1.590978161194979e-05,-0.4905973325415811,-0.08621293376242499
-0.9670299851716263,-1.04418945312,-0.89135742187,0.0011001850298302076,0.033068979560436695,0.3094791274433735,0.22314453125,0.46936035156,0.0020804251119217773,0.04547408526319863,-0.1812413227093976,-0.29284667968,-0.08911132812,0.001941876772741746,0.043933799288177935,1.0331016774687347,0.95437883547,1.10151960411,0.0015747787915447817,0.03956377348432033,Null,0.00019971711348697454,0.05037042292997285,0.014089499577539535,0.00027294010563135447,-0.7750103806623119,-0.34913528635441854
-0.7078088124559375,-1.06604003906,-0.12744140625,0.11152882544378807,0.3330884959655642,0.4044596354130208,0.1728515625,0.72106933593,0.021598545252410117,0.1465812158130109,-0.41529019673338546,-1.00390625,-0.10546875,0.08279110252310089,0.2869841439245841,1.0218307155329687,0.69945217477,1.17125856717,0.007743074315754811,0.0877652881479551,Null,0.007738584760316284,0.49072061305992065,0.0877398406162007,0.0006763732165978531,1.7500425388368122,0.5533673327584315
-0.825502155904317,-1.37707519531,-0.44409179687,0.052761330195149884,0.22906989526211202,0.5287765753035518,0.25708007812,0.80261230468,0.03141089221030529,0.17674628140523027,-0.21980927680852458,-0.60375976562,0.1650390625,0.043104869976463546,0.20704908654444057,1.0616459663617483,0.91006853229,1.46392677089,0.008912728854145987,0.09414895335469499,Null,0.0046343331764386935,0.2614479634299869,0.06788968221630465,0.0011397655906756608,-0.1982246296225214,-0.9614207979182532
-0.6101828585806741,-0.78894042968,-0.53552246093,0.003023328756092922,0.054830135537687334,0.7615706197294944,0.50170898437,1.00244140625,0.011642462106786605,0.10759672400356361,-0.26265279362398875,-0.57556152343,-0.0458984375,0.024981456153420716,0.15761063065076492,1.0290219303369101,0.97142080567,1.18035446664,0.0018481793306136605,0.04286952648054784,Null,0.0004174727258175194,0.09162610014993788,0.020374674805387353,3.0187877435094303e-05,1.4744901946667683,-1.1486087216499077
-0.5996459960905555,-1.02233886718,0.306640625,0.09720645385337125,0.3109122352025251,0.5177083333297777,0.01794433593,1.19128417968,0.06485894731989132,0.2539657847718484,-0.47017415364255555,-0.86877441406,-0.07580566406,0.060098217519472495,0.2444674590477293,1.0217055200098335,0.49609179759,1.53715204375,0.025697028948794297,0.15985702260725534,Null,0.005069305809155062,0.28699923991996457,0.07100100702880348,0.0003463029614165857,-0.6750864928951756,-0.12930692477441624
-0.7024379550437171,-0.72436523437,-0.69226074218,4.709179521590925e-05,0.006844358356650773,0.7436919686644502,0.73425292968,0.771484375,5.594428232742225e-05,0.007459985276507454,-0.07463353341424082,-0.08825683593,-0.05981445312,3.923411111573115e-05,0.006247295168423528,1.0257122007621466,1.01399347132,1.06110299354,9.106393166233938e-05,0.009517728570988891,lift up,1.6299001248553965e-05,0.020672762639946995,0.004026619694419005,4.6560154567108985e-05,0.2618952363083844,-0.12415594626118118
-0.7136163884907879,-0.74670410156,-0.69104003906,0.0003048109307886694,0.017405849356299526,0.7643125591819999,0.73742675781,0.796875,0.00045156177336116955,0.021185491151748143,-0.06945208924830303,-0.08227539062,-0.05261230468,5.383331711117084e-05,0.007314851644649012,1.0480211019074546,1.01603213732,1.09061358891,0.0007069811185649513,0.026508421011313413,lift up,0.007714528268145435,0.2637626071999648,0.08756582410603349,-0.0017652434496652882,-1.1203126015994465,-0.579182199112717
-0.4341001157384656,-0.79504394531,0.29833984375,0.10242297483201668,0.3191881174640747,0.8086325024761376,0.48132324218,1.21459960937,0.03286238402697492,0.1807996376633901,-0.24095129588052908,-0.79602050781,0.34509277343,0.0519732251875402,0.2273724578265413,1.0366036638206348,0.73617344655,1.24895802819,0.012172005721947808,0.11003455627788407,lift up,0.011187309927847562,0.38541679678996843,0.10548989435878303,-0.0017387244293193284,-1.0898645178817772,0.33676935143022874
-0.5567363807508982,-1.083984375,-0.20556640625,0.058100284244508436,0.24031724522145462,0.6473556792625749,0.28002929687,1.02856445312,0.03050429704634185,0.174131090230856,-0.43492994479443114,-0.81921386718,0.0380859375,0.06572081781551303,0.2555920186239829,1.0322898866829342,0.79584486143,1.28384548813,0.008655649299328903,0.09275677368259194,lift up,0.0012559402955837518,0.13129778222003097,0.035332983103771386,-0.00012903041361957848,-0.7919590197579547,-0.3269443199200225
-0.9429757254421427,-1.07104492187,-0.60180664062,0.010415889666655236,0.10179758038596795,0.33588456133989797,0.19702148437,0.58435058593,0.011272452132687015,0.10590061199920404,-0.20086420798428575,-0.43139648437,0.08142089843,0.009067928708215532,0.09498243924971962,1.0334769852839285,0.82390542425,1.13767804308,0.004345657191760785,0.06575321643383432,Null,0.0058042108262405636,0.3506916342699924,0.07599077250363047,-0.00042422690785587456,2.930047323101678,1.587657040907645
-0.9735554020543901,-1.166015625,-0.732421875,0.011544626553515621,0.10711784393444873,0.2946479611244512,0.19848632812,0.39868164062,0.0010490821771532936,0.0322906384980179,-0.1815304639828049,-0.2900390625,-0.0517578125,0.004071887142731208,0.06361649599429854,1.0355572363638414,0.80061801083,1.23091524893,0.011838222100365258,0.10847136866134524,Null,9.185055100053412e-05,0.043302246569965064,0.009554605521169622,-3.293076456480896e-05,-0.020282782382170073,0.3735585144542488
-0.9699156766074611,-1.09484863281,-0.90832519531,0.0010579516942377804,0.03244179525306406,0.2919169213451813,0.095703125,0.37255859375,0.002161913677630705,0.04637577009989168,-0.13651382366906736,-0.3115234375,0.01489257812,0.005093863085056179,0.07118616447089009,1.0255757763709326,0.9670537511,1.1655826052,0.0010583957305780555,0.03244860266445349,Null,7.969432381800781e-05,0.03630449390004742,0.008904010324589788,5.013590619136396e-05,-0.41468334544559093,-0.3273902355676428
-0.9789236500737569,-1.14086914062,-0.80261230468,0.007410517397961777,0.08584623062715198,0.26493978763414366,0.16577148437,0.36743164062,0.0019530863338717032,0.04407148513086855,-0.144699855400221,-0.23425292968,-0.02478027343,0.003953124309261726,0.06269995090480295,1.0269652801307736,0.83851125713,1.17867923747,0.007647452546010335,0.08720780599792431,Null,5.9212171564489396e-05,0.03626542341999084,0.007673658351469157,-2.9916050287795524e-05,-0.2952841269111892,0.1484935300882503
-1.0307631299640463,-1.35290527343,-0.81396484375,0.019386953910581203,0.13883403974954772,0.3778245517943353,0.10546875,0.62438964843,0.012847590296528367,0.11301914337315944,-0.17711555612913296,-0.41577148437,0.01123046875,0.018174247960579693,0.1344217039921759,1.125452972646474,0.90521064713,1.44544251346,0.020183628858405408,0.14165789947440746,stairs up,0.0017027894444492343,0.1595284198100444,0.04114543390095072,-0.0007862882167332048,-0.9661772986354431,0.3644811175163819
-0.9601383730327323,-1.30627441406,-0.67956542968,0.028782524361594893,0.16918996071784637,0.353240800029672,0.25280761718,0.49816894531,0.00431508942926869,0.06550961536760451,-0.19809143399524587,-0.32067871093,-0.09045410156,0.0031964285111575055,0.05638228169107884,1.0455316441591807,0.74761283971,1.36728400298,0.029002754661485147,0.1698360081470798,stairs up,0.0012147444047760885,0.12512259315997198,0.034757825841226116,-0.0006161765016632282,-0.9407845104742241,-0.09297230594905316
-0.98596716439457,-1.29846191406,-0.60632324218,0.022053885432203178,0.14810576003547585,0.35184667443365586,0.123046875,0.57543945312,0.013733165247459406,0.11687314073686422,-0.15763346353881721,-0.30358886718,0.02722167968,0.008899823502018376,0.09408493497136863,1.0696501843681183,0.77014187244,1.40130769822,0.021184641575915777,0.1451576579222213,stairs up,0.001914326586059983,0.16043429297997136,0.04363524387052633,-0.000781709259091587,-0.8393576621751726,0.4929455144734378
-0.41829685806369943,-1.26403808593,0.81494140625,0.3873126029542908,0.6205431506197974,0.6026942964191907,0.29663085937,1.21069335937,0.06676229801909929,0.25763615581279475,-0.29650455540676296,-0.65124511718,0.1044921875,0.035518307133680815,0.18791753244431483,1.0327017457043353,0.60190506878,1.4516625377,0.04668779339977431,0.21544818811404595,stairs up,0.003544370441188381,0.2069338446300435,0.059362300753735005,-0.0009875836741533614,-1.0303350657845864,-0.2509151183352367
-0.9616375077202827,-1.15588378906,-0.68249511718,0.009863542606256374,0.09903442016209564,0.31559313757502827,0.21484375,0.68859863281,0.005471843181433427,0.07376265188546803,-0.19799528821994353,-0.38586425781,-0.05041503906,0.004714079532192295,0.06846492762353798,1.036084891859435,0.78877047054,1.32773740385,0.010069034463238629,0.10006071788110131,stairs up,0.00018274773911898965,0.09237943158007056,0.013480180489022485,0.00018004798225272877,4.7431050718195085,0.9633832013111584
-0.1009734078746629,-1.11376953125,0.73767089843,0.3343977144846775,0.5766446701732861,0.39707963921859546,-0.84765625,1.56896972656,0.46319147954883183,0.678667282418656,-0.369794867007809,-0.73376464843,0.38745117187,0.05919751230140507,0.24262098426883225,1.024081728736573,0.33595553061,1.68915017118,0.1104665264517464,0.331430125348518,stairs up,0.0011353719355649515,0.16971008287998757,0.03360049763835238,-0.00014187435930278387,0.21743037824595302,0.054711766236897635
-0.9733938388684656,-1.3955078125,-0.56188964843,0.0261016963376185,0.16113221938579492,0.38826755745291003,0.19482421875,0.68542480468,0.01228828605994434,0.11055889233066596,-0.17034233940656088,-0.34228515625,0.02026367187,0.010145340405244003,0.10045726133774903,1.0717289923255027,0.71828882307,1.47145173978,0.027082557431821537,0.1641318478454313,stairs up,0.0005900268828687223,0.09553447097994194,0.02422612324557168,-0.00039565666097856586,-1.0313804630102448,-0.1120982213796171
-1.0284351167180954,-1.37487792968,-0.73828125,0.025071267721497415,0.15786714029543936,0.41391645158648804,0.23547363281,0.57287597656,0.008326423428576035,0.09097725751174478,-0.24225798106994048,-0.39331054687,-0.03869628906,0.007906123638338024,0.0886513585828554,1.141475605346369,0.86328333858,1.47070848988,0.025940355612762023,0.1605800384048859,stairs up,0.002337273698971238,0.15324347985995246,0.04820125885830141,-0.0009632183862388875,-1.3768078407972404,-0.09351801801657698
-1.0325806303138743,-1.51184082031,-0.52087402343,0.045724782277756386,0.21327303043728774,0.38681972962675387,0.09509277343,0.65856933593,0.011651959489751682,0.10766129511688556,-0.23126955681062825,-0.44006347656,-0.00915527343,0.014613379699534265,0.12056894234493162,1.138418353124712,0.71895690717,1.63965477183,0.04519133619468312,0.2120253106123434,stairs up,0.0019883365241649825,0.1807712207800023,0.044473884306354544,-0.0006949782913737489,-0.5281971562358545,-0.6511573297134963
-0.9708046136862211,-1.26586914062,-0.44775390625,0.032258540227276304,0.1790837529615463,0.35232756858238373,0.22082519531,0.53271484375,0.006834210856009624,0.08242861803987167,-0.2385218420657558,-0.42468261718,-0.02770996093,0.010167068631204264,0.10053833978671696,1.0685660955413951,0.55229579388,1.38181174428,0.030808023973073216,0.17501116408568088,stairs up,0.0005428135358908779,0.10150123592995897,0.023230532564716407,-0.0002274207366452852,1.7373049515530878,1.4967858300800143
-1.0088958740201563,-1.36633300781,-0.66967773437,0.028419787581158547,0.16814210613101452,0.37451489766026036,0.20251464843,0.61853027343,0.007864321781486916,0.08844976976910872,-0.2164402008025,-0.47119140625,0.00036621093,0.012911534108573701,0.1133326366722823,1.1066240470909896,0.74030383144,1.50334130612,0.02945469815424644,0.1711761907159591,stairs up,0.0002390887458717106,0.07818986916004178,0.01542217533251915,5.563356118506703e-05,3.8149858964776016,1.443733934809217
-1.0249695920616766,-1.5888671875,-0.54016113281,0.05107470389207956,0.22531947838974684,0.3418516969933534,-0.0439453125,0.62939453125,0.015662912262996317,0.12477628929089822,-0.1962620169793413,-0.47204589843,0.11853027343,0.021564057684694382,0.14640673342020188,1.1172391899067067,0.7675834539,1.67780038261,0.04576759800825112,0.21329214832043822,stairs up,0.0012042115289969187,0.1433936904300026,0.034597697633193675,-0.0004961483366537724,0.24914268366092696,0.6359883328076846
-1.0379362407448947,-1.29382324218,-0.77111816406,0.01343594745884297,0.11560809636829805,0.3965055766821578,0.21472167968,0.64807128906,0.01097082423703351,0.10446570277769923,-0.18068333675647366,-0.35412597656,0.02099609375,0.012832332955306636,0.11298138944447897,1.1347381516584738,0.87294796035,1.45308375043,0.016674979960170193,0.12879136969435584,stairs up,0.0018049738313053794,0.15092525900001874,0.04237303351231006,-0.0007486385463492694,-1.3304661994534548,-0.08262077311292948
-1.0180186396034785,-1.23364257812,-0.69458007812,0.011001109248316102,0.10460076773665188,0.3266661270758696,0.18615722656,0.61413574218,0.009281695911837057,0.09607940420462756,-0.18128502886869563,-0.36083984375,0.00451660156,0.011856822906259685,0.10859274216693472,1.0929063509780979,0.75167081413,1.33298462229,0.013531174004931113,0.11600704726771507,stairs up,0.0015402736813429749,0.13474383301002035,0.03913952770188956,-0.0007191734710426029,-1.1889469157713368,0.05887207748807201
-0.9637664967300567,-1.26171875,-0.46813964843,0.030557057699334422,0.17431127030479235,0.3294836356779661,0.03295898437,0.48571777343,0.012730880556612438,0.1125120201479003,-0.19464214777141242,-0.35498046875,0.16076660156,0.012579387412300257,0.11184058935341869,1.0516455813641243,0.65308503617,1.32733490948,0.025025541587679535,0.15774712151754522,stairs up,0.0010445184281877148,0.10945680963004634,0.03222758436696981,-0.0005837455956771172,-1.0033904004535954,-0.35921576747631256
-0.3654942205760819,-1.185546875,0.9765625,0.679883889337356,0.8221362175211262,0.4136727316302338,0.03063964843,1.16491699218,0.03945114898594511,0.1980415120936595,-0.18901695563491228,-0.4541015625,0.06408691406,0.015183074494815416,0.12285879938160314,1.0189837256838599,0.48696359993,1.44484478883,0.032523612300097295,0.1798149485914306,stairs up,0.004883470172973587,0.31602412717995776,0.0696771976177894,0.00018141320671262177,2.2471645261026882,1.52631818325734
-0.3039159360133695,-1.48962402343,0.94116210937,0.6751191848950169,0.8194205628919454,0.2606267514424456,-0.88903808593,1.353515625,0.2850592101713438,0.5324565478360239,-0.34326171874608696,-0.82922363281,0.0224609375,0.034556610499457796,0.18538824890941677,1.0472074325397285,0.21699954345,1.92565178581,0.17173859953429568,0.4132859029537603,stairs up,0.0017492071332103124,0.20345405352009038,0.04170971796480689,0.00014822660921523243,0.1361313769820769,0.08162737847346005
-1.0587956608916216,-1.4404296875,-0.66760253906,0.028645823172204096,0.16879271573378626,0.31134132178718915,-0.04516601562,0.46179199218,0.00928566088463002,0.0961013429827673,-0.13174619932183784,-0.27563476562,0.11218261718,0.013278965555995592,0.11492252766016339,1.1206456661088648,0.72637833547,1.5116256419,0.03059101545569747,0.17442952334795964,stairs up,0.0004909589985072635,0.08525378258991623,0.022097628064633997,-0.00014669199616940078,-0.789440760096547,-0.029901927343823815
-1.0085603560492529,-1.50439453125,-0.66540527343,0.024532120284571378,0.15617660224096824,0.3785358297374137,-0.06298828125,0.89172363281,0.030058246281721063,0.17287422520396756,-0.2177516893373563,-0.40637207031,0.06555175781,0.015262283640738403,0.12318510204948104,1.1153455059190232,0.7382774252,1.59918830089,0.03354756712886875,0.18263286949213914,stairs up,0.002855003617603875,0.21505908343999636,0.053278471738930695,-0.0009911499106808478,-0.8682575928111009,0.27867309868912443
-0.7847099070142944,-1.30676269531,0.3369140625,0.19844265289004812,0.44410045406615567,0.4807885292809816,0.18420410156,1.01135253906,0.04537766697383127,0.21236590210977793,-0.12719951231521473,-0.36889648437,0.55773925781,0.03673835236123517,0.1910836562776689,1.047787018563313,0.61481552398,1.40249223374,0.044358921719213316,0.20996852405817656,stairs up,0.002332358054958923,0.20113767530006044,0.04814612247976441,-0.0004322081253963352,0.29654812550622234,0.5485729770301054
0.3995997378676842,-0.80505371093,0.9375,0.25102805187575444,0.49970676561632044,0.6422575298072629,0.18981933593,1.11682128906,0.05392994849674068,0.231616291876343,-0.3449360094537894,-0.61242675781,-0.10852050781,0.022813734290141153,0.15064415688769203,0.9920004957375791,0.68291760384,1.3117475169,0.033312501398418355,0.18203618443510028,stairs up,0.0029372993524876163,0.21228178361991468,0.05405404593748155,-0.0007648988835930954,0.27424525902441,0.856390713114179
-0.2994540744354445,-1.509765625,0.76110839843,0.5315736996724676,0.7270629356885585,-0.09838324652799994,-2.24035644531,1.35168457031,0.37938933146074705,0.6142325398028272,-0.4308790418799999,-0.87622070312,0.03442382812,0.05372567172877251,0.2311432364892466,1.0729767953315,0.4587369536,2.33370884182,0.09357875445582287,0.30505552361270866,stairs up,0.000998310709507649,0.11063312212002074,0.03150816622558782,0.0001532046899683768,-0.9258421778208765,-0.23753734572901553
-0.8262233091173594,-1.59069824218,0.17553710937,0.19700842905357915,0.44260777232930726,0.17894410550971912,-2.3935546875,0.75109863281,0.42898083613189053,0.6531239020542123,-0.29505971843859546,-0.65783691406,-0.06323242187,0.02247912180197113,0.14950864390006507,1.136350660466854,0.28504476588,2.48801752785,0.1561358371143944,0.39402876733832043,stairs up,0.003379448119041906,0.2769428958400795,0.05796949590475824,0.000516388539351663,0.7160961936465324,-0.5402940025259756
-0.9363721931467924,-1.36535644531,-0.01550292968,0.13901577709979587,0.3716738678415193,0.41601025083232696,-0.44653320312,1.20275878906,0.13010847801265754,0.3595694448894574,-0.349644690935849,-0.994140625,0.04138183593,0.08203247686410066,0.2855110319000887,1.1935879248864152,0.48779585553,2.00279884524,0.09701504494783562,0.3104913645054246,stairs up,0.004931137071493815,0.3093867326999771,0.07000088307151986,-0.0005646514312518551,0.6628337288082196,-0.1921154987381412
-1.102991104121198,-1.515625,-0.64819335937,0.043635620190966735,0.208346709443191,0.40746561685901045,0.07873535156,0.76318359375,0.024644236888266207,0.15657548175818106,-0.1957823435433854,-0.43774414062,0.04406738281,0.013401597942454576,0.11546340525539232,1.2045914665263542,0.73589999554,1.67403691435,0.05143163337715328,0.2261940765949614,stairs up,0.0009585160464039857,0.11559281969994117,0.030879180289135996,-0.00024555297647397764,-0.8140284981244839,-0.3795508968867969
-0.9967388813693855,-1.47180175781,-0.12170410156,0.08597614025728914,0.29239669393576745,0.410536782032458,0.20178222656,0.68664550781,0.013396309880065493,0.11541867335949209,-0.20300156576960895,-0.46118164062,0.048828125,0.01293988391729015,0.11343541802719119,1.1239585971921788,0.55902320519,1.65054589167,0.051930560244837116,0.22724534182934117,stairs up,0.003183009232559637,0.17221951076999176,0.056260350675018576,-0.0010241772397609505,-1.3254103447634407,-0.08867747954541809
-0.8926162719701249,-1.28430175781,-0.53625488281,0.03609799555025208,0.18940006092412698,0.4161743164024375,0.04016113281,0.95239257812,0.04537777552053586,0.21235386604329226,0.07889556884806251,-0.40649414062,0.77233886718,0.08088208916414102,0.28350762971543664,1.0486596142740623,0.70948725328,1.47573721493,0.0380835405286219,0.19453924642682777,Null,0.004035781102195894,0.2769985564999615,0.0633289623340472,0.0005496859574096269,5.081328499439129,2.423763858971553
-0.41457544830595855,-0.94799804687,0.22265625,0.14238456769313043,0.3763599657496434,0.2767460482093264,-0.28674316406,1.28515625,0.17285107634205796,0.414675143829762,0.7464321314329015,-0.30151367187,1.78979492187,0.19136342436911277,0.4363162889872369,1.1185555600093782,0.42459411663,1.94062906286,0.05873408801359722,0.24172249856818231,Null,1.7537825618436005,7.263319750039955,1.3208692613444444,0.0016387158034740156,7.483194760848082,2.6379008699002156
0.15375304489713487,-0.75610351562,0.38061523437,0.07257617985856465,0.2686418591936942,0.28661697901685396,0.00671386718,0.88525390625,0.03412889152917863,0.18422040110560256,0.8590581658143257,0.32653808593,1.01818847656,0.025448775802958228,0.15907798449936375,0.9843633364136518,0.7172155275,1.13913832413,0.0063024387350753665,0.07916458662741535,Null,0.5439668625988945,3.629619687119998,0.73546642954576,0.007132383925433069,7.113920140637324,2.695031171797249
-0.9748601861297268,-1.18774414062,-0.75610351562,0.00895513000172099,0.09437263832859376,0.28568121904491806,0.12780761718,0.93884277343,0.019005985416391234,0.1374850085376068,-0.1627677542230601,-0.32092285156,0.36804199218,0.019072748939001297,0.13772627297361775,1.0469279315967215,0.86704134353,1.32244954034,0.009677736702799823,0.09810633463584652,Null,0.06396583447054204,0.9449526171899834,0.2522227079219237,0.004165133557412636,1.1705729232737143,-1.434058889149978
0.07357748452584419,-1.12890625,1.11010742187,0.5497251479330209,0.7390233447701594,0.3112166763883117,-0.18823242187,1.52893066406,0.21218549333104494,0.45913795906271127,-0.4778719815307792,-0.84509277343,-0.05212402343,0.04076170731855336,0.20123871622377718,1.0214627532416882,0.47698486872,1.78041333074,0.08357448079926007,0.2881523717853085,Null,0.004328114123298013,0.2392089836099558,0.06557445757407178,-0.0010614912711790724,-1.0446016717811575,-0.06817444975602142
-0.7860528781288324,-0.93859863281,-0.51892089843,0.008311660962497863,0.09093662513035876,0.5801512432544669,0.32824707031,0.91882324218,0.013562140820491573,0.116160653691656,-0.23525427803472077,-0.57177734375,0.06311035156,0.030338120846492036,0.17373577706695323,1.0275443210564972,0.82168329236,1.22380807508,0.005928818880438309,0.07680314676578323,Null,0.0026664621573989386,0.23951056300006712,0.05150657061481026,-0.00021813236964851173,2.749002352789007,1.553868245972313
0.021267594962356313,-0.85900878906,0.9736328125,0.29822177023973295,0.5445253456175978,0.32234139277827584,-1.06640625,1.17358398437,0.41697986698973843,0.6438815348901971,-0.4108444739995976,-0.95043945312,0.46472167968,0.089269503708278,0.29792022520050193,1.0157928000418963,0.44392006664,1.29005146237,0.04140012864431995,0.20288468860538003,Null,0.002460354807293331,0.21210731248993397,0.04945922398437396,-0.0005958418278841863,-0.2929948582553097,0.24828298146407565
0.21419096757951872,-0.79870605468,0.96032714843,0.4370364788993139,0.6593173632093001,0.6467128488432621,0.11572265625,1.1318359375,0.04500557681903634,0.21157718517185328,-0.29815445354042774,-0.73681640625,0.171875,0.05442741470617098,0.23267221366668409,1.0259600228445456,0.34500191041,1.48472969435,0.034200931553322204,0.1844397974169861,Null,0.004192161623615713,0.25783831728006135,0.06457355222549584,0.00027198968836811315,0.5478705266201298,1.2116814782449354
-0.7850357446890385,-1.67895507812,0.61779785156,0.24227260273874385,0.49063181025490826,0.4939316969610256,0.13220214843,0.83666992187,0.041347976655689914,0.2026892338613022,-0.18636850209935898,-0.37902832031,-0.02551269531,0.009956787929769688,0.09946337198244044,1.0626462807685255,0.52847489441,1.75286865553,0.057831920810233146,0.23971066594780865,Null,0.003784046593528906,0.34446669986004963,0.06131712554087991,0.0006244281529596999,7.553077921819627,2.4831453148238674
-0.7277363024218947,-0.93115234375,-0.44470214843,0.005758417421626805,0.07568427816602982,0.5116994757363684,0.35876464843,0.87023925781,0.01640858893542525,0.12775847502623172,-0.4419478566995789,-0.62377929687,0.27478027343,0.054921514515855786,0.23373586355786471,1.0298187430042105,0.91091549194,1.2383885683,0.0029259354081607584,0.05394938135064949,Null,0.0015868589674680976,0.17844878363996486,0.03973043012812263,-0.00019624126434121704,0.6098782982546247,0.9574485388845685
-0.43303135462851194,-0.85717773437,-0.12878417968,0.04422705759469082,0.2096754666132505,0.7306591215547025,0.1787109375,1.05419921875,0.061588368676935255,0.24743033614400325,-0.42078581310273816,-1.05810546875,0.24792480468,0.15475564088412255,0.39221738405513135,1.0665044387585716,0.65900266177,1.32940453433,0.020223129982535587,0.14178418180047453,Null,0.0011034501958487046,0.1284848391300102,0.03311920953043768,-4.5812324111938264e-05,0.24992160205128489,0.8522503025416697
-0.570544746591795,-1.23229980468,0.23254394531,0.18925020583570779,0.43391207860536357,0.6421493138991794,0.17944335937,1.2275390625,0.04731458692196272,0.21696070615360424,-0.2191788110958462,-0.82739257812,0.22680664062,0.09225878908335104,0.30296149439830106,1.0453657188612309,0.65730833817,1.39390876511,0.02036867607861976,0.14235245459597326,Null,0.0026782434071451577,0.3072598191999987,0.051618880514498325,7.389808723552686e-05,2.192150458806183,1.0119845151509166
-0.675894165035875,-0.93591308593,0.02014160156,0.0240656832008327,0.1546456358285855,0.7341575622525625,0.51904296875,0.98852539062,0.0065588305716646885,0.08073312752886379,-0.24825668334675002,-0.74829101562,0.07763671875,0.06241601577469505,0.24905002645272536,1.067453123325625,0.77442811854,1.36980913305,0.01052023658716927,0.10224717653069675,Null,0.003260077705613127,0.3015467054599412,0.0569183820918431,-0.00019462954355845954,3.885199211723241,1.543481182004351
-0.7871121181492133,-1.02734375,-0.62976074218,0.007327261273298773,0.08535863684550578,0.6302318787267416,0.52868652343,0.80871582031,0.0039830118156600315,0.0629335788334458,-0.0680130519219663,-0.26379394531,0.08068847656,0.010793474457204218,0.10359940617712841,1.0202266644017417,0.92364724386,1.184128222,0.002494619884764968,0.04980567403731458,Null,0.0003063180950935213,0.1059118667800476,0.01745271345432677,-4.5287723637517125e-05,7.097858458940987,1.9964418970647357
-0.7927781008566293,-0.97082519531,-0.65209960937,0.007459062289118486,0.08612292055427287,0.6457677262510112,0.45471191406,0.79614257812,0.00992453014346223,0.0993417050192889,0.0035777574168539337,-0.17724609375,0.1123046875,0.0031438789799901226,0.055912581218626495,1.0318121524602246,0.91261219647,1.12971931929,0.0013090586510967309,0.036079140635718,Null,0.00017474280389632204,0.054973720480006705,0.013181847471080716,4.507417832897085e-06,-0.1325785356420317,0.5828491167103934
-0.7934661215892019,-0.91882324218,-0.71069335937,0.002140468530795723,0.04614198803570599,0.6433858668512233,0.55114746093,0.73828125,0.0019171045446209863,0.04366814834661459,-0.07653094352239362,-0.26342773437,0.03076171875,0.0077180413282821785,0.08761842224647468,1.0296590602807445,0.92846208641,1.11993019518,0.0010640288832067678,0.0325325860500607,Null,0.00018109519012267082,0.05473531933000686,0.01342132325200404,0.0001541940007432517,-0.357307027342598,0.2172684536794956
-0.7158554974691764,-0.96569824218,0.20495605468,0.06211884265684063,0.24850238972701186,0.616600844435706,-0.07604980468,1.25817871093,0.027553099728062146,0.16550233433652303,-0.21471306295552947,-0.6875,-0.12084960937,0.011284596041196755,0.10591608029229478,1.001829861495059,0.28689520496,1.52607028584,0.035656744629786706,0.18827373442182765,Null,0.001482094180614729,0.23038309648995892,0.03838457997102859,-6.838510908229465e-05,5.352688380826127,-0.2678034208771782
-0.3172691608287931,-1.26293945312,0.49060058593,0.443078243243053,0.6637257088268829,-0.08366025727442518,-0.92907714843,0.90515136718,0.39604264215670204,0.6275081951798481,-0.3394024728318965,-0.8193359375,-0.03283691406,0.03424708133512588,0.18452712274514596,1.016820671672299,0.47469233349,1.52888850658,0.0576082115667033,0.23932640867867588,Null,0.008956154977579506,0.35840438035995703,0.094364626966549,0.0006344847587458998,1.3040163792651347,1.4228965408199392
-0.23271862051049721,-1.33740234375,0.68762207031,0.49050615515426776,0.6984240663067885,0.23716980317408834,-1.02282714843,1.1064453125,0.3107086273506157,0.55587049310074,-0.47445965339767954,-0.91015625,0.09985351562,0.062132481710147874,0.24857435171500256,1.0816479124099447,0.85667046748,1.63715405012,0.024268699191316113,0.15535320395896046,Null,0.002756502605508484,0.30165559209990533,0.052357170562831734,0.0007580997118126258,4.3062032643118195,1.6894093820661538
-0.2001651230642473,-1.18029785156,-0.068359375,0.0404100118960501,0.20048130528200556,-0.4473824449732795,-0.63024902343,0.484375,0.04669963005825332,0.21551927240590396,-0.7624852990553763,-0.93225097656,0.23486328125,0.050702309887154864,0.2245656180790938,0.9739638003139248,0.54441182045,1.34228654391,0.010120916414263327,0.10033196342718698,Null,0.008663254367856733,0.47807585636007843,0.09282606170397625,-0.00042372382507075904,5.563983400350891,2.084551123185576
-0.27517611994260116,-1.86877441406,0.82739257812,0.9137157127022771,0.9531181033781884,0.17767933751728324,-0.42175292968,0.96936035156,0.23279715007027507,0.48109406752107525,-0.3725000282207514,-0.63623046875,0.23156738281,0.024688330776111742,0.15667043008110676,1.1253604088042775,0.18207002971,1.91813338091,0.14488077084509204,0.3795303805256454,Null,0.0010642723114440218,0.1201245994900546,0.032528763400598106,-0.00015334101985489253,-0.7685389584765172,-0.22659999210315115
-0.19101653484149067,-1.01586914062,0.37634277343,0.264297340157621,0.5124995041671249,0.771438882954472,0.15783691406,1.15222167968,0.096163557622912,0.30913794403976025,-0.15318611097484472,-0.7451171875,0.28601074218,0.04928662314985889,0.22131537464839715,1.0225715125589439,0.72310350341,1.35708683187,0.016725141151839408,0.1289234590272161,Null,0.005203388322422953,0.3805128133000153,0.07191014629588861,-0.00022532961841614628,1.8485196847341179,1.1669990972543955
-0.963293904405288,-1.19836425781,-0.56884765625,0.020494601160632443,0.1427841012993926,0.26538213759445023,0.11572265625,0.7685546875,0.012346689950574686,0.11082439981706427,-0.26780628783157073,-0.62316894531,-0.08276367187,0.01313103294125671,0.11429034988873699,1.048179762997487,0.7685830912,1.35629105154,0.017224026870924728,0.1308963281370721,Null,0.015355361286578943,0.5527889644801007,0.12359193632623895,-0.0005689031023154093,6.290695140006715,2.5978041603400364
-0.8284912109334637,-1.07604980468,-0.34350585937,0.031939720337081964,0.17821696368543227,0.44763115397675973,0.04296875,0.78930664062,0.03940836423868847,0.19796011158628513,-0.22127187718011174,-0.47961425781,-0.01635742187,0.018955180334713335,0.1372926999971529,1.0068436622079329,0.7107243061,1.25765709479,0.011863473895477523,0.10861490461718408,Null,0.007472395878509552,0.34303480931009744,0.08620122185989007,0.0004009654929076875,0.25663995359314296,0.9836132795514457
-0.8037574725880662,-0.86791992187,-0.72082519531,0.0011269353078576108,0.03347699427869452,0.6188182514632043,0.47436523437,0.71740722656,0.0022859260155903244,0.04767910013926255,-0.12936148458729282,-0.2822265625,0.091796875,0.009794274612836891,0.09869226209993025,1.0287245984791713,0.97203860914,1.07687860119,0.0005594565201157533,0.023587403420366426,Null,0.004316158972507755,0.2742375609800547,0.06551574459883062,-0.00017247065478379682,0.5790337667465049,1.0012832341814046
-0.7652008227092737,-1.54382324218,0.33642578125,0.06430567253797276,0.2528762997410424,0.7129056280515642,0.50122070312,1.4970703125,0.04645392878811734,0.21492884783778202,-0.15076774724765363,-0.544921875,0.6552734375,0.04759511691172159,0.2175528037140291,1.101587130876592,0.70068331728,2.24007923417,0.060813234025753664,0.24591359313421376,Null,0.005328545707386464,0.32479189588002555,0.07279270084021719,-0.0007911300576177089,-0.10545617395909535,0.6733434954495993
0.05451399556601125,-1.32019042968,1.13684082031,0.44160856208488314,0.6626670469450539,0.25350300649556184,-0.41564941406,1.4716796875,0.2816767360508492,0.529239343281969,-0.4366688246104494,-0.85205078125,0.09924316406,0.08858944564026405,0.29680254737018535,1.0102358870292136,0.60435246345,1.48513355448,0.04490458763634436,0.21131094309593917,Null,0.0028811507016566853,0.2684050065499832,0.053525362789613465,-0.0005857028575704985,1.9186199578494305,0.8305237975201084
-0.7483155588603174,-1.91906738281,1.0322265625,0.5420228558584526,0.7342717549111226,0.2068303829759259,-0.55969238281,1.31652832031,0.15402021871218416,0.39141448225641345,-0.33977722490624335,-0.76635742187,0.34643554687,0.0647927751616386,0.2538699593205928,1.1613812626279894,0.29836848694,2.29676882829,0.12687868736608793,0.35525676849275956,Null,0.0019496929884938144,0.16033625595002832,0.044038360012333085,0.0005825681024062251,-1.2214731112991775,-0.06645105908515732
-0.83336966378,-1.60827636718,-0.123046875,0.17614740095623416,0.4184482100833637,0.522487822028869,0.09887695312,1.17419433593,0.08477363604727675,0.2902912865912528,-0.23989068893910714,-0.67980957031,0.34643554687,0.05998185234756286,0.24418193526991447,1.1373668657498215,0.66881268154,1.70778312099,0.05073743767629871,0.22457833626309928,Null,0.0015031895949673595,0.173949521920008,0.038655427016842776,-0.000291237845510285,2.2498379504119352,1.4678980004253686
-0.8398535417325134,-1.31372070312,-0.365234375,0.06418468953729475,0.2526686682266036,0.42360422062625663,0.11706542968,0.79089355468,0.02461578527611838,0.1564741194598585,-0.34043712921625663,-0.75256347656,-0.02282714843,0.04133722798025608,0.20277123387003024,1.0516454913435829,0.74278769066,1.3591938172,0.024167484938562845,0.1550427265343036,Null,0.0007302867933599691,0.10668552488004934,0.026951465941394165,-0.00023443266332396205,-0.5485874458081916,0.40021233329320555
-0.4347433651173529,-1.37744140625,0.16174316406,0.18591866878782506,0.4299128162309905,0.32044749540264705,-0.2431640625,1.09545898437,0.16054608536840098,0.39950181054776185,0.47423167509017655,-0.76647949218,1.216796875,0.29977194201796076,0.5459016190241143,1.0664720452077059,0.76233188698,1.44886459794,0.02378335770886486,0.1537642858556403,Null,0.014391610629035998,0.5224578661200212,0.11961168043265683,-0.001042508967550295,0.37782698185310926,0.7711427264263001
0.4746976412232307,-1.00354003906,0.66918945312,0.06648255923324761,0.25718013732022826,0.6972086588503077,0.17114257812,1.10583496093,0.05683330335354448,0.23778530340589596,-0.29051106770543583,-0.83374023437,0.18737792968,0.07802826415935636,0.27861823202179253,0.9912250691520003,0.64975899162,1.37615014328,0.013689100583243522,0.11670004313380529,Null,0.002203700139953658,0.15946386424991488,0.046823061770829566,0.00018420620290490421,-1.0074143156854987,0.3034215086165897
-0.4848018669923602,-2.32763671875,0.52868652343,0.5990313898953996,0.7715638003643609,0.27531101392385093,-0.61145019531,0.97619628906,0.1471848942804235,0.3824535297137196,-0.5747525232887578,-1.08142089843,0.23071289062,0.1270940381690966,0.35539363275854197,1.1582847201597515,0.27776618807,2.51244110114,0.1684784593891024,0.40918456633991585,Null,0.0024759701455504602,0.17288740378000966,0.04960434909354467,0.0002056978376312143,-1.0613526797076132,0.22449500925162175
-0.9288667719385637,-1.19250488281,0.11108398437,0.07002318523902769,0.26391423130963637,0.2828284730270745,0.03686523437,0.68823242187,0.0150573306304804,0.12238152820697949,-0.3182834057062233,-1.16442871093,-0.05053710937,0.03632383759221116,0.19008057683552237,1.068025272020266,0.74402457306,1.34589188667,0.024299608698185805,0.15546818150486452,Null,0.0005017616665464302,0.095834108210056,0.022340383199748584,0.00032031256495030676,0.0429320194525733,-0.916178392535129
0.19504822406448455,-1.57568359375,1.18176269531,0.5604892498671686,0.7467262751654669,0.44927852669809276,-0.21435546875,1.05017089843,0.16504856437959098,0.40521327542890284,-0.2910319849356185,-0.71142578125,0.09680175781,0.04567190035864429,0.21315834065747263,0.9992409554434021,0.3930062005,1.91099202412,0.0938302011113578,0.3055266605075356,stairs down,0.003550619750951697,0.24495146290996672,0.0594333036881427,0.0007704614239326323,0.2564321768178175,0.7081089508577705
-0.49110908742208587,-1.59313964843,0.75610351562,0.45522318803198525,0.6726294728431921,0.3978436241823926,-0.10485839843,1.49609375,0.12359606787627575,0.35048225317574244,-0.34017101825791407,-0.83837890625,0.01806640625,0.05801009335390028,0.24011289680195194,1.0326843815498157,0.6063869528,1.80948771716,0.08217352762675205,0.2857785778455451,stairs down,0.0030069284423967606,0.20360839145007503,0.0546670012771848,0.0008704837117967951,-0.9510122814684157,-0.1330129625825137
-0.0207492252976537,-1.33862304687,0.794921875,0.516285535981882,0.7165202434296976,0.6403338043350839,-0.26281738281,1.26623535156,0.09393732253024124,0.30563463975619504,-0.3576817006335195,-0.64794921875,-0.0927734375,0.018460013897040547,0.13548758366648708,1.0458998403730166,0.59708514383,1.61561756132,0.0700496506225581,0.26392861116647526,stairs down,0.0009425954022359651,0.1472012572199901,0.030615837505024883,0.00030577168149448187,0.9280840123125293,-0.7193432382266414
-0.656581235733427,-1.42419433593,0.88293457031,0.5778446889796183,0.7580226714961794,0.21899345483421348,-0.30285644531,0.55895996093,0.045394350999510655,0.21246017639946826,-0.3396675024106741,-0.6787109375,-0.08996582031,0.022465459197177597,0.14946320200052465,1.085177060915618,0.51571262944,1.59133442907,0.0592315181843167,0.2426906608137251,stairs down,0.000841052161652637,0.10505692051003734,0.028919321387413658,0.0003611981660409984,-0.9721212947612692,-0.22647255871840669
-1.0425187780464893,-1.97668457031,-0.32849121093,0.08126818675454146,0.2843165650563146,0.20161600315446807,-0.07971191406,0.513671875,0.014641437731387902,0.120679566387417,-0.17097245885659573,-0.43688964843,0.27526855468,0.02283846063898311,0.1507215295350054,1.0941271668595212,0.41978803764,2.01024977373,0.07814384485989052,0.27879775126538553,stairs down,0.0006195932612417067,0.10687497611002073,0.02482534093230775,0.00010275288862065327,-0.47425088638186086,0.4180941765028156
-1.0559278215641668,-1.7021484375,-0.48083496093,0.07737145154974372,0.2773281579560232,0.21474856421708333,-0.0107421875,0.611328125,0.015924540719838294,0.1258163414941879,-0.12107195172654762,-0.40319824218,0.17749023437,0.010883577983584561,0.10401343558070429,1.0977694723017262,0.54118871846,1.74012562918,0.0746650016618651,0.27243451897320853,stairs down,0.0033986782139703523,0.20433782847999282,0.05812441816058242,0.0010726775537157002,-0.3534003542038002,0.8174634348823941
-0.9766257681460366,-1.541015625,-0.4716796875,0.06104312160113399,0.2463146512999775,0.29796544516560974,0.09838867187,0.53576660156,0.01179795563787253,0.10828673457068998,-0.16979831602115855,-0.36242675781,0.02880859375,0.007642151020054536,0.08715246719528331,1.0454766710120122,0.53654896023,1.57864101868,0.05829274449278127,0.24070168451591878,stairs down,0.004420676704993393,0.24127868386995033,0.06628515187605168,0.0012737149060039268,-0.9861827628444164,-0.2713162129641395
-0.6084263578358511,-2.26416015625,0.87255859375,0.6838928001372288,0.8247757710292686,0.1747981943967553,-0.57885742187,0.84069824218,0.17080689603637655,0.41218727384167764,-0.294442684088883,-0.74243164062,0.00048828125,0.01908287238274974,0.13777288464141252,1.0986956783221278,0.27104274588,2.30408318888,0.1502352549554694,0.3865696978022175,stairs down,0.001264143642824908,0.16686410892998538,0.035460111033554446,0.00015545824186227514,0.43308861653495656,-0.3105257024837256
-0.9802977174157143,-1.21850585937,-0.69848632812,0.01893603782951378,0.1372297113077753,0.24546998411373622,0.16296386718,0.33544921875,0.002122724072942252,0.04594628117552227,-0.20174265431406596,-0.34204101562,-0.04675292968,0.004364623538854013,0.06588354947054942,1.0336315224547803,0.74557206254,1.28675820128,0.020373375993576942,0.14234266530888975,stairs down,9.946193733834999e-05,0.03966407861003063,0.009945624323145847,-6.002043121121235e-05,-0.8535680900346212,0.04745109181269295
-0.9677418912354493,-1.67956542968,-0.5166015625,0.06915405696659409,0.26223186501373075,0.2021518664372472,-0.0380859375,0.41259765625,0.008632842839459037,0.09265173350986708,-0.19451835717696628,-0.52160644531,0.09533691406,0.020840684277190727,0.14395694419253088,1.0246547996294944,0.61928820129,1.71295365551,0.063741271595377,0.25176015285176145,stairs down,0.0023000091854911927,0.17347519648001253,0.047823506621458685,0.0007921485823388972,-0.667560814785797,0.6367024577941417
-0.8327063460340884,-1.39685058593,0.59729003906,0.20075031064137674,0.44681225688540216,0.2203382629037017,-0.38146972656,0.87646484375,0.08975340260113256,0.2987599830108445,-0.16225707333165748,-0.65307617187,0.37255859375,0.03941438297533585,0.19798137274342925,1.017264428566685,0.54756528341,1.61113643083,0.0618865077555063,0.24808182792783778,stairs down,0.0049668425584908265,0.26913823378004054,0.07028087534588014,0.001233033632817622,-1.2827439765997166,-0.10542050268038913
0.23684123410847455,-1.31958007812,0.84765625,0.34466232043135786,0.5854187182548557,0.75669938426661,-0.1083984375,1.51318359375,0.12132956599838876,0.3473385786583266,-0.2937018615351412,-0.69494628906,0.19982910156,0.030096682549725248,0.17299319291581106,1.0471203557165536,0.40778480888,2.02142942786,0.1124083565989257,0.3343251129333763,stairs down,0.0024540148389827735,0.21427063354997244,0.04939787797433258,0.0007069532070372384,-0.8158650581334004,0.011137143358120093
-0.8933194478316667,-1.36547851562,0.52941894531,0.16773235430910077,0.40848347371353255,0.35058911641124996,0.15625,0.89880371093,0.03118180564439056,0.17612325345240293,-0.25420888264640623,-0.70776367187,-0.12463378906,0.012064721721359415,0.1095531132787228,1.073728364935573,0.58425524499,1.50012752865,0.04276468483700862,0.20625700498039462,stairs down,0.000978683850451644,0.1268219225099756,0.031202348288719258,0.000442959451356392,0.2941673455999352,-0.9232048852338137
-1.0140380859334757,-1.5810546875,-0.45886230468,0.05433670289670574,0.23239057970920313,0.3236932521873171,0.04174804687,1.26586914062,0.04538292814939971,0.21238220965456836,-0.18674748118030488,-0.55187988281,0.16052246093,0.024248237674901706,0.15524297912346283,1.107698146345366,0.5872162915,1.82441271745,0.06453547562613614,0.25326264357069284,stairs down,0.0010767588574630259,0.18418375798000852,0.03271380831810349,0.0001939959965260332,4.850891443799122,1.929436101847767
-0.490351305507842,-1.29016113281,1.01306152343,0.442763811191811,0.663651621970016,0.5013151469944209,-0.1279296875,1.15112304687,0.12013236360503293,0.3456878476416429,-0.1814241108114737,-0.4658203125,0.2744140625,0.03433392738989397,0.18480590496219143,1.0304399223015788,0.56040742847,1.58093689638,0.05725769608758062,0.2386552739672493,stairs down,0.005170175724429344,0.441058332390071,0.07171446348713861,0.00068428366192332,6.91036124394026,1.7736891858643415
-0.49045381091619056,-1.6376953125,0.50317382812,0.26872148566367304,0.5168384206025256,0.6170378185419643,0.10473632812,1.42919921875,0.12680402803285923,0.3550341422338298,-0.2529028029632143,-0.50378417968,0.07080078125,0.020875531831877885,0.1440530204953405,1.017203792623393,0.22376597075,1.67704860629,0.06484533418313944,0.25388845986199715,stairs down,0.004683773083728624,0.2502663059599399,0.06823410790828707,0.0012931318481618453,-1.0220442000907561,-0.25401707594654377
-1.0133760413309694,-1.39465332031,-0.60607910156,0.042088095794165614,0.2046298135940663,0.2900944923837755,0.09265136718,0.48193359375,0.01060946313127252,0.10273915133646694,-0.27387284259,-0.43701171875,-0.064453125,0.005441986760978382,0.07358139386014621,1.0967527195970408,0.69021890274,1.46221665364,0.041279144854105145,0.202653736635169,stairs down,0.0002855920066178648,0.0704857234300107,0.016856301627085457,1.772391388621172e-05,-0.39094193298936597,0.4985654365934208
-0.4990814208968751,-1.47375488281,0.69519042968,0.5604525414500939,0.7462906357887863,0.40640869140281255,0.11926269531,1.37573242187,0.06452370979480167,0.25322013468242244,-0.2051818847623125,-0.36486816406,0.05004882812,0.009262774200353421,0.0959420755539571,1.0124786216328123,0.46554098011,1.53892966244,0.061898834958820106,0.24801606246436436,stairs down,0.002430175711556556,0.24609078762000536,0.04914251838641694,-0.00031827160000451565,1.9989497631183637,0.46420172382778097
0.5968585947796297,0.24047851562,0.94128417968,0.02924739086147282,0.17056565528170278,0.7636376436386243,0.37634277343,1.34118652343,0.059338580272907046,0.24294982924612718,-0.022468687996190475,-0.62622070312,0.69201660156,0.04423956566862859,0.2097748647779426,1.0007314811486243,0.48054385955,1.64473722622,0.07092198229194063,0.26560635103172026,stairs down,0.0034468524015028846,0.24968960610999602,0.05855437718231848,0.001021779038548176,-0.2955045614064957,-0.03353654858770212
0.23421536958923075,-1.29748535156,1.001953125,0.37035330154039847,0.6067634315664658,0.7441586827352071,0.111328125,1.58374023437,0.0861343448094244,0.29261694094853546,-0.13013634314692307,-0.6083984375,0.32543945312,0.04015327227167454,0.19978908614992763,1.0155120994136686,0.47031741345,1.8864853677,0.08852566365095874,0.2966510461063346,stairs down,0.008088957729490417,0.34162230767992696,0.08967214770644413,0.0017032736677644543,-0.7978329259193031,0.31097223143585123
-1.0341265584483421,-1.68981933593,-0.64331054687,0.0477329582162098,0.21791199413796114,0.25888456828419687,0.00952148437,0.40600585937,0.004774122100003954,0.06891578713231178,-0.20546773801440418,-0.39660644531,-0.01806640625,0.004966707427204581,0.0702920563921021,1.0915367904040416,0.69466404197,1.71675110236,0.04461052385020955,0.2106641432223023,stairs down,0.0017234543449496178,0.1602093166600298,0.04140681743011423,0.0006688165251568405,-0.4204027458165336,-0.8177067518263288
-0.9931339216779012,-1.24267578125,-0.65856933593,0.026867551289261587,0.16340655497020035,0.23915382667499996,0.12097167968,0.35693359375,0.0024139450245087256,0.04898003806956166,-0.23322362075265435,-0.31066894531,-0.08752441406,0.002389929841842014,0.04873578960576416,1.0502505499091357,0.70803380458,1.3196174835,0.026516182557790976,0.1623345385878968,stairs down,7.168206772732773e-05,0.03258101340009034,0.008440354603201002,1.0686732106566279e-05,-0.7222334649980557,-0.5783697343777923
-0.9624050266102748,-1.57287597656,-0.53833007812,0.05062791671461262,0.2243874803727891,0.2672125847746154,-0.18212890625,0.58410644531,0.01899061125564297,0.13742731619934526,-0.23141378884401095,-0.72058105468,0.01623535156,0.018926761827133532,0.1371960955358466,1.0438456097443956,0.60396217442,1.59188615045,0.0498976253855193,0.22276324339683104,stairs down,0.0030514995942097557,0.22645788606996575,0.05508841178435705,0.0007417048764463047,1.1145697926542493,1.1286911897118528
-0.9052411660347701,-1.46496582031,-0.427734375,0.07271442091520652,0.26888012560326857,0.3003694380804023,-0.05859375,0.83923339843,0.037879689986529116,0.19406697457009642,-0.2753997451923564,-0.64758300781,0.21728515625,0.028820729671076684,0.1692781536219506,1.0216840730938506,0.51922245457,1.74314331555,0.08076783125183606,0.283378983542547,stairs down,0.006955930962565339,0.31902310043005855,0.08316221706903894,0.001288869730873737,-0.521050614108244,0.4312568905374124
-1.0504040746592216,-1.71997070312,-0.47644042968,0.07210995469220544,0.26772776949043586,0.41481392682994,0.02355957031,1.07946777343,0.061821547971931685,0.2478938463575087,-0.2022873198876048,-0.49560546875,0.05078125,0.01472897951791661,0.1209990993180255,1.1840328274002394,0.73858363907,1.94194350301,0.06255059147347862,0.24935123226789488,Null,0.003623496142307397,0.33101777827994283,0.06001498613360611,0.0007315204589842184,5.386157593068953,2.1113317297002507
-0.5248462194654023,-0.98303222656,-0.23376464843,0.02346736030924479,0.15274976406662646,0.892324864176092,0.640625,1.18322753906,0.009667824633282002,0.09804214615534433,-0.038971298041321836,-0.36791992187,0.13330078125,0.010268251061066314,0.1010407745612322,1.0520749540604024,0.86560774727,1.34615861356,0.009573280243875071,0.09756157743650302,Null,0.030182930413186145,0.6690783491499133,0.17323240255757288,0.0015974758633604095,-0.8450794097698036,0.36122535973970504
-0.753192711926188,-1.36242675781,-0.25158691406,0.10214874228395725,0.3187230531225827,0.5855766844313813,0.06567382812,0.92651367187,0.073607642257012,0.27055677814525997,-0.1895205671583425,-0.63366699218,0.07971191406,0.024976535700209357,0.15760248662461976,1.0485126412843093,0.56012162084,1.44371673537,0.04662006911646813,0.21531952924394876,Null,0.058068131723107236,0.9637496361500553,0.24030670676407942,-0.001107646231374477,-0.4327039661458212,-0.5004314785456375
-1.5039352829355135,-3.3505859375,-0.18017578125,0.5472745694168643,0.7377779669393072,0.4108530405378379,-0.75048828125,1.59313964843,0.2519663331147547,0.5006039881340899,-0.04443095439140541,-1.23474121093,1.52001953125,0.3632840917378797,0.6010993211980047,1.7773519713220542,0.97888204905,3.37648020621,0.4321928890842486,0.6556345867214564,stairs up,0.01681084866502377,0.5269086151199645,0.12930575862188196,-0.0012319239510409628,-0.4138467494191267,0.09612754089328206
-1.783292923846322,-3.06811523437,-0.28491210937,0.5406205821108273,0.7331531676744703,0.3622043653448276,-1.29077148437,2.23461914062,0.5943318754807488,0.7687107226043821,0.04518495757086208,-1.02844238281,1.46752929687,0.43579593720835846,0.6582487089668967,2.0974697306761496,0.63274810604,3.46494873644,0.4753473394066071,0.6874703325567217,stairs up,0.009575149727964213,0.477828799860049,0.09757110295485281,-0.0010451087536631088,-0.058141437052354306,0.3120557811064969
-0.8768103257637738,-2.71435546875,0.65856933593,0.587990209119142,0.7643900558546414,0.46985477471169806,-0.74450683593,1.07214355468,0.13441460434261346,0.36547124301719575,-0.1959074968052201,-0.93151855468,1.11389160156,0.12630238935412483,0.3542711316267512,1.3036411976356599,0.46443987379,2.75299499802,0.1729161766083815,0.4145221990256473,Null,0.0011011643586091191,0.14912149897998006,0.03307928047290763,-1.6123402037385538e-05,1.741017723234049,1.1425792609597476
-0.7132358550996355,-1.30334472656,0.46862792968,0.26949951203201195,0.5177797492565527,0.422302881873802,-0.00732421875,1.08166503906,0.08278936210076915,0.28698112743958326,-0.2671883900930208,-0.73352050781,0.01342773437,0.04242528092412555,0.20543689035641188,1.0595257921692707,0.56047634518,1.59465185528,0.028647397931614246,0.16881407741670643,Null,0.0034222361433152025,0.2803551815300125,0.058347339242980356,-0.0001440646908571749,3.4936930144169382,1.6866147962762497
-0.6198054599191524,-1.70922851562,0.73461914062,0.5645880414420583,0.7492651590031782,0.3638247042688136,-0.53125,1.31359863281,0.136085428282958,0.367854025471206,-0.3312408964478531,-0.71069335937,0.05090332031,0.025752011359400875,0.1600203729835665,1.0851681716196047,0.19475456656,1.90355242923,0.171950649283843,0.41349628376687864,Null,0.001521336635513292,0.1508678202600322,0.03889397785363119,-0.0003799025545361951,-0.37807551859274957,0.5103113141395735
-1.0011676290721196,-1.34509277343,-0.6357421875,0.01442760922998091,0.11978813927201955,0.22554878566152176,0.08801269531,0.41430664062,0.0038142617084785486,0.06159165548416681,-0.19124437414739132,-0.43017578125,-0.09643554687,0.006624707468375683,0.0811708298801907,1.0479226538145108,0.66202192376,1.43897918083,0.016462301471875766,0.12795636929100992,Null,0.00023086320554270622,0.06187840707002579,0.015152838486839189,0.00018094639089221137,-0.2915351637726342,-0.2895561361009992
