avg_accX,min_accX,max_accX,var_accX,std_accX,avg_accY,min_accY,max_accY,var_accY,std_accY,avg_accZ,min_accZ,max_accZ,var_accZ,std_accZ,avg_magnitude,min_magnitude,max_magnitude,var_magnitude,std_magnitude,Label,var_pressure,range_pressure,std_pressure,slope_pressure,kurtosis_pressure,skew_pressure
-0.9509384866781347,-0.95983886718,-0.9345703125,2.023713527521155e-05,0.004486900896166966,0.27154129897569945,0.25231933593,0.29113769531,7.698452342670257e-05,0.008751322179284201,-0.22721775825362694,-0.23950195312,-0.21606445312,3.713546947325184e-05,0.006078080101012414,1.0147693049150779,1.00183378404,1.02314339117,2.363339615576306e-05,0.004848808443931401,Null,2.324590012238476e-05,0.020891358719950404,0.004808893328410439,-3.371711765794098e-06,-0.4053873303169486,0.08305197348740767
-0.9586950683550001,-1.05041503906,-0.90930175781,0.0007902996788642807,0.028041900443264527,0.2934423828083,0.12866210937,0.40979003906,0.005531536358704195,0.07418813029663622,-0.1620361328085,-0.25280761718,-0.00012207031,0.00486349400562057,0.06956419003763695,1.0209415233421,0.98360028889,1.07624795855,0.0002695314210144185,0.01637631716563118,Null,0.002205637170771786,0.2284926711499793,0.04684665393513102,-0.00017661964632132728,0.8136313660840235,0.5735812373524972
-0.9647045898403,-1.19372558593,-0.87048339843,0.003206706831764046,0.056486045158120474,0.2814465331994,0.22302246093,0.33947753906,0.0008110763125287987,0.0284081138227471,-0.19518310546519999,-0.23803710937,-0.07153320312,0.0022301556537046925,0.047106314602568616,1.0254946568671999,0.90999357873,1.23123411565,0.002553717797188049,0.05040782883840673,Null,0.0025540890292047877,0.28150997161992564,0.0504114925791606,0.0003300485911662061,1.1976329456673716,0.8398530760168408
-0.9731555175750001,-1.173828125,-0.76904296875,0.011573619307825755,0.1073114682188564,0.2561389160114,0.04333496093,0.48083496093,0.011365885798848093,0.10634404717638807,-0.004796142577300006,-0.21301269531,0.44372558593,0.02615163143291651,0.16130986726097052,1.0243277950715,0.80448804624,1.23612920839,0.012321666097699704,0.11072514514423183,Null,0.0037445067569266788,0.24255583685999227,0.06103920234686922,-2.121076463070436e-06,-0.6569134549228832,0.3191808736612903
-0.9675744628875,-1.01953125,-0.90185546875,0.00040167649637008366,0.01999170112542285,0.270234374996,0.18981933593,0.35021972656,0.0016916226862074266,0.04102638873671907,-0.12392578124629999,-0.18322753906,-0.00524902343,0.0012483432065432667,0.03524346025166301,1.0136850939983,0.94205776004,1.05047944141,0.00035379125684774826,0.018762257341895443,Null,0.0016283215391637129,0.13440644308002447,0.040251458749564525,8.9560192548283e-05,-1.2371930072771393,-0.051750170130865726
-0.9656237792924,-0.97692871093,-0.95837402343,2.4328248281689727e-05,0.004920021040634001,0.2585339355434,0.20727539062,0.29211425781,0.00048320200428013095,0.021926832745718893,-0.1803698730432,-0.21569824218,-0.16418457031,0.00012309649929600764,0.01106711420378084,1.0160660327831,1.00231858516,1.02893043958,3.986000831589392e-05,0.006297674830785919,Null,0.0016552589827149905,0.1621897916600119,0.04058303448242154,0.00020585300433215552,-0.1961450331152399,0.6821593640172247
-0.9665191650360501,-1.00744628906,-0.92114257812,0.0002407928713625406,0.015478659728985836,0.24906372069965002,0.1552734375,0.30444335937,0.0011345026944922624,0.033598068114399096,-0.15283691405935002,-0.21313476562,0.06115722656,0.004367732198839399,0.06592339143160948,1.0123639388091,0.94109779464,1.04455931603,0.0003866569591689773,0.019614374177452935,Null,0.0006856214422393799,0.13432605171999512,0.02611883104252912,1.9887660853939708e-05,0.11152737635085241,0.06934363890770938
-0.9784387888607107,-1.21545410156,-0.76940917968,0.01553416951190145,0.1243194106306685,0.22861476839741116,0.07690429687,0.42749023437,0.00985637718085801,0.09902699030760036,-0.10720499880705585,-0.17468261718,0.0234375,0.003274338751091758,0.057076420194358435,1.0166037473691878,0.8046370833,1.27034800152,0.016218614885736914,0.12702868530923664,Null,0.005872922124972631,0.3069313308000119,0.07644024030271113,-0.00011683769021202674,-0.7821218919010082,0.3823683719312496
-0.9868025632214434,-1.19885253906,-0.77917480468,0.013184787348858928,0.11452870612852072,0.2281078849836598,0.07397460937,0.45153808593,0.011471850849272743,0.10683032152657956,-0.06148190842365979,-0.19897460937,0.171875,0.007441375658652659,0.08604079295406777,1.022903851245567,0.79680392004,1.26442998229,0.014170207792433666,0.11873148480594878,Null,0.004575749077621837,0.2935038888699637,0.0674697172231378,7.29217344553636e-05,0.09040428330086403,0.5394947420121158
-0.9722350754630891,-1.09289550781,-0.90319824218,0.0015169569754367865,0.038846039596325856,0.26998821477801044,0.16284179687,0.47839355468,0.004464956053734969,0.06664517477259206,-0.09137697868701573,-0.197265625,0.21984863281,0.007530944053549135,0.08655353850126962,1.019215409292513,0.96746363141,1.14566180794,0.0011324178028261835,0.03356320774011553,Null,0.0014205305181266468,0.1490266203900319,0.03759113174102384,-0.00012341420099598862,-0.4315262889483553,0.23140001398713442
-0.9679416088311701,-0.99206542968,-0.93298339843,0.00014189859333565145,0.011880396188000889,0.2672508726695213,0.17797851562,0.43859863281,0.002479131914311556,0.04965828271725594,-0.13680575755914892,-0.18078613281,-0.03540039062,0.0014154050829502842,0.037521678167548145,1.015393633048351,1.00125922701,1.03492850911,7.264189133647465e-05,0.008500323423108727,Null,0.0021590833715846047,0.17844808713005023,0.04634219336161742,0.00017635335052911395,-0.761655154555775,-0.4473145098020321
-0.9684175531876597,-0.97570800781,-0.9609375,1.2737673311650633e-05,0.0035594830706446243,0.23786049700409576,0.22106933593,0.25427246093,4.9526397251317887e-05,0.007018757651327348,-0.1791479232426596,-0.19763183593,-0.15673828125,5.076449527961388e-05,0.007105946197977586,1.0132007294764362,1.00270828433,1.02434722129,2.1262774303645558e-05,0.004598877519605006,Null,0.001359518825794001,0.17597977227001138,0.03677345975942535,-0.00017163692136596025,1.0022584260077725,0.8165500743437806
-0.942694842493155,-0.9736328125,-0.91027832031,0.0004454285675813515,0.021048672087134585,0.23279526654037433,0.20837402343,0.25830078125,0.00024050685292113406,0.015466761781892565,-0.18109751002283425,-0.20007324218,-0.16870117187,5.591414527032678e-05,0.00745755584262609,0.9878380108816576,0.9520812182,1.02420423629,0.0005805616432306865,0.024030335734501824,lift down,0.0022316793688372046,0.1678398113399453,0.04711417254463192,0.0007723820483138734,-0.4085190439908839,0.9065338457209864
-0.9667537120123204,-0.97631835937,-0.95703125,1.8984855065115182e-05,0.004345108325818583,0.25107233036491716,0.24206542968,0.2666015625,2.8415570386697724e-05,0.005315879822297882,-0.17987566362712706,-0.19140625,-0.16357421875,3.173756427416204e-05,0.005618026220585729,1.0149213865801106,1.00611321662,1.02339336067,1.8692229428012646e-05,0.004311491324614085,lift down,0.016186984708615345,0.45495259458004966,0.126876135872242,0.002424197636360578,-1.161791617862949,-0.0007150427827251278
-0.9918587424501705,-1.02368164062,-0.96069335937,0.0004882633202232134,0.022033817118530648,0.24755165793301137,0.22448730468,0.26342773437,7.969936574513624e-05,0.008902051922998772,-0.1866247003693182,-0.20629882812,-0.17626953125,4.179502268626397e-05,0.006446514637108617,1.039245458413125,1.0093895232,1.07335867696,0.0004722205241181195,0.021668812910687042,lift down,0.009688003119927633,0.294984077310005,0.0981476319003944,0.0018819045998794076,-1.2103564754468903,-0.45557989701274404
-0.9794432174290116,-1.12255859375,-0.88928222656,0.0015504939967478464,0.0392616797496841,0.21585934660802325,0.04931640625,0.34594726562,0.003592250414478586,0.05976090057596373,-0.14384141078813953,-0.19689941406,-0.03344726562,0.002786247795589226,0.052631251937404935,1.0165631830155233,0.9587180162,1.15928799798,0.0010831106497767957,0.03281483650479205,Null,0.0016368035403946737,0.20049155350000092,0.04033964849550894,-0.0001605922530771436,1.9485733134133634,-0.6081444933554507
-0.9906515682410589,-1.17980957031,-0.84130859375,0.0070161102919911855,0.08351550188425783,0.21483154296482354,0.04321289062,0.40368652343,0.00931464208837196,0.09622811479025982,-0.06445097081482352,-0.17468261718,0.08239746093,0.004522593675918104,0.06705214525805137,1.0224001178055884,0.854275398,1.22027719009,0.00716789164463467,0.08441402475973302,Null,0.0053248321951305105,0.2632823646599718,0.0727565093500658,-0.00015273658020382183,-0.4694194525839399,0.6386200959279215
-0.9795786539684525,-1.07019042968,-0.91198730468,0.0006509307890525386,0.02543729940505603,0.25650751022708335,0.05432128906,0.34448242187,0.004286282782141177,0.06527456774389426,-0.04920378185166666,-0.16088867187,0.05651855468,0.0016733049268923604,0.04078412409894322,1.0167580555404168,0.95741318847,1.11033710883,0.000569068238470418,0.023784047753213532,Null,0.0008867613789652604,0.1359443699999474,0.029689780016426536,0.00034686506914256745,0.04498481014104749,-0.5947628030572861
-0.9817254859242168,-1.32019042968,-0.74377441406,0.01979997488006034,0.14028791082253503,0.2328439735466867,0.0654296875,0.4970703125,0.01175383557008133,0.1080880628548192,-0.0503841538,-0.1640625,0.09924316406,0.003940745137844414,0.06258598652496565,1.0170465214318674,0.75361021683,1.37253717373,0.021566835588633954,0.14641350652285082,Null,0.0057321842560198255,0.3458306832700373,0.0754827995344759,-0.00027758559551881645,1.5159117574223986,0.8651136219718173
-0.9960705341707976,-1.17980957031,-0.80334472656,0.0068073452167296405,0.08225316019849495,0.15433506877521472,0.02160644531,0.37329101562,0.007317302131716264,0.08527843049444159,0.027516745350000007,-0.11547851562,0.16149902343,0.004773682615886944,0.06887957766617374,1.0140934798715953,0.81584545203,1.19195122683,0.007173808233674037,0.08443812610554496,stairs up,0.0035923912853732505,0.2760280675299782,0.059752423172901845,-0.0007104358687686155,0.2845412203217932,0.4368210919597935
-0.9930738366127329,-1.17797851562,-0.85034179687,0.007978065781717988,0.08904219549238908,0.14873698927254658,0.00610351562,0.30834960937,0.007963001718866393,0.08895809171099059,0.0183302600931677,-0.06970214843,0.15979003906,0.0035448359136835577,0.05935333435716019,1.0098579898392546,0.86342255484,1.18598036405,0.008257336497711359,0.09058724354663712,stairs up,0.00512083049405606,0.29095088935991953,0.07133739617810465,-0.0006898710480469266,-0.10910717810688286,0.627273315301842
-0.9926903682649055,-1.20739746093,-0.80810546875,0.008277762797184937,0.09069565257466744,0.19114752235232704,0.0341796875,0.39965820312,0.009457048239147408,0.09694106430370547,0.017450680522893086,-0.08020019531,0.17651367187,0.004571654061619836,0.06740104984606535,1.0178794508125786,0.82223250623,1.2111698666,0.008416599865126422,0.09145307690165332,stairs up,0.00533022413310496,0.2905621493699755,0.07277843575458444,-0.000859338092217009,-0.1500644802687474,0.5049278206596168
-0.9766052634817196,-1.20861816406,-0.82531738281,0.00876545120245268,0.09332534651997816,0.23458492983318466,0.03491210937,0.45092773437,0.011993848710803988,0.10916709563770048,-0.03294809912191083,-0.1728515625,0.10083007812,0.0038659924831052025,0.06197877319826407,1.0128413826822293,0.85123036408,1.24788891623,0.008548734666645021,0.09216444068819073,Null,0.00743906341858094,0.36304962014003195,0.08597488498995412,-0.0004264973356329129,1.076459914558253,1.126978221582309
-0.9805720402603205,-1.21020507812,-0.84985351562,0.005062276539111512,0.07092126654591119,0.26551779722205127,0.10571289062,0.40747070312,0.006656826185110591,0.08132745060793141,-0.02833439753435897,-0.19836425781,0.29846191406,0.014855107560885882,0.12149025686209847,1.0266415298358333,0.9215665479,1.26204269195,0.005268871684035774,0.07235396924528996,Null,0.002489635075869929,0.23698641385999508,0.049736062134688896,0.0002486991890146715,-0.02242333585581502,0.5790631987941832
-0.9771229137040909,-1.02490234375,-0.96057128906,0.00014074168440266537,0.01182487959182205,0.2575532987483767,0.19189453125,0.29150390625,0.00035809990000477287,0.01886198759353764,-0.08536202566610389,-0.13830566406,-0.056640625,0.0003194960337048078,0.01781632353027122,1.0144499731636363,1.00301696486,1.05184446666,9.44546327023989e-05,0.009687171461866673,Null,0.0002908414984981927,0.0816122544999871,0.016998615159450888,0.0001806047133926228,-0.14537035971268963,-0.0056670666446408035
-0.9683359183479083,-1.18811035156,-0.74133300781,0.017625762685927648,0.1323274787133078,0.27572332643620917,0.10302734375,0.509765625,0.01113339812244671,0.10516953367994393,-0.05475292330300653,-0.19262695312,0.11938476562,0.005574428334037054,0.07441770059548444,1.0154604398496079,0.77023881246,1.27196438543,0.019774211021726735,0.140160507320837,Null,0.008272330809518358,0.33248637527003666,0.09065463743178018,-0.000539938181249021,-0.99134187600204,0.12281056790499784
-0.9959021561945695,-1.26281738281,-0.85729980468,0.011825362147769998,0.10838380179326729,0.18518308929721855,0.03576660156,0.32080078125,0.00586344032887454,0.07631912996241337,0.02321033603986755,-0.08215332031,0.16064453125,0.004396762855430251,0.06608816248486621,1.0187275060334438,0.87385228361,1.27004483911,0.010858080551610099,0.1038565006794833,stairs up,0.005283265597604075,0.3011744242299983,0.07244499350343443,-0.0005891029171279019,-0.6755432963521852,0.3462178842747559
-0.9916266363974323,-1.25500488281,-0.84130859375,0.009536089101994787,0.09732243352650945,0.17217935097743245,-0.02734375,0.36218261718,0.01177844293589439,0.10816126322303753,-0.023166140992837838,-0.12536621093,0.10314941406,0.0033475671129803556,0.05766236568396261,1.0140012645822973,0.86482467595,1.26015095103,0.009869368699433518,0.09900850355292062,stairs up,0.0054125266203324295,0.3084103616899938,0.0733209076220376,-0.0007434990057567715,-0.4505078683366115,0.17103909106393553
-0.9913470293989864,-1.29638671875,-0.78442382812,0.011594978425707649,0.10731558124002916,0.16102393897486486,0.00354003906,0.30993652343,0.008576720980318996,0.09229718393799677,0.017286970808310813,-0.08984375,0.17272949218,0.004637973349457999,0.06787220117022426,1.0111953929179054,0.82061133618,1.29889815292,0.01119806072573285,0.1054627808909934,stairs up,0.011056161728127444,0.40925164384998425,0.10479245169699544,-0.0014425319810438752,1.2915906848163559,1.2978345169863434
-0.974327285051658,-1.28210449218,-0.80004882812,0.015507755129496875,0.12420710151456614,0.23263818611974094,0.04321289062,0.43676757812,0.011916999702706552,0.10888183315070193,-0.040070686932227984,-0.15600585937,0.11364746093,0.005093750624651843,0.0711853786557933,1.0106094919609845,0.82018984831,1.28411527406,0.016141951591608254,0.12672140520342037,stairs up,0.006981981050897985,0.2984362137200378,0.0833414961665361,-0.0006276541963609054,-0.8302190956072852,0.49271394834249943
-0.971609206423512,-1.20568847656,-0.80126953125,0.014033197731391892,0.11810870752198824,0.2776009695834524,0.16625976562,0.48498535156,0.007707712185694491,0.08753189673766888,0.014907110305178571,-0.14270019531,0.18481445312,0.006878067955799918,0.08268692203190679,1.016918881114107,0.83246472309,1.29190105829,0.015694473094057165,0.1249041777177787,stairs up,0.005516688251528274,0.29471286450996104,0.07405302709180532,-7.62793799079132e-05,1.3921307438736479,1.3474853262563204
-0.9921850087660204,-1.42932128906,-0.80871582031,0.023083483249459052,0.1515444171711295,0.21652595364015303,-0.06872558593,0.38854980468,0.009752468693201913,0.09850234108826679,0.0004633689420918368,-0.11779785156,0.13134765625,0.005277142450654725,0.07245838981427834,1.0214856205431633,0.82100443041,1.47315603725,0.02494395480644319,0.1575331385166312,stairs up,0.0059100590484295465,0.27273346152992417,0.07668054307278711,-0.00039671529614989504,-0.16873942656098162,1.0586232445421375
-1.0056506498320987,-1.20678710937,-0.88879394531,0.007096002687183454,0.08397737910568595,0.1887011115898148,0.06457519531,0.32861328125,0.005677859404400657,0.0751186454188218,-0.021643367813395063,-0.14819335937,0.11437988281,0.005003329035524344,0.07051556061176481,1.029131981392099,0.91826314872,1.21132824653,0.0060016418215961785,0.07723078822502027,stairs up,0.004650099801209381,0.27524665971998274,0.067980846430806,-0.0007917724788381108,-0.06209436385519718,0.8182815293619197
-0.8518303073142347,-1.27551269531,-0.43981933593,0.06613323647470926,0.25650696287410896,0.4995422363248979,-0.08215332031,0.98168945312,0.07416879998951223,0.27164386196759127,0.056247633330663266,-0.12841796875,0.31701660156,0.02060388231545605,0.14317388193000777,1.0583444350658162,0.79274066219,1.42628279447,0.018407055112496074,0.13532605649321103,stairs up,0.009047532945290936,0.34930009368997617,0.09487556093598079,0.0003231751917191002,-0.8906579334195994,0.23144591480719173
-0.978314024025404,-1.13928222656,-0.79760742187,0.006289219565492539,0.07910408226073597,0.34002130681469683,0.19775390625,0.4677734375,0.003764043233424597,0.061196674044133044,-0.12683290423459598,-0.29650878906,0.07678222656,0.00844226020763431,0.09164945460731327,1.0494327793520202,0.90708100102,1.22083530778,0.005922267627202634,0.07676169086621923,Null,0.006767010026632243,0.3414861424200808,0.08205384334883967,-0.00012254287014081523,0.49016847012156806,1.044446990866185
-0.5502728812279747,-1.05139160156,0.33764648437,0.23136655309532936,0.47948118609865614,0.6497686844799999,0.17236328125,1.16882324218,0.09457863891714574,0.3065616413327954,-0.055800039556582276,-0.31042480468,0.14855957031,0.015581735944004561,0.12443117520171737,1.028666838064747,0.82841791514,1.32760584726,0.009382515960188546,0.09655637186525957,Null,0.010083195664726652,0.38326711756997156,0.1000968429604356,0.0004041200382501559,0.5449156846733012,1.2348778636254514
-0.7336042314267538,-1.00183105468,-0.51843261718,0.00908121852122986,0.09504563574684453,0.6781344588470679,0.42785644531,0.97351074218,0.009626256501500724,0.09785630921305875,0.14505212593738223,-0.28918457031,0.34545898437,0.017563191634764327,0.13217880976866073,1.0249985017773298,0.75612612017,1.19724538141,0.0050500870536293015,0.07087768906556718,Null,0.0015586030654061425,0.16983846900996014,0.03937566304118334,0.0004381865969961085,0.5063911520306177,-1.0085539911562824
-0.5927434553145614,-1.30261230468,0.02978515625,0.14782193160084933,0.38335033045569883,0.6273086280117542,0.09558105468,1.14001464843,0.05789211740229059,0.23990324509711233,0.37494074949362577,-0.07043457031,1.02368164062,0.07083322745126451,0.2653657816127858,1.062442643526608,0.70626017639,1.41624598766,0.03177296115341733,0.17772775349687642,Null,0.018586814699601238,0.5965238491401124,0.13593424835852277,9.485677279418188e-05,0.6480170881578933,0.6187663099525417
-0.980781593510804,-1.39416503906,-0.71264648437,0.02715631453699194,0.16437715974199776,0.27916498998592965,-0.04748535156,0.64392089843,0.021087534402867016,0.14485015323880354,0.0036590422813567816,-0.20422363281,0.17297363281,0.008373022897296231,0.09127402371622508,1.0334422967167334,0.71843634893,1.46712681174,0.028350865354284157,0.167953561123938,stairs down,0.009043395523364271,0.4242374492499721,0.09485753172391953,0.0006095230468408647,-0.2854688287395768,0.21897426153355132
-0.973807410034606,-1.32568359375,-0.69982910156,0.030059725268645355,0.17285122248772802,0.2999563506120606,0.20385742187,0.50207519531,0.004968326475526083,0.0702724370288767,-0.03898925781242425,-0.20239257812,0.10510253906,0.00761882848070606,0.08702099610232679,1.0249066384892727,0.73116002548,1.35926904484,0.03194323838430944,0.1781842950435366,stairs down,0.008803713846914639,0.317720491509931,0.09354334826922857,0.00099934387140944,-0.8924698159147622,0.4713454954732038
-1.004829406734375,-1.35791015625,-0.72595214843,0.029670518827975424,0.17180216784355892,0.2721462249719792,0.07373046875,0.54052734375,0.00887592697238262,0.09396647373434915,-0.051408131916927086,-0.24719238281,0.07788085937,0.006751558268251982,0.08195360823216695,1.0477266105436458,0.73666571409,1.43642111387,0.03389606898165773,0.183628774857623,stairs down,0.009557225401242944,0.4536887240200258,0.0975061443479921,0.000947484681686738,0.7491829439865549,1.0436142407882953
-0.9950930417201098,-1.33642578125,-0.65478515625,0.0317817061053051,0.1777838050737039,0.28801484160027474,0.12866210937,0.47961425781,0.0070133780793914646,0.08351552571228421,-0.05715975918329671,-0.18090820312,0.04504394531,0.0026181808138952423,0.051027396612287466,1.0405741910131319,0.68983697337,1.40055043945,0.03501340264775445,0.18660391559269338,stairs down,0.00708893207975072,0.28141006561997983,0.08396417035550553,0.00028231380074068336,-0.5524289385197427,0.9757454669457533
-0.9860256618884998,-1.35205078125,-0.67016601562,0.029976011230876533,0.17265421464635447,0.3292073567668889,0.14819335937,0.86694335937,0.028363338462550923,0.167945718492557,-0.04044935438166667,-0.24243164062,0.0849609375,0.005214117219604242,0.07200798498581634,1.0566937759323891,0.77978665632,1.40685338215,0.02902011880630759,0.16987906264178151,stairs down,0.007043731731049361,0.32414067698005056,0.08369348772813262,0.0001678017798249453,-0.1497841980925254,0.8732980039990006
-0.7818372002924712,-1.06774902343,-0.46984863281,0.016203576493439065,0.12692695730459785,0.2505780800970115,0.06506347656,0.57312011718,0.012660166762150551,0.11219361471606899,-0.5850514379001723,-0.77575683593,-0.33813476562,0.006380203776414841,0.07964631779699143,1.0212987641497129,0.8448351928,1.24080812894,0.0076168363013009435,0.08702333813425625,stairs down,0.007249529230259627,0.37778048329005287,0.08489914763509808,0.0010444035191381706,-0.5332941146378563,0.26035974011223845
-0.988456977588846,-1.47302246093,-0.5419921875,0.054879522853405714,0.23361932071973807,0.29052801446203297,0.03637695312,0.76904296875,0.02625648776119384,0.16159276390025495,-0.07667960701318681,-0.79187011718,0.17004394531,0.036722127604960644,0.1911030027840098,1.067043259896374,0.69655392225,1.53744263774,0.046216671157267755,0.21438921009149783,stairs down,0.0093829937746458,0.4189233221500217,0.09659937299898017,0.0013132199598742428,-0.028068949012125533,0.4838699211594651
-1.017682663933883,-1.31372070312,-0.74926757812,0.02369527312533577,0.15352274892829035,0.3141895050662234,0.17297363281,0.56506347656,0.012733232784708228,0.11254111614466705,-0.04363429292526595,-0.15771484375,0.11608886718,0.0033838365299855614,0.05801583748862818,1.0713521337507446,0.79818308746,1.41717984976,0.02825246029842171,0.1676370521522052,stairs down,0.008279871937507498,0.31811994709005376,0.09075147417810622,-0.0003292773480758289,-0.6849233240777437,0.752360173199061
-0.6784717939022222,-1.24658203125,-0.07543945312,0.10534757206717574,0.32362247201680583,0.3992441634651462,0.19030761718,0.73193359375,0.02314192659287298,0.15167924607150807,-0.42487036275239753,-1.00341796875,0.07775878906,0.13401327207695665,0.36500625848261475,1.0199249088656728,0.74303129315,1.2970971641,0.019804784899997704,0.14031738112023814,stairs down,0.00819405195594648,0.28414432850991034,0.09025593345290693,0.0005672129371836108,-1.2026376839448407,0.2015774523864831
-0.8689726975824338,-1.41943359375,-0.359375,0.04126687366350422,0.2026043691942683,0.22903813760396824,0.06359863281,0.42553710937,0.008267076260926534,0.09068260647273449,-0.49369367972603173,-0.88781738281,0.06945800781,0.07097635515811561,0.26570814606902393,1.0732535419244447,0.81986963033,1.45388360884,0.019407672286054056,0.13894238442355322,stairs down,0.008885690647100384,0.4623754681600758,0.09401423515017467,0.0012362462660589829,0.21798675461583894,-0.2761090810005424
-0.6857257711431609,-1.16711425781,-0.375,0.0351798516556192,0.18702317663895868,0.7046957783277585,0.3583984375,1.06909179687,0.026521728558959994,0.16238628276923409,0.12355339664137933,-0.49865722656,0.72680664062,0.07808205813478131,0.27862754830460784,1.042740321170115,0.64547706334,1.36631658335,0.0339494334270819,0.18372349262062093,stairs down,0.008034053275499773,0.4174554653599216,0.08937494366725854,0.0006171264274804996,-0.41786252591056483,0.13940000505932934
-0.783884992499596,-1.06860351562,-0.46618652343,0.026589018139772783,0.16264910134817803,0.644812381625,0.3466796875,1.05871582031,0.02773831518595438,0.1661271280827283,0.13703625611333334,-0.21118164062,0.51025390625,0.025640218501995167,0.15972076398813895,1.0460293361338386,0.64876099066,1.37930839877,0.03459866845579469,0.1855368634692792,stairs down,0.005269754069442929,0.27545594318007716,0.07240952388947387,0.00011137981192462152,-0.1473628551071955,0.8099500943569352
-0.7021297150558894,-1.11096191406,-0.27673339843,0.03380910566255572,0.18330763169165945,0.6764193107703067,0.47351074218,0.96508789062,0.012330825001690592,0.11070309737559915,0.10716650090907975,-0.20874023437,0.72155761718,0.03306948803904863,0.1812914993714006,1.00596205885,0.66562910974,1.41006675499,0.02753298681870526,0.16542089586609865,stairs down,0.008991491905461169,0.4069965143499985,0.09453216055096698,0.0016632057387364317,1.4795419242985837,1.3900969915634698
-0.9891395371152332,-1.35534667968,-0.20617675781,0.04602740843242975,0.21398346770466772,0.32327950432813474,-0.01416015625,0.63464355468,0.01523482977747346,0.12310927193197621,0.07467350934937823,-0.12182617187,0.53552246093,0.014976171965634473,0.12205971989030019,1.0672311023615544,0.66815372605,1.39754599919,0.025475961260212288,0.15919786889571286,stairs down,0.015685634474148863,0.6294326862899879,0.12491741974867326,0.0014067318899811763,3.446968222608726,1.5097289131142921
-1.0404418945275558,-1.44714355468,-0.73522949218,0.028519857179536888,0.16840847225878947,0.33667602538666663,0.07824707031,0.59753417968,0.015675372630188762,0.1248530625442873,-0.018039957681333332,-0.18566894531,0.16223144531,0.005773733992818786,0.07577372692997673,1.1025628592152221,0.76107575102,1.48083485024,0.030410971802478363,0.17390233454192403,stairs down,0.004341390917939877,0.27188712085001043,0.0657059516292617,0.0005672368562432768,0.3375289849795675,0.8472134103703619
-0.9880074348200552,-1.37170410156,-0.69873046875,0.02802293659118755,0.16693745456635126,0.2992348012308287,0.14526367187,0.44262695312,0.0054135670354982755,0.07337341361390651,-0.03157709448237569,-0.12915039062,0.119140625,0.002851924085935792,0.05325568138023551,1.0359965796201105,0.74596673573,1.43313082359,0.02966016491598717,0.17174485902504974,stairs down,0.0026994463452513864,0.15923833246006325,0.051812472215148904,-0.00013690632680930654,-1.2157577013878038,0.5925983268367198
-0.9797301560270787,-1.29724121093,-0.76879882812,0.012581745492667612,0.1118528565984153,0.28563835915185387,0.15234375,0.40979003906,0.003314421047616422,0.05740906465578659,0.003933681530842697,-0.13830566406,0.146484375,0.005839215244691103,0.07619980751068042,1.0252455441452808,0.8094600699,1.32211994287,0.012028346788702292,0.10936531354475829,stairs down,0.00680387337229182,0.34146329796999453,0.08225356748848231,0.0011602934918530322,0.04274554780549744,0.5907231481512563
-0.8746583395122906,-1.44116210937,-0.43408203125,0.055961202768123,0.23589949205206862,0.2998271920786033,0.0078125,0.65502929687,0.01992692730693559,0.14076790717594592,-0.30959281708033515,-0.958984375,0.087890625,0.1031250803744615,0.32023266948736884,1.0462604665024582,0.57015542257,1.49058908963,0.034315145986533846,0.18472531299297368,stairs down,0.009420340847833553,0.4184733309399462,0.09678694770128712,0.0010658540809369665,0.14923583393508766,0.5348570125373832
-1.0069969936153405,-1.39318847656,-0.6884765625,0.032046084146750496,0.17854496240857526,0.3388799697279058,0.13220214843,0.56640625,0.013159857761570581,0.11441572436826239,-0.06668106797816754,-0.21899414062,0.09826660156,0.00611836596027666,0.07801495132756095,1.0715435926608377,0.7160205639,1.44990820306,0.036369282191985465,0.19020743177377447,stairs down,0.006888976582812647,0.3567955760499899,0.08278229667379673,0.0006361855245886467,0.23526036133209116,0.9949594386315983
-1.0146893712541916,-1.36267089843,-0.75207519531,0.026961605342531707,0.16370753985065462,0.30731383911443116,0.15698242187,0.5048828125,0.007797276373370771,0.08803741304517027,-0.02272042828257485,-0.17749023437,0.08520507812,0.0032349236359117436,0.05670584481071332,1.0649453267937126,0.81466779006,1.41518828327,0.028380223643934922,0.16795916820760098,stairs down,0.005678147584684445,0.2483864471199695,0.07512753623634824,2.25658054237593e-05,-0.7417656442836114,0.7433053136510585
-0.9424053689667392,-1.33752441406,-0.50146484375,0.024122797866181434,0.15489252952891314,0.2904072637105435,0.04174804687,0.41137695312,0.006693105143165103,0.08158878336962047,-0.12288300887288042,-0.59729003906,0.19323730468,0.04410771638122635,0.2094468919113587,1.021585058249076,0.68829223113,1.37659956809,0.018545678443702744,0.13581195349832226,stairs down,0.010461610985133324,0.4494048866299636,0.10200369799028064,0.0009249900009702998,-0.3435009388414412,0.2544763078339103
-0.9898801594074567,-1.23913574218,-0.74670410156,0.013356072726630225,0.11523397933815507,0.28311139585919076,0.10681152343,0.41979980468,0.0050496679330766705,0.0708553392560756,0.03418039310751445,-0.13623046875,0.1748046875,0.006857889248667338,0.08257268477136578,1.035853590760231,0.7765425382,1.28218609062,0.013385399854675186,0.11536042476161378,stairs down,0.00808988272838021,0.32336422896003114,0.08968344552073419,0.0011972948823946675,-0.9055417362311537,-0.3187537640108041
-0.9430427320041213,-1.24780273437,-0.69226074218,0.018772834121052098,0.13659816751627124,0.3875273733390909,0.18469238281,0.61169433593,0.013329089842002659,0.11510129225740193,-0.11730513139024244,-0.42150878906,0.32055664062,0.03671334899895339,0.19102576751188616,1.054885170121394,0.87452131188,1.29689141343,0.008937206773301901,0.09424989062999882,Null,0.0074719578735025945,0.29345674093008256,0.08617814850836522,0.0005524416299301922,-0.48848168414902204,0.8449875349947237
-0.8294501550381959,-0.880859375,-0.76403808593,0.0011249897979703858,0.0334543103573516,0.49622651719226807,0.40649414062,0.57019042968,0.004457660251794321,0.06659341274953877,-0.3367095632614948,-0.40148925781,-0.22924804687,0.0027363172575798605,0.052174826587617955,1.0274386039796393,0.97788605071,1.06377167193,0.00024893028204276557,0.015736808325039736,Null,0.005557937987044271,0.27023950191005497,0.07435918787992912,-6.35330352328524e-05,-0.34962381246811036,0.8757369198749686
-0.7780001395053713,-1.13793945312,-0.34216308593,0.04088768201224199,0.20162846553755542,0.5304171316925143,0.29772949218,1.03088378906,0.03431307220488107,0.18470787072176287,-0.29274972097937146,-0.54455566406,0.06042480468,0.020227871628738393,0.1418177837609229,1.028572353844,0.84846566049,1.30699705955,0.00930434983124213,0.09618306565046025,Null,0.0054468099992916585,0.3149282430299536,0.07359134032428188,-0.0006066794657182041,1.3076494559465397,1.0223585125972676
-0.8189305596136364,-1.44738769531,-0.33142089843,0.08733282524725397,0.2947300541027099,0.5662998464620319,-1.06164550781,1.11437988281,0.15539202630047633,0.39314253509102776,0.08101356220732622,-0.36633300781,0.53479003906,0.041805553961901616,0.20391663701082824,1.117263160756952,0.87068616628,1.80327913726,0.03281332933872462,0.1806595056710819,Null,0.005021890319262005,0.37311298553004235,0.07067556360452143,-0.00014373419494281289,2.252987204733449,1.186263746485279
-0.8049323342032385,-0.86682128906,-0.61596679687,0.006255918996225086,0.07886934767023468,0.4741793545771591,0.35583496093,0.73913574218,0.01396999545669123,0.11785847649832186,-0.2781281904714205,-0.4560546875,0.35961914062,0.056057989173624645,0.2360920961648267,1.0124792615735225,0.91725646446,1.0496706287,0.0008585084169550253,0.029216956176548,Null,0.015593505873581402,0.43744607463008833,0.12451869903107163,-0.0011538191883946527,-0.18390668665002563,0.998537510478293
-0.8518019456095604,-0.86083984375,-0.84350585937,1.916772841692035e-05,0.004366052132970516,0.40716485662384616,0.3896484375,0.42333984375,5.099288456407407e-05,0.00712128526880198,-0.38847133091126373,-0.40393066406,-0.37927246093,3.437062206504852e-05,0.005846517980239396,1.0209531161848902,1.01105022804,1.02948552959,1.8543280361899714e-05,0.004294344444273782,Null,0.0001598329640476389,0.04438249620000079,0.012607726240225716,0.00022925294639265293,-0.7497227331800169,-0.38106125811703584
-0.8551343552577659,-0.8759765625,-0.83935546875,5.1099845169388224e-05,0.007129378477982285,0.4019561118227659,0.38256835937,0.41979980468,5.88698826519079e-05,0.00765223790653607,-0.3964674929321276,-0.41638183593,-0.38330078125,8.216439754440387e-05,0.009040318184478603,1.0247681754704256,1.01470936802,1.04252773061,3.493555865131073e-05,0.005894890262903636,Null,3.4521261124370665e-05,0.021840746849989046,0.005859832539841537,7.96632570903612e-05,-1.1156758252677133,0.25156579594966316
-0.8436800415715204,-0.86694335937,-0.83203125,4.662396593988708e-05,0.006808179725029943,0.41942217196356724,0.38928222656,0.43798828125,0.0001381878031515375,0.011720908127941016,-0.3997824150188304,-0.41589355468,-0.38403320312,4.681567473896183e-05,0.006822162330470845,1.0235962414280702,1.00899655626,1.0309867017,1.806330655108101e-05,0.004237649487562329,Null,3.8171444910705876e-05,0.02488090008000654,0.006160212665701295,5.9871292739980954e-05,0.382477196076898,0.9003314134812108
-0.8706934118747311,-1.02685546875,-0.70227050781,0.007564871332368358,0.08674214650975075,0.41748637537413974,0.08630371093,0.68737792968,0.012286497174413375,0.110546102319312,-0.298242712529086,-0.56530761718,-0.01391601562,0.015105311470706661,0.12257283597401838,1.023045384536344,0.85230255342,1.23938272025,0.00919248671363598,0.09561937430279123,Null,0.002201562569799339,0.15560488003995943,0.04679451048891517,-0.000533404192326064,-0.7721879124702995,-0.8537651272716866
-0.9768666049853215,-1.20031738281,-0.8203125,0.007827065686734353,0.08821163966720515,0.335307874174269,0.21740722656,0.58898925781,0.005292923024251131,0.0725394393280472,-0.035743044132690055,-0.17419433593,0.07897949218,0.005198638809687566,0.07189045425603935,1.03784484668614,0.87452851092,1.25211378426,0.009120209431082634,0.09522013900959254,Null,0.00344810647692316,0.20731075539003996,0.058548630313279205,2.7754907421104486e-05,-0.9603821814660543,0.3916242184060014
-0.977887745388923,-1.22985839843,-0.79016113281,0.008988194703639717,0.09456268501616907,0.33597318208789734,0.07739257812,0.50329589843,0.009293925849484286,0.0961574994021881,0.049877929687076925,-0.24694824218,0.38049316406,0.019631578964618767,0.13975301141906618,1.0482931507133848,0.8436264548,1.29017315037,0.009971618158394143,0.09960161472093594,Null,0.0030122099587719877,0.2264972496500377,0.05474269566082934,0.00016404578880715583,0.32522170148974316,0.9292040912046313
-0.8587123325860249,-1.00012207031,-0.59790039062,0.008801975606922882,0.09352702791695704,0.4947380871468323,0.32385253906,0.7724609375,0.01460099957923241,0.12045874871030365,-0.16471910180217392,-0.3525390625,0.03991699218,0.012764786545752669,0.11262993455236371,1.020991816136087,0.80592551872,1.14330318952,0.0028213802412730203,0.052951450786503935,Null,0.005869490433341346,0.3220440578099897,0.07637430177109612,0.0006192052337806765,2.2431432197831915,1.6608956228568081
-0.8828754425007812,-0.94689941406,-0.85693359375,0.0003406920321669789,0.01840971467729586,0.4162845611533334,0.37780761718,0.46447753906,0.0004344603683092619,0.020789361555636685,-0.30398686726531254,-0.3544921875,-0.19702148437,0.0016084027056135711,0.040000320101075446,1.0234186114563022,0.99540702484,1.05585878113,0.00015619831185833237,0.012465343115376738,Null,0.006118671802603301,0.30134319673004484,0.07801797049589329,0.00016174855696599527,-0.7396283209513324,-0.09052818308525268
-0.8808643574583673,-0.92419433593,-0.86608886718,0.00024998934402461126,0.015770665432623666,0.42977656149923466,0.41931152343,0.466796875,0.00014482374898622672,0.012003534992148169,-0.3231431610694388,-0.34973144531,-0.30285644531,0.00010071228828477961,0.010009917586036612,1.032046650370051,1.01363548404,1.08918223933,0.000426295227832057,0.02059418005602196,lift up,6.81491550718028e-05,0.034217173780007215,0.008234163910260002,7.976331322088649e-05,-0.22201294943711547,-0.6746688250708662
-0.8786109924284375,-0.91333007812,-0.85717773437,0.0002790377334907719,0.016652139431810393,0.44360046386287505,0.42590332031,0.46459960937,0.00014679348506455467,0.012077914794487549,-0.3273513793903125,-0.3515625,-0.30798339843,0.000129977653520676,0.011365090988908614,1.0372889961976253,1.0097472523,1.0779866185,0.00048447454555024423,0.021941890976863304,lift up,0.010677512684351761,0.3288497784900528,0.10300863182313685,-0.0021880852839635517,-1.1730592830906486,-0.443441516530161
-0.8658490204892463,-0.87829589843,-0.85668945312,1.8325926210498036e-05,0.004270109615576425,0.4373386708897487,0.42834472656,0.44689941406,1.865711305132743e-05,0.0043085216390759936,-0.32462176605296483,-0.33508300781,-0.31298828125,3.287887855561229e-05,0.00571958547976669,1.0229278807410553,1.01605382815,1.03466467071,1.6936218725177352e-05,0.004105010608806957,lift up,0.014797858976549725,0.4242063069999631,0.12134042144382495,-0.00210769870196408,-1.1783709793730321,-0.13073288514783654
-0.8629171558853758,-0.86840820312,-0.85693359375,1.0139109430566072e-05,0.003174980608067278,0.44209069047653177,0.4296875,0.4541015625,3.312816381026506e-05,0.005739047964070796,-0.32273273798439306,-0.33935546875,-0.31005859375,3.917938035748653e-05,0.006241226638313646,1.0219253036189018,1.01429586737,1.02775690887,1.13380824121352e-05,0.0033574609995516164,lift up,0.017678082638938074,0.4479186776700317,0.13257411960921364,-0.0026506931124529944,-1.2610804810025031,0.05097871928112936
-0.8651865802709523,-0.87609863281,-0.85803222656,1.2554785234339355e-05,0.0035338870665652337,0.4378377924479364,0.43127441406,0.44616699218,1.2565939713685509e-05,0.0035354565843995233,-0.32453458270910057,-0.33557128906,-0.31274414062,2.8562974551377174e-05,0.005330276512705414,1.022551878339471,1.01396490282,1.03158645487,1.3574136816283496e-05,0.0036745497665112265,lift up,0.016636175261237302,0.4421792778100553,0.12863962519343722,-0.0023540414417553886,-1.2482430055585447,-0.07837757766568747
-0.8615972345489205,-0.87316894531,-0.85095214843,3.0244983628958402e-05,0.005483897986931066,0.437984813339375,0.42919921875,0.44580078125,1.6208789851830548e-05,0.004014560306552281,-0.33258403430943184,-0.34191894531,-0.32189941406,2.8806572130757333e-05,0.005351906055366531,1.0221736141273297,1.01293493689,1.0361247732,2.872972637890029e-05,0.005344762791481208,lift up,0.017359327932946898,0.43520140908992744,0.1313799657020557,-0.0025804133267600155,-1.2650275979941685,0.09846592983985543
-0.845656589904033,-0.87170410156,-0.81433105468,0.00025311333406387526,0.015865526081841018,0.4332133762051933,0.41040039062,0.45202636718,0.0001102206246299664,0.01046955925064322,-0.3221273685654144,-0.34582519531,-0.30224609375,7.73288158613761e-05,0.008769354869915896,1.0033189250834806,0.96914503287,1.03063736404,0.0003663255943348971,0.019086688974876042,lift up,0.014816989853781748,0.38837528015005773,0.12138833564797387,-0.0023171599500655836,-1.322078732361116,0.07613375296877559
-0.8169854346699469,-0.97595214843,0.04211425781,0.02622879059411892,0.16152175008503708,0.4285505578837767,-0.28540039062,0.71252441406,0.012155274694681781,0.10995735072390889,-0.3989368195189362,-0.76379394531,-0.32080078125,0.016602625778621545,0.1285080306415656,1.0281356191363833,0.61167066928,1.25386990289,0.0079449849868638,0.08889726895930512,lift up,0.001382074028120989,0.2415665549200412,0.037077251388480795,3.499391497822273e-05,4.131335622308394,1.071407383739088
-0.12865854006777777,-1.39587402343,0.66967773437,0.4700118296988511,0.6835665457785582,0.533393012149883,-0.28540039062,1.21997070312,0.10748616195898907,0.3268907889684952,0.007727550484385927,-0.98217773437,0.49096679687,0.11257341137384091,0.3345371239948102,0.9643635518471346,0.31907977174,1.44384933848,0.05749591140046634,0.23908090262600148,Null,0.012638220999555368,0.5025917727300566,0.11209064757780539,0.0005556903158713729,1.599629706765465,1.1732828808848903
-0.9677832818755913,-1.39587402343,-0.77575683593,0.013915831639107928,0.11764784460402554,0.38017551872892474,0.22387695312,0.62841796875,0.008750219003583767,0.09329080777543121,-0.05914962932419354,-0.29895019531,0.22485351562,0.013270780843033557,0.114888783433942,1.0514752241001075,0.82913623103,1.44384933848,0.014859952406333662,0.12157327086615426,Null,0.004610411366118159,0.3607483712600015,0.06771723715743137,-0.00022647973518385452,0.9301390128311504,0.776137815413002
-0.9758986088231578,-1.11022949218,-0.85961914062,0.0023035219578986686,0.04785447804809897,0.3387965152104093,0.21362304687,0.47778320312,0.003533252344831188,0.05926710766029477,-0.1131755984991228,-0.25732421875,0.02575683593,0.002778322022219669,0.05255544239195124,1.0418565338244445,0.89292698059,1.19737944443,0.003087624371506592,0.05540368298797729,Null,0.0015018884814409703,0.19024565868005539,0.03864072343868955,4.186511835982442e-06,0.2570257276262673,0.4234270524205716
-0.9141570262379487,-0.986328125,-0.72521972656,0.006654645830576564,0.08136657447442293,0.3919953175037436,0.24560546875,0.71850585937,0.013793956839466485,0.11714614205881513,-0.04379695011841025,-0.22351074218,0.29064941406,0.014671938086494501,0.12081679261741156,1.0125977751324615,0.90174027281,1.06431741811,0.0008521214742335178,0.02911617455160447,Null,0.006181451028249153,0.4741337489799662,0.07842034990604375,-0.00011025070552705251,10.73322345762075,2.964198417682635
-0.5993599269687577,-1.69702148437,0.30407714843,0.31383618457935447,0.5584683442303897,0.28860757957726707,-0.19250488281,0.62255859375,0.038420472663632806,0.19540173025708132,-0.48011846127354035,-1.1142578125,0.10119628906,0.12826484965670545,0.35702685273222967,1.0469237862762732,0.59809207608,1.83132529738,0.05486868015177524,0.23351205728221863,Null,0.02154257526722326,0.6743078844300499,0.1463173620999876,-0.0003325086269166692,2.5405222532793257,1.5037043563660863
-0.17281365645605268,-1.140625,0.24230957031,0.21206244058736262,0.45928893137001253,0.7134097450623684,0.18017578125,1.00280761718,0.04800339097326815,0.21851943059392465,-0.4912025853169473,-0.89514160156,-0.07092285156,0.03947303693374601,0.19815469741537525,1.032540879090737,0.8037326388,1.34040336488,0.011982752288607595,0.1091773106982359,Null,0.004309048043267147,0.23449819075005962,0.0654703661440764,-0.0004906971127991269,-0.29747428567813694,0.8852499925535464
-0.5562634496604789,-1.03723144531,0.26574707031,0.1594267557212627,0.3980855492094618,0.6816260057967064,0.29797363281,1.15673828125,0.043348780203202944,0.20757939846972298,-0.1773455043011976,-0.76135253906,0.28955078125,0.07692467028407089,0.27652132560781423,1.0339100979026348,0.65654467597,1.24440306286,0.014637378205828538,0.12062225845396923,Null,0.005883765137039559,0.3827870736699879,0.07647570209204006,-0.0003197643121355802,6.994362813436311,2.4510835925983936
-0.7335329007336547,-0.80114746093,-0.60766601562,0.0026635536710092225,0.05147847214126526,0.674163353621269,0.63537597656,0.76989746093,0.0009559009231630522,0.030839076416342072,0.1815699853228934,0.07604980468,0.37036132812,0.010064928509493509,0.10006916359114383,1.0193122597655333,0.98410146182,1.04971880184,0.00015261441045407933,0.01232232599857779,Null,0.0012720142753733412,0.1597251912101001,0.03557467287435879,0.0003158271805843554,1.3224395440244594,0.8959115986459175
-0.7573173091056603,-0.77233886718,-0.73864746093,6.945284961335955e-05,0.008307589255520085,0.6722319980796855,0.65856933593,0.68566894531,4.9837697003125725e-05,0.007037346969411551,0.09742592865201258,0.06884765625,0.11926269531,9.348554345327598e-05,0.009638339279175023,1.0174034021927043,1.00625238981,1.02724409163,1.9052397187052626e-05,0.004351157408052458,Null,8.19311131445052e-05,0.03300300889998198,0.009023071712267858,0.00015344977601110848,-0.5394895053506938,-0.8311685134940987
-0.75545718544,-0.78015136718,-0.73937988281,8.357544855806e-05,0.009117871340185464,0.6807161029975263,0.66467285156,0.71032714843,0.0001349487371343939,0.011586133117790434,0.0947066457608421,0.07995605468,0.11389160156,6.353586613289377e-05,0.007949935020958188,1.0213842853280528,1.00923004556,1.05873772743,0.00011464125072544724,0.01067885179790548,lift up,1.3621130127722207e-05,0.016471637619929425,0.0036809563932699947,-5.215847559687863e-06,0.06840233034228849,0.031700717612231664
-0.6520734514469643,-1.04064941406,-0.15954589843,0.09174927768277877,0.3019985944171017,0.6319536481542857,0.22436523437,1.03674316406,0.06416654620604378,0.25255613728164844,0.21595691499101188,-0.21057128906,0.87683105468,0.0827750499021528,0.2868489868759917,1.0464988777217261,0.68952499533,1.31645613442,0.013392499598121605,0.11538103110394263,lift up,0.006345129968590559,0.3274312746699479,0.0794188978633243,-0.0010780347999703311,-0.41413615413417837,-0.3195453226621748
-0.9291560246353846,-0.98889160156,-0.86376953125,0.0008920797202434552,0.029791021339446132,0.34094363481169226,0.2626953125,0.48962402343,0.002622357961648717,0.05107748987667464,-0.12291103264830769,-0.18310546875,-0.00073242187,0.0015628773771193395,0.039431746364309565,0.9994022895026666,0.9432140499,1.06856205776,0.0009317215229053942,0.030445746235124072,lift up,0.006433099009384021,0.33129749343993353,0.08000067973494879,-0.000913452251553946,-0.20043224411088945,-0.3064565161928664
-0.9734620474693442,-1.16076660156,-0.86291503906,0.0031813179955573526,0.056248855492494323,0.25409102309262294,0.0302734375,0.40234375,0.00983637061383654,0.09890712792688167,-0.05406180626579234,-0.16491699218,0.13171386718,0.009238367888093743,0.09585345587645419,1.0169716562719673,0.93501897583,1.20028307526,0.003032947298939543,0.054921524163406794,Null,0.0036876530563487056,0.2883707040500667,0.06055990378749929,-3.518952277828393e-05,1.4078306346527238,0.7210983912782006
-0.9843132632871263,-1.22399902343,-0.76391601562,0.009992487986598485,0.0996747706028034,0.2251600945100575,0.02075195312,0.36767578125,0.010107592823044381,0.10024721048048588,-0.043255685388390794,-0.16491699218,0.10583496093,0.006344711988071837,0.07942448064716208,1.0189818393577585,0.83362456338,1.26986981499,0.009463935482084799,0.09700280948652834,Null,0.004527871996960115,0.23611812877993543,0.0670958250869905,0.0005075616846029586,-1.040786944494443,-0.27494298651853155
-0.9698556630359685,-1.05590820312,-0.94091796875,0.00033742364820559396,0.018320945178849326,0.2847778959387958,0.07141113281,0.30541992187,0.000972646718747548,0.031105535320098847,-0.10924653856837697,-0.15417480468,-0.03259277343,0.00029002235722943177,0.016985403014604765,1.0175421112677487,0.99230816625,1.07886030166,0.00017996282046326808,0.013379858248261269,Null,0.00048266565050446986,0.12812443273992358,0.02191206528864567,-0.0002079280831613073,8.35962590680941,-2.4470271010201725
-0.9801106280556022,-1.10302734375,-0.83190917968,0.003435356352471426,0.058435104472272945,0.2673479562748795,0.03015136718,0.48205566406,0.012702783745821407,0.11236663629463989,-0.007301422486686747,-0.12670898437,0.10571289062,0.003952839989212066,0.06268195673493632,1.024381537791988,0.91778306909,1.13614921459,0.002774210954428782,0.0525118923696859,Null,0.004087395611576781,0.2230504493099943,0.0637398834831599,0.0005965661494115455,-0.7588183597313947,0.2586244029369536
-0.981522242224948,-1.10766601562,-0.85717773437,0.003237507632353308,0.05675073227223417,0.21010398864406252,-0.00231933593,0.50366210937,0.014141389316261875,0.11860748815697239,0.09665997822838542,-0.20263671875,0.37292480468,0.019843789918464142,0.14050066493071178,1.0250081027119793,0.91219362935,1.14661344357,0.003277025337820271,0.057096037494025136,Null,0.0018982921323376252,0.1553000677899945,0.04345578435776262,0.0006432136181823126,-1.0654261554570272,0.30389455951207406
-0.9534989726301734,-0.98132324218,-0.85717773437,0.0005782420119134817,0.02397706346778644,0.3130546084689595,0.21887207031,0.47607421875,0.002424959433371413,0.04910134750513608,-0.08149710417884393,-0.21752929687,0.02282714843,0.0029968209197289903,0.05458478043789404,1.009512692352717,0.92987975368,1.07699437911,0.0006585273283872642,0.025587512814617304,Null,0.0023736242805798093,0.20285842246994434,0.04857884219509317,-0.0004432494561975931,2.0764626887758313,1.6475104465552903
-0.967095626024421,-0.98168945312,-0.94848632812,5.660257119701733e-05,0.007503643310256648,0.28478875410778953,0.25695800781,0.32141113281,0.00025401717602430396,0.015895919083806158,-0.10606817947815791,-0.13330078125,-0.07604980468,0.00027470120982828124,0.016530439013743094,1.0139708000087369,0.99069468015,1.03038553649,7.489427202603461e-05,0.008631343559779682,Null,0.00019224838328816312,0.045561697490029474,0.0138288303804736,-0.00018043054598821198,-1.299805382970436,-0.3761114644722216
-0.9632896205314286,-0.98986816406,-0.9267578125,0.00018233903326142012,0.013464661003103557,0.27762207030885716,0.19921875,0.35217285156,0.0014692729300374466,0.03822142180404788,-0.13234584262937144,-0.17150878906,-0.08996582031,0.00026338294906919855,0.016182642047760498,1.0120669012398285,0.98433010816,1.04213898043,0.00014177867179983292,0.011873015958928748,Null,0.0012504308854452864,0.16720067970004493,0.035260254765101806,9.303319519340266e-05,1.2404879528383788,-0.4827942917255517
-0.9563306725508152,-0.9921875,-0.90795898437,0.00048405334907232266,0.021941345089786624,0.2770027492317935,0.15551757812,0.34643554687,0.0017827265698403022,0.042107455853832756,-0.12758536960375,-0.17907714843,-0.09118652343,0.0004973905888945904,0.022241568721030835,1.0048493712197826,0.95509790817,1.04948970593,0.0006070933008115652,0.02457221765934973,lift down,0.003403978203885256,0.2928756630899443,0.05818486334384916,-0.00011432871021249925,1.0066584119118263,0.5504702590324703
-0.9631688928049462,-0.99340820312,-0.91906738281,0.0002626574895383768,0.016163086106862387,0.2598529118324731,0.15844726562,0.41687011718,0.004170426798673016,0.06440500872772074,-0.1414171444431183,-0.18994140625,-0.04016113281,0.0016354084400507973,0.040331326801332744,1.0103498383894085,0.95736116444,1.04467192182,0.0004481404463147249,0.02111234447133889,lift down,0.013254211786417693,0.45537004532002356,0.1148170396032963,0.0018516016876681989,-0.724710944116234,0.31157063093545817
-0.9709677282749133,-1.02392578125,-0.93347167968,0.00046952277931247105,0.021605757908663484,0.274068314212081,0.17016601562,0.39562988281,0.0018927496652983123,0.04337982152784769,-0.19686554483867053,-0.25793457031,-0.13354492187,0.00037849752381041826,0.019398702968290858,1.0290028550098265,0.9980926951,1.08965899497,0.0005289220530068271,0.02293174001464506,lift down,0.018451245918586615,0.4659092006500032,0.1354422065602194,0.002642637541543103,-1.1365602341320846,-0.04818542515252534
-0.9752659153254596,-1.02294921875,-0.95202636718,0.0001872696560310053,0.013647614722728177,0.24285723711637833,0.20922851562,0.27172851562,0.00011974558689659835,0.010913217374079656,-0.19709802575594593,-0.22546386718,-0.17651367187,9.190933089270963e-05,0.009560989681967813,1.0242860160825404,0.99974487447,1.07273193114,0.00020691893655290763,0.014345746959108953,lift down,0.0004807562062081975,0.09841565169995192,0.021866813302639173,0.0003283230684399332,2.7668876423115494,-1.7634357803058558
-0.9640527067843504,-0.9873046875,-0.94567871093,8.25570202768468e-05,0.009060386108410324,0.25004137976299434,0.18518066406,0.30334472656,0.0008965554275707644,0.029857832183017484,-0.19191729011813558,-0.2265625,-0.16955566406,0.0001385918773822581,0.011739202376026072,1.0147618132242937,0.99332305175,1.03929813122,0.00012109548820243755,0.010973209781183388,Null,0.0011144165283006823,0.17937058991003596,0.03328844228441325,0.00034233800573486004,5.356940205070186,1.736725031402424
-0.9876166449609092,-1.2431640625,-0.80993652343,0.008957514975376652,0.09440484627789793,0.22163714784247474,0.07763671875,0.43957519531,0.008544142699771532,0.09220081596121642,-0.04004461115040404,-0.23522949218,0.1904296875,0.01394141466040721,0.11777522436936233,1.0237667471074747,0.83913922589,1.29912400855,0.009346353855402566,0.09643210071367339,Null,0.00813100543497882,0.3817319973600206,0.08994409236277708,-0.0007789724161122524,0.20433360964746106,0.5979444864390852
-0.9799886067670908,-1.17236328125,-0.81909179687,0.0035636423444337026,0.05951507802265906,0.23992291074418184,0.10620117187,0.35705566406,0.003321062938134097,0.05745376649066262,-0.10275361031975758,-0.27160644531,0.08093261718,0.006621330822135473,0.08112460504942727,1.0193055606115153,0.88243163172,1.18791916626,0.0029572551325058793,0.05421561005953042,Null,0.002632368613287855,0.21131888172999425,0.05115090286706984,-0.00031201287477132316,0.9539007579666707,1.3564958167412844
-0.973738152360203,-1.00024414062,-0.92834472656,0.00010916129206608011,0.010421476566794272,0.2485673778515736,0.23559570312,0.29553222656,0.00014054108290684198,0.011824875322582666,-0.13486043087411168,-0.17175292968,-0.05700683593,0.0004941871407014833,0.022173826384624867,1.0142753469285282,0.97540661115,1.04484747505,0.00010174276223875104,0.010061128242733364,Null,0.0005783608162358963,0.11244303096998465,0.023988017311339326,0.0001074887637701421,3.3538903073526587,1.8769968805568666
-0.988331032862067,-1.25805664062,-0.7021484375,0.025039733731105126,0.15779685342390204,0.252498008681676,0.080078125,0.50256347656,0.011886432475104416,0.1087199513631491,-0.01493485946083799,-0.18579101562,0.16955566406,0.007796731768550907,0.08805211302309983,1.0280477587246923,0.7227711045,1.31906239167,0.02852674739747011,0.1684261858903586,Null,0.006410712121083103,0.2995413260799751,0.07984295890613716,0.0001532147034982463,-0.15808988444285532,0.6136062444730273
-0.9914691091912643,-1.32580566406,-0.71203613281,0.011535945801724963,0.1070964390754174,0.18143086049396556,-0.01391601562,0.42590332031,0.01154995078291982,0.10716142848726763,0.05945806393563218,-0.05212402343,0.22155761718,0.005341410022634466,0.0728746338850748,1.0181810262416093,0.74418938344,1.34144624351,0.011098526707431501,0.10504638057154513,stairs up,0.004844229752100478,0.2460207591999506,0.06940021146384452,-0.0006954938809493354,-1.0434178209882035,0.40093740154486257
-0.9889261135844502,-1.24633789062,-0.80688476562,0.013158783374159135,0.11441105375079685,0.21722507975743455,0.04418945312,0.40771484375,0.007910443900317414,0.0887075417519082,0.021161623650523563,-0.07995605468,0.22009277343,0.004627832596661487,0.06784985708626519,1.0187636442801047,0.83547024725,1.27351873524,0.01336252597279784,0.11529338707762173,stairs up,0.006430666833906069,0.39127483333993496,0.07998123793217447,-0.0008688402037499302,-0.10847484728027013,0.2896453687637395
-0.9740028782848421,-1.51770019531,-0.73254394531,0.02491417336488558,0.15742631970750426,0.23563425164105264,0.0244140625,0.42553710937,0.012425337286567056,0.11117527051701963,0.06315211245705263,-0.08825683593,0.22009277343,0.005463009690981758,0.07371741319659585,1.0110873475547895,0.74121514923,1.55755788277,0.027852347194481947,0.1664504607787505,stairs up,0.003750508149152739,0.23796828452998398,0.06108001827585066,-9.16576242808537e-05,0.3126317056369965,1.177827803063893
-0.978593556890678,-1.21655273437,-0.77514648437,0.016627306529911484,0.12858214084777378,0.24012816692841807,0.056640625,0.42590332031,0.010632363741737512,0.10282166060752607,-0.0506646969879096,-0.16796875,0.08227539062,0.003928407487753647,0.06249970476064241,1.0164397801758192,0.81858995416,1.23112364401,0.015825253076357418,0.12544259590301243,stairs up,0.00658454308902457,0.2931096007000633,0.08091564917005858,-0.00012671355757163898,-0.6439847375866612,0.671413291296575
-1.0147165540796133,-1.45556640625,-0.73779296875,0.030895248770886338,0.1752842171695066,0.19108589972933704,0.01513671875,0.46252441406,0.009724707607767485,0.09834114063516972,0.011021398048066303,-0.15393066406,0.16455078125,0.0053353000892512525,0.07284108245473869,1.0395043994296687,0.76764824233,1.47561067854,0.031591479563125933,0.17724824682349807,stairs up,0.008394671575141024,0.39245109642990883,0.09136898912745721,0.0002672625992469063,0.8979931575419529,0.9927289613564247
-0.9815700510134973,-1.33129882812,-0.73645019531,0.031785769278510276,0.1777978530528769,0.20187227842934424,-0.10205078125,0.45227050781,0.01563961062168971,0.12471627106583055,0.021235565017868854,-0.07312011718,0.15222167968,0.004089097296029572,0.06377109456534519,1.0110200753286338,0.7572117912,1.40636759902,0.03393998003935375,0.18372402038806468,stairs up,0.012161414084747305,0.4708079510700145,0.10997708065809236,-0.001243659135778779,-0.09863730134214066,0.4320891356008708
-0.9797427528747954,-1.189453125,-0.84143066406,0.008190149640848672,0.09023443926192419,0.25371279353608184,-0.02526855468,0.44934082031,0.012917903549556223,0.11332413800221373,0.024953027914385962,-0.13195800781,0.26831054687,0.007736232308352775,0.08769829635598701,1.0223481221172512,0.89680417076,1.25895971498,0.008417846860680275,0.09148016006794267,Null,0.005445923041664401,0.32257291465998605,0.07358040186419733,9.424776195824396e-05,0.17628032275613492,0.6465599714643911
-0.9850183435355134,-1.16088867187,-0.91064453125,0.0022152895906368563,0.046939482872195015,0.24712309965859464,-0.00122070312,0.33898925781,0.004201384779896783,0.06464266850848084,-0.014459063553837836,-0.11596679687,0.26062011718,0.010297516907815869,0.10120204866631953,1.0231119669152433,0.95772048887,1.17090516331,0.001413415541860274,0.03749367223746186,Null,0.003433829976263056,0.28349930174999827,0.058440300590843305,-3.8964944282069484e-05,1.3143279462363378,0.8669279260094888
-0.9764253423424156,-0.99633789062,-0.96166992187,6.803998847663848e-05,0.008225432593509305,0.2480736207392135,0.20068359375,0.29431152343,0.0003861781950551946,0.01959613876848029,-0.10131698779477528,-0.13842773437,-0.06872558593,0.0004468516422612058,0.02107940321205969,1.0129400597038765,0.99629740409,1.03002351739,6.0887637645342745e-05,0.007781103537758171,Null,0.0008006754493654964,0.09379866588005825,0.02821661341627779,-8.315427280264492e-05,-1.1144516396881494,0.2711516060515029
-0.9790051911969474,-1.01611328125,-0.95532226562,0.00014875616183071465,0.01216442496229002,0.23436150801373684,0.19079589843,0.30944824218,0.0008562627197345969,0.02918486035329374,-0.12526662725784213,-0.17358398437,-0.03637695312,0.0009193055018223622,0.03024015627956924,1.0152995835053158,0.98663403894,1.05219921883,0.00014995003815710154,0.012213141587239497,Null,0.0008543710846789833,0.13001609381001344,0.029152605282540704,-0.00016921083544928545,1.5694523766975985,1.3988638280312513
-0.9932114109799999,-1.23327636718,-0.83435058593,0.008291335656107176,0.09078042265257005,0.20972567471278786,-0.01599121093,0.50866699218,0.012573495064335447,0.11179128796084932,-0.04674257220509091,-0.21533203125,0.1767578125,0.009469861737720658,0.09701787792092717,1.0260267065393334,0.85684067094,1.28780699768,0.010120010293273132,0.10029295537352724,Null,0.0036670784486678132,0.25601325507000183,0.060372624017820356,-0.0003495792232188724,0.3014569135949876,-0.6166492944050815
-0.9883834324483707,-1.17175292968,-0.89562988281,0.0030185624261997927,0.05478689816299391,0.22153978668859547,0.07531738281,0.337890625,0.004101110734013099,0.06385977439726205,-0.014970072199494384,-0.15539550781,0.15173339843,0.006838267743391981,0.08246120608430696,1.0183143517746631,0.93310566836,1.21992681614,0.003138830038204461,0.055867666512799105,Null,0.0016452534832384483,0.16178150600001118,0.04044762645868857,0.00040718091983586887,-0.7504140340014329,0.20065363692501806
-0.9815660112324157,-1.18981933593,-0.83288574218,0.006231552124891884,0.07871812628034994,0.22414441054741574,0.02563476562,0.39599609375,0.010100285170545939,0.10021747350352889,0.038459692108146065,-0.13208007812,0.2900390625,0.012282378787296945,0.11051414687395647,1.018802267936292,0.89913018931,1.25055812654,0.005719230517083611,0.07541286368094417,Null,0.0038896394871885355,0.2225447291900764,0.062191539456401455,0.00034090033951100437,-1.05115650015664,0.15208507633027182
-0.9776442507442022,-1.02001953125,-0.92944335937,0.00038202691880505915,0.019493456869583415,0.25502436211388296,0.18200683593,0.384765625,0.0023556575747335847,0.04840586205462061,0.03117662794920213,-0.04675292968,0.13891601562,0.0024176145202636744,0.049038300017028975,1.01327565906633,0.98430391085,1.04820597433,0.00019906321582467004,0.0140714025218521,Null,0.0012812177967185371,0.13273028367996176,0.03569877880877887,0.0005835798679506266,-0.6799128672927757,-0.02292144542903567
-0.9912820255017646,-1.00268554687,-0.97863769531,2.6660500463581186e-05,0.005148171907606233,0.20539191750505884,0.16723632812,0.25122070312,0.0005168286700455471,0.022666903215883293,-0.032643037680176464,-0.05517578125,-0.009765625,0.00010123876921982837,0.010032110797232405,1.0131523574191763,0.99987507576,1.03209247999,5.5021502560857696e-05,0.007395799257919382,Null,0.00037697557383069183,0.06370080065994443,0.01935866912923554,-0.0003419079331189682,-0.9814358113022004,0.5063003360227551
-0.9757006299329121,-1.00085449218,-0.9482421875,0.00030325742839679387,0.017366380704977594,0.20900717934060442,0.18908691406,0.2255859375,8.262238189943301e-05,0.009064679407906132,-0.03725626180049452,-0.05688476562,-0.01794433593,6.038341386444508e-05,0.007749299120900541,0.9986606869730221,0.97171070298,1.02421402773,0.0002683248476761142,0.016335560453386515,lift down,0.00018667125235556016,0.048490511609998066,0.013625182058740585,0.0001378325970142437,-1.1283392052579877,0.2566195724725404
-0.9825413201405915,-1.00500488281,-0.95129394531,0.00027113749482288044,0.01642192943463376,0.20017693632043007,0.18530273437,0.23010253906,0.00013879294208793628,0.011749329490424561,-0.05118355699408603,-0.0673828125,-0.03015136718,9.451627220495022e-05,0.00969577847332788,1.0041681509688172,0.97258762132,1.02528175865,0.0002272893191435208,0.0150355356923765,lift down,0.01315355937435821,0.39206347927995466,0.11438024878975281,0.002126784884725644,-1.191782586308203,0.004355465369923751
-0.9862874348919539,-1.00317382812,-0.96337890625,9.263187703963146e-05,0.009596848958392972,0.21090101921275864,0.16845703125,0.37219238281,0.001913856431505459,0.043621752103873014,-0.06031466078063219,-0.09558105468,-0.00048828125,0.00039287844651439034,0.01976412215121091,1.0115093712884484,0.9920647763,1.03889873476,0.0001150326298476808,0.010694462248266187,lift down,0.018669052384443934,0.5603746883700751,0.1362415464531126,0.0026586436942198114,-0.6933269094638215,0.014221023194112076
-0.9905932763333531,-1.00903320312,-0.97814941406,4.533861427002877e-05,0.0067132053120566035,0.19956522501485033,0.16674804687,0.22705078125,0.0001925286251055038,0.013833862768110286,-0.05514946668856287,-0.08947753906,-0.01513671875,0.0004809398464017925,0.0218645824813103,1.0123237540479042,0.99436987761,1.03002770553,5.825047607976456e-05,0.007609314741405953,lift down,0.016691343159999174,0.44080001550992165,0.12880758905190506,0.0026469807562368264,-1.3087501509852915,0.15108187075960056
-0.9831294911391445,-1.00390625,-0.9619140625,0.00010051428294869317,0.00999883860326829,0.23011494192502674,0.11022949218,0.34814453125,0.0017776443648975595,0.0420492359657007,-0.06077404327877006,-0.1455078125,0.06115722656,0.002443306739564286,0.049297473851332034,1.0136004338679145,0.98493863424,1.03932594602,0.00011863176765114517,0.010862659580955636,lift down,0.016978095506292187,0.39370455967002727,0.12995115833155582,0.0023583095757039947,-1.5320315987524704,-0.09836335961899836
-0.9849940232202186,-1.02697753906,-0.95056152343,0.00019651422761897953,0.013979999262540196,0.23536223531054642,0.15124511718,0.37841796875,0.0028212265819140964,0.05296989751939409,-0.03774640859491803,-0.09362792968,0.0888671875,0.0019471746269663095,0.04400607149540046,1.0157779501804918,0.97919843077,1.04819752296,0.00016725358271178856,0.012897272142119783,lift down,0.027228860695810018,0.6566973656099435,0.16456022942165682,0.0026494474966407854,-0.26566182823577655,-0.5792842044991402
-0.9964447883523729,-1.04797363281,-0.97338867187,0.0005237898082947409,0.022821712114587247,0.2329756742107909,0.20776367187,0.24633789062,5.8884479383787096e-05,0.007651914708705425,-0.07447392522559322,-0.08728027343,-0.05847167968,5.285565094541608e-05,0.007249622848710774,1.0261354396842937,1.00254496445,1.07670074178,0.0005146061769842037,0.022620760319963153,lift down,0.018978740493153165,0.4996843161200104,0.13737363637391628,0.0026515331256211252,-0.8924805976814398,0.35009206985844343
-0.9991040778839998,-1.04333496093,-0.97937011718,0.00035804773560486257,0.018864722349625756,0.21991299715521218,0.20190429687,0.23767089843,7.623844095758875e-05,0.008704963515160188,-0.08535008285575758,-0.10595703125,-0.072265625,7.658389790739726e-05,0.008724663493315651,1.0266551526199394,1.00664338602,1.07005675942,0.0003443800501950442,0.018501159379230275,lift down,0.0004946062489822261,0.09494609476007554,0.02217224921725423,0.00040904318341284437,-0.027164155267836776,-0.4745376983778945
-0.9832568878785638,-1.00793457031,-0.97534179687,3.09691719808744e-05,0.005550174983068395,0.22355879113675534,0.16589355468,0.27453613281,0.0003468624468499605,0.018574644918135073,-0.07773541389250001,-0.10192871093,-0.01159667968,0.0002869319076204378,0.016893953772556182,1.0116516600729255,0.99588976248,1.03031308789,3.778241934561582e-05,0.006130371035259419,Null,0.0013030376057831983,0.18986954250999588,0.03600147989581271,-0.00017339984040939987,2.1476441694512918,-1.1384336497400889
-0.9849010488561325,-1.16931152343,-0.87927246093,0.003295238868560734,0.05724537648540209,0.18074566751226515,0.04858398437,0.30419921875,0.004789024103890893,0.0690113425980419,0.017282053909668506,-0.10766601562,0.18530273437,0.004669019434142031,0.06814120447028056,1.006233112000442,0.89086320268,1.1847351035,0.003193129949146517,0.056351471562129864,Null,0.002487915704208341,0.24416619488999913,0.04974103249408235,-2.4669027195340642e-05,0.490607357963027,0.5066859046486838
-0.9871839887601124,-1.14526367187,-0.87902832031,0.0030206795447405093,0.05480610764265782,0.19659492406573034,-0.02722167968,0.38708496093,0.009728546742975361,0.09835594535152592,0.005543226606741575,-0.12878417968,0.31201171875,0.011745695092558196,0.10807269794668961,1.0173054075237078,0.93721711341,1.16884620902,0.002674562108705871,0.05157069399263191,Null,0.0036987665800318347,0.2200976549099778,0.060646409559870613,0.0005796915855613754,-0.8387517321054849,-0.24099880717046832
-0.9846821879256044,-1.00170898437,-0.96142578125,5.633177765554297e-05,0.0074848020944911645,0.21806519895774723,0.18701171875,0.25598144531,0.0003444505744061868,0.0185083221506577,-0.08556122831901099,-0.10815429687,-0.06713867187,0.00012235514397570765,0.011030995556378948,1.0123990268005494,0.99895458412,1.02454301951,4.086417900953081e-05,0.006374923572360259,Null,0.00031431801293627896,0.06898469269003726,0.01768024295328485,-0.00010985580377285539,-1.206991525701395,-0.2526403998007528
-0.9902142611373864,-1.10998535156,-0.88806152343,0.0012819412964950314,0.035702346409284956,0.23099448463727273,0.02380371093,0.40893554687,0.004471937710097463,0.06668229879891868,-0.05320462313267045,-0.09191894531,0.07116699218,0.0015617844169854994,0.03940698722167163,1.0210774833648295,0.92652511489,1.18462020756,0.0014392891762100611,0.037830033000246996,Null,0.0005129766021797741,0.11959545057004561,0.02258455141008255,0.00022146852589774064,1.2758336537392791,-0.5381397572811802
-0.9824352264371354,-1.12451171875,-0.8408203125,0.0026537462915367355,0.05138019751098973,0.21009508768432292,-0.00695800781,0.35400390625,0.007023212884540835,0.08358608527002077,-0.04130109151114583,-0.22875976562,0.11926269531,0.010561210555761742,0.10249977683284883,1.0140486615890625,0.85362937745,1.18308688474,0.0028777630464029537,0.05350490348746494,Null,0.0011248850485492427,0.17906205812994358,0.033451850057279575,-3.575189558539246e-05,0.7084338441773523,0.2655851944251272
-1.001145241473212,-1.20922851562,-0.85021972656,0.004346699153598952,0.06572941139524238,0.17001287286545455,-0.03344726562,0.310546875,0.005971443117660546,0.07704059029700569,0.06281294389145456,-0.15637207031,0.36047363281,0.01650598196121816,0.1280856967303834,1.0281076947091512,0.88087171558,1.24642418572,0.0048270138764593355,0.06926585917250314,Null,0.003957999645562899,0.22630053122998106,0.06272170094092733,0.0004972433467296876,-0.7528459664291471,-0.4243495638436538
-0.9859580993616667,-1.08129882812,-0.91467285156,0.0005054478411753189,0.022423543438445766,0.22810554504000002,0.17932128906,0.31750488281,0.0010735046335879005,0.03267894526482299,-0.01145299275692708,-0.12072753906,0.17333984375,0.010092573949907821,0.10019984261756794,1.0175961949797916,0.94745061582,1.11842878114,0.0005102751610528782,0.02253036790472793,Null,0.00660304217581154,0.24411691317004625,0.0810472166773533,0.0007599805385429486,-1.2358609930000495,0.4344526185770173
-0.9776000976518603,-1.00427246093,-0.92712402343,0.00020640922917825085,0.014325123926871899,0.2517118232152907,0.18481445312,0.35852050781,0.0017103727019964032,0.04123625437232648,-0.08413625317563954,-0.13000488281,0.01733398437,0.0006650347932549553,0.02571319334308405,1.0141653781584883,0.96653747931,1.03827511919,0.00017611782311891094,0.013232304496452017,Null,0.003222548187336995,0.1773880519499471,0.0566022300096187,9.740418382134235e-05,-1.1700910171076209,0.4548475146962064
-0.9800917307502085,-0.99987792968,-0.96337890625,8.101297102157271e-05,0.008977250607183063,0.22929064432375,0.16613769531,0.28698730468,0.0009438312505571408,0.03064172747731143,-0.1132125854459375,-0.14953613281,-0.07727050781,0.0003219820480878592,0.01789706842625541,1.0135313309510414,0.99583388285,1.03849543966,6.548355257448974e-05,0.008071089914307172,Null,0.001933092757697998,0.16070341848001135,0.043852304001633195,-0.000480291657353123,1.1226147710002685,1.4870193411555763
-0.9900886535608124,-1.02270507812,-0.96960449218,0.00016407349891386008,0.01276902657001106,0.21128005981125,0.1796875,0.23059082031,0.00013335667633114563,0.011511872006935969,-0.09781875609900001,-0.11938476562,-0.07702636718,0.00010537889803346442,0.01023329272134611,1.0172007890591874,1.00026039369,1.05093808049,0.00018733170476413727,0.013644078628084836,lift up,0.0008739695690625221,0.11257435791003445,0.029470447218457364,-0.00023461996394916562,-0.20235643627262467,0.7099640152193434
-1.0084516476326666,-1.0322265625,-0.97241210937,0.00031598766047156627,0.017730403574952446,0.200220352560359,0.17578125,0.21472167968,8.33017766720772e-05,0.009103548103556045,-0.10641902042876923,-0.12097167968,-0.08361816406,6.678677049235772e-05,0.00815133573308219,1.033694018620205,0.99660356975,1.05631887927,0.00032997723349383886,0.018118637988349038,lift up,0.006020744916387796,0.2777242398000226,0.0773942459193961,-0.0013267912566703123,-0.617988667864295,-0.5634486584216619
-0.9830260195935029,-0.99853515625,-0.96044921875,6.468243070778651e-05,0.008019787606050462,0.22440178649858758,0.16638183593,0.28466796875,0.0011328449583050976,0.0335625491329752,-0.09107962570220339,-0.14343261718,-0.03759765625,0.0007476309878193039,0.027265492548885287,1.0133188752376836,0.98033955851,1.03825651186,0.00011147084641723167,0.010528108454224529,lift up,0.018461761747594837,0.48281217684996136,0.13548969705814484,-0.002344749476488388,-0.5867237509273506,0.6773265596755956
-0.9866778399452973,-1.0009765625,-0.97192382812,4.4901217259870944e-05,0.00668270214639147,0.20908203124567568,0.16735839843,0.24194335937,0.00029499550231834744,0.017128950114806966,-0.10506294868691893,-0.13708496093,-0.08154296875,0.00015223840497280457,0.012305100352116365,1.0142601880641082,0.99337301991,1.02858043977,5.2709576555994306e-05,0.00724048754753172,lift up,0.021081309465401016,0.5452984367400404,0.1448010926797989,-0.0026890895048286793,-0.9406427693820318,0.04406327274671467
-0.9583012361670186,-0.99792480468,-0.91979980468,0.0004458828603801173,0.02105025894425036,0.2005334700077019,0.16821289062,0.22790527343,0.0002788171634766037,0.016645881768549406,-0.12934221539857144,-0.18408203125,-0.07629394531,0.0003613449100822656,0.018949948067442646,0.9878873101916772,0.94699065159,1.02249482106,0.0004450665805176272,0.021030981713147868,lift up,0.01121091180365642,0.35149848839000697,0.10555225630505075,-0.0022244825200329996,-1.2046445967414912,0.22514418214283402
-0.9913766530593295,-1.15197753906,-0.87756347656,0.002500751975986143,0.049867637747902725,0.20595307589536313,-0.00598144531,0.42614746093,0.007379948671817521,0.08566632890633177,-0.053353592002905036,-0.14306640625,0.12731933593,0.007348270735194244,0.0854822726849112,1.0210348349148604,0.93374755422,1.21927136493,0.0027267628305808517,0.052072348887659804,Null,0.0025120618432822746,0.2153352382100593,0.04998027589195567,-0.00017595912468222486,-0.30038128745620396,-0.42609333800178206
-0.9772868288112707,-1.20166015625,-0.82873535156,0.006857569118709778,0.08258136591572557,0.2350925845954696,0.00366210937,0.43225097656,0.011349746694738976,0.10624048621827327,0.0475925845977348,-0.07312011718,0.20959472656,0.006570314145789356,0.08083324852828708,1.0156998397150276,0.90604909774,1.20388091479,0.005648905208399637,0.0749512894309281,Null,0.008417280050035671,0.34249650255003417,0.09149194358175458,0.0004465297015395786,-0.3892081538356873,0.6920512404845283
-0.980019531246457,-1.00708007812,-0.94348144531,0.00021502770227902949,0.01462186624722442,0.2484458705319428,0.15002441406,0.34753417968,0.002140952456340715,0.04613803682759467,-0.08138811383542856,-0.15307617187,-0.0166015625,0.0012462211389103709,0.03520085049056989,1.0158810017194284,0.97407322051,1.0481582861,0.00035710552125478383,0.01884316635484029,Null,0.0022936647826492813,0.17688546732995292,0.04775518952688208,-0.00035518924563244803,-0.6967958061866528,-0.5076414739071542
-0.9827377822337913,-1.00463867187,-0.96130371093,0.00010698754595740328,0.010315023136100892,0.2152005709101648,0.15051269531,0.29150390625,0.0007990533577026748,0.0281897668425685,-0.1325307992747802,-0.15649414062,-0.09741210937,0.00021949120395024926,0.01477447827586981,1.0152163324453296,0.99047874881,1.0406846456,0.00010497006440841363,0.010217304234129617,Null,0.006534004962508405,0.28828335340006106,0.0806108171174364,-0.0006677477252048627,-0.9956554103412154,-0.09195703025744995
-0.970667412936117,-1.01013183593,-0.91333007812,0.00042553054056012544,0.020573455719397192,0.28692042573632975,0.16162109375,0.44226074218,0.005373653607659948,0.07310998798925777,-0.052586332277978716,-0.11010742187,0.06896972656,0.0019473143031074757,0.04401086511651086,1.017213793367234,0.97935240671,1.06182381206,0.00026669040729884047,0.016287167995160178,Null,0.003157833833097138,0.21588417918997038,0.05604495378375485,0.000739291225749201,-0.5774435195975123,0.2911420400328559
-0.988800941152573,-1.11108398437,-0.91101074218,0.0008608993956672524,0.02925516871045842,0.22287754705438598,0.06030273437,0.25085449218,0.0014465454757363481,0.03792210628998453,-0.08604672080274854,-0.1240234375,0.13488769531,0.001444457392882308,0.03789472619805672,1.0187637816938597,0.94297303212,1.13002832871,0.0006599179575705592,0.025613644571361595,Null,0.0013253901140944245,0.1891537536899932,0.03629930157336027,0.00026018520158513017,5.225574147972917,2.0882608784365018
-0.9691640948682873,-1.33679199218,-0.68933105468,0.024125372465239867,0.15489378010302152,0.2864484418122652,0.05407714843,0.58740234375,0.022874288585672403,0.1508241071601907,-0.05701560341729283,-0.22900390625,0.17138671875,0.011453303368571527,0.10672406218565779,1.0281568495986741,0.72226925359,1.41293481257,0.02504055759647159,0.1578043471340116,Null,0.0059101173235804935,0.2937605423300056,0.0766646250997307,0.00025519779331198173,-0.7095511602293438,0.2678978541867194
-0.9743793688281053,-1.27099609375,-0.63171386718,0.014916363646644127,0.12181074037028314,0.32228811163242105,0.11840820312,0.5400390625,0.006213440825140704,0.07861767298138748,-0.03706311677452632,-0.19641113281,0.30615234375,0.012176427632214057,0.11005608193549267,1.0363416133703682,0.83732497856,1.35086249818,0.013858391367202377,0.11741146649825021,stairs down,0.0051423069133048884,0.3069078194799886,0.07152092099572661,0.000688232756728105,0.6914980311070109,1.0866385140440882
-1.0193470480878442,-1.50756835937,-0.75854492187,0.028544091293089272,0.1684433690910255,0.2739908366822155,0.06689453125,0.447265625,0.006151684038604267,0.07819749105460724,-0.05559389034257484,-0.22448730468,0.11108398437,0.006426942708358904,0.07992783008115824,1.0628661647861077,0.78756897336,1.54000071185,0.028593270836157182,0.1685884149208406,stairs down,0.010596156533809046,0.3968193319800548,0.10262897492757317,0.0009245874795109764,-0.6179202247662201,0.3697843923818513
-1.0249694824175555,-1.33862304687,-0.75817871093,0.021735090662547085,0.14701816268361628,0.2978766547271111,0.01611328125,0.51879882812,0.014203154956915603,0.11884548178407245,-0.10736558701966668,-0.24487304687,0.0546875,0.006812295993860918,0.08230704650882655,1.0804914784687776,0.80307182588,1.39175723091,0.02601604775647242,0.16084624384120802,stairs down,0.006173325566901645,0.26183064268002454,0.07835195794459889,0.00030306203956980196,-0.9129372691459148,0.6734072458373982
-0.9984567815569317,-1.25036621093,-0.78833007812,0.014118452621185915,0.11848305423301563,0.28682292591079545,0.14526367187,0.45434570312,0.008756348563784945,0.0933091452286907,-0.09480077569767045,-0.20080566406,0.01000976562,0.0023733959834883237,0.04857891290505259,1.0471587296188636,0.85012704271,1.31216987931,0.016776860563877446,0.1291570264929159,stairs down,0.002818641901282725,0.2039119327599792,0.05293984218412426,9.384759568632804e-06,-1.1110329341444338,0.31255631803598627
-0.9649472860728273,-1.22521972656,-0.744140625,0.01787319580171031,0.13334023721420366,0.23964000122314136,0.05712890625,0.44995117187,0.0076027372735542435,0.08696512155090028,-0.03227385675680629,-0.19921875,0.11926269531,0.006394153466747966,0.07975384770320842,1.0007789728758116,0.74929773711,1.289240426,0.01928282959352545,0.13849863670997883,stairs down,0.009032291589077767,0.4539676096800349,0.09478925099565982,0.0009543986247332057,3.0137105345202064,1.4550596828604028
-0.9731607092399397,-1.21203613281,-0.7783203125,0.010630370548568543,0.10279266594349004,0.27309408532156626,0.20788574218,0.41882324218,0.002463248571680419,0.04948140787066459,-0.031622093843433736,-0.17761230468,0.14929199218,0.007069792675980397,0.08382841739812634,1.015781200276446,0.8228461692,1.23763599491,0.010918374228186239,0.1041758172008371,stairs down,0.0066729244407015805,0.3212892893600383,0.08144155021054889,0.0013533027684264926,-0.48116062101055057,0.3477086292379217
-0.9825774672078756,-1.3564453125,-0.73071289062,0.01993109444531177,0.1408113082316403,0.25805031573450776,0.09558105468,0.44714355468,0.007719904765006229,0.08763506865662737,-0.06891849497797928,-0.18823242187,0.10949707031,0.006006422995923148,0.07730007524737587,1.023388724263368,0.76277388828,1.38587070914,0.021458407769170948,0.1461068934350021,stairs down,0.007584304722805764,0.3720780122899896,0.08686200439285037,0.0008430271816589792,0.026917579706523753,0.6291493359463532
-1.0054750278973714,-1.3076171875,-0.70263671875,0.023418451017966198,0.15259302506295475,0.28450962611165714,0.09704589843,0.48229980468,0.008586231195236714,0.09239679116169684,-0.10034528459502857,-0.22497558593,0.01538085937,0.0042831586742815555,0.06525858933394967,1.055584446437657,0.75996364964,1.37518122952,0.02514655563871287,0.15812293013684978,stairs down,0.004167990049520986,0.23297887445994547,0.06437525117250979,2.702248912018585e-05,-0.5163698102877934,0.806097102108536
-0.9839879000212834,-1.24426269531,-0.64477539062,0.02308983960806032,0.15154657544775582,0.2713446795582888,0.09301757812,0.42700195312,0.00606826693637415,0.07769051622331999,-0.0910050499224599,-0.20300292968,0.07666015625,0.005455162793771039,0.07366132499637419,1.0291894538550266,0.6559453893,1.31743588916,0.025475514034756445,0.15918316914606084,stairs down,0.003669909434773585,0.23131419554999866,0.06041758229712946,-0.0001050110710688852,-1.0395310678134357,0.21976636486159412
-1.0013398669975595,-1.39331054687,-0.73461914062,0.024197209372455897,0.15509087131190705,0.2713732038188691,0.12951660156,0.49914550781,0.006156258388571662,0.0782279617106415,-0.054846627369583324,-0.24291992187,0.11889648437,0.008795293818641322,0.09350369446842541,1.0449229348926192,0.78659121967,1.44171341928,0.02654288425355976,0.16243426638153546,stairs down,0.006167500281721611,0.33531776484005604,0.0782993548537974,0.0007109267470706464,-0.3270413490448183,0.27980088550936344
-0.9942232969537567,-1.3876953125,-0.70983886718,0.02807884071364438,0.16712353340826416,0.2605413204743916,0.10620117187,0.451171875,0.006780774927020773,0.08212732682246994,-0.028917746568624336,-0.22741699218,0.25866699218,0.01184704153742955,0.10855578647853024,1.0360344672395234,0.73460573264,1.41046300917,0.030451212172401716,0.1740404971484511,stairs down,0.007849433029642966,0.38616951946994504,0.0883623315556563,0.0009110827846083021,-0.23607745113361212,0.3109800632114289
-0.9896890391436955,-1.42724609375,-0.70971679687,0.025543871457320948,0.1593896046452401,0.24394093388733698,-0.03295898437,0.46997070312,0.012239894629286518,0.1103330116638851,-0.03782786493646739,-0.19970703125,0.107421875,0.00767955921686266,0.08739463646007349,1.0287917123729349,0.73349243252,1.43951047889,0.02737515336639607,0.165004167701819,stairs down,0.0033945996980843185,0.2649560338400079,0.05810465374375521,0.0007083693896270116,0.11953825569886156,0.5060900061636644
-0.9837567729287635,-1.197265625,-0.81408691406,0.006682239289714039,0.08152492423809668,0.2944749401429032,0.11315917968,0.39587402343,0.0037851235077928213,0.061357749155317276,-0.0875716670839785,-0.29650878906,0.05920410156,0.007767013772554314,0.08789343339517575,1.0362023651419356,0.87191531009,1.2506513627,0.006618258327760991,0.08113369394857337,Null,0.002939312174303018,0.21773441006996563,0.05406948696517966,5.904288182154425e-05,1.46577644854783,1.3997788728491518
-0.9601979810093605,-1.02099609375,-0.92822265625,0.00031896793167752747,0.017807679999328155,0.3159527445915116,0.27661132812,0.35754394531,0.00043290357149292454,0.020745763188258815,-0.11232668853947674,-0.18542480468,-0.01623535156,0.001411755828535467,0.03746395528786868,1.0179985315612208,0.98336876802,1.06853305165,0.0002551055242706913,0.01592552519127563,Null,0.00023957291559777023,0.062354447470056584,0.015433082965156738,0.0001510197986718486,-0.49148587047475356,-0.42196868135850585
-0.2070702621620103,-1.04223632812,1.01953125,0.6452748829619486,0.801217026635994,0.39934736428515466,-0.22546386718,1.08203125,0.07192507680184945,0.26749640929044866,0.019630668090103085,-0.45764160156,0.98278808593,0.1120615540769626,0.33389207418008177,0.995431788356701,0.51318831219,1.53640809596,0.037035201748063955,0.19194868753463726,Null,0.004993763162879611,0.2577475932599782,0.07048419763073331,0.00021823393608907677,0.7118303736061682,1.24483204575504
-0.931546434940247,-1.09033203125,-0.84973144531,0.0023616915672745125,0.04844701460633715,0.38611141251561726,0.19445800781,0.55737304687,0.005785363052037803,0.07582645273539196,-0.18262246213969135,-0.29553222656,-0.05920410156,0.003822282298933556,0.06163349709171916,1.0290949778297533,0.94663203965,1.20465496553,0.003089798560942152,0.05541412933827484,Null,0.0009729038141009534,0.12445463518997713,0.031094987297015653,-1.297941277987866e-05,-0.8013001884220081,-0.1323998603168325
-0.8744737274756124,-1.18029785156,-0.55053710937,0.01938388806243478,0.1388704096428074,0.17058267398632654,-0.67114257812,0.75524902343,0.12368766539329229,0.35079425006117126,-0.31623809191290814,-0.66613769531,0.02319335937,0.05010277124977373,0.22326474165404242,1.0379964632471939,0.88056130451,1.27274143175,0.008605267616547367,0.09252763473650631,Null,0.013122442583988436,0.4828228621099697,0.11426062902992887,-0.0005199132793983026,0.9759956845608291,1.2768832349777637
0.11400078667449992,-0.75720214843,0.69921875,0.3262095883360133,0.5695588756619088,0.5816223144498888,0.13989257812,0.90832519531,0.06415750668651764,0.25258874894542466,-0.32775539821911115,-0.83605957031,0.59729003906,0.17103555039575002,0.4124140551600435,1.0036362204755553,0.73435363332,1.2994310514,0.00975657909077575,0.09850063895023613,Null,0.009195891554551403,0.36302598418001253,0.09562846473794938,-0.0012452946175188838,0.6696404592430327,1.2087507109715687
0.42547440658748625,0.05236816406,0.57629394531,0.009748205191903695,0.09846286767646786,0.6549745986983059,0.03210449218,1.02685546875,0.06920369503757486,0.2623462078430141,-0.2216683476334427,-1.00012207031,0.7666015625,0.29260506811599607,0.5394498431898447,1.0059483536076501,0.4061099141,1.21257200371,0.01684360578042415,0.12942783401873992,Null,0.002407513104839861,0.2092551294400664,0.04893217035370285,0.00013654637843172544,0.05719500623644658,-0.35827800555952055
-0.8768556176135365,-1.29760742187,0.43725585937,0.09351532191880937,0.3048689989835891,0.40476431497371956,0.1396484375,0.70666503906,0.010415051906681598,0.10174254514516759,-0.08359136813719512,-0.36279296875,0.44616699218,0.021409420887574738,0.14587280637000255,1.0200066235665244,0.45108878621,1.35812955563,0.02400583423323834,0.15446506788018702,Null,0.02149810646699196,0.6828856401800749,0.14617462314625382,-0.0003631404516925027,3.9375020648145798,2.0143384542415146
-0.956601743341217,-1.05200195312,-0.91625976562,0.0008596802633640228,0.029242634808477688,0.3482407665715872,0.27587890625,0.41394042968,0.001112703593317032,0.03326884838279605,-0.1087233124557672,-0.20275878906,-0.01611328125,0.0023853236950442426,0.048710398630610725,1.0255231274688887,0.9870822705,1.12742008735,0.000820593225501169,0.02857011484756894,Null,0.00040654491028099045,0.08756871008995404,0.02010954696182046,4.9416171304248085e-05,0.060655910990351725,0.28758172208304167
-0.9535149468276665,-1.01733398437,-0.89782714843,0.0004206591306902389,0.020452924864667585,0.3473124186156111,0.21398925781,0.42541503906,0.00130081101419102,0.03596643277188333,-0.14030219183644443,-0.24743652343,-0.05419921875,0.0016221544965744363,0.040163945612315316,1.0258266567257222,0.94550115105,1.08003788022,0.0005089216265279034,0.022496539381831684,Null,0.00037343401498613,0.0916419258900305,0.019270687106835094,-2.047777639328284e-05,1.2491467245588526,0.40164257251263197
-0.9813096788153888,-1.18017578125,-0.79968261718,0.008839959020819951,0.09375952291565348,0.3062459309863333,-0.00769042968,0.4453125,0.00905397869016102,0.09488771684759316,-0.11049329969383334,-0.29968261718,0.05493164062,0.008029116126226742,0.08935608499439465,1.041719271220889,0.83206243859,1.22243781164,0.009617452388345717,0.09779581840395504,Null,0.008983693381258068,0.5092531009699997,0.09451869642342943,-0.0003531403544564682,3.81225376350361,1.4885975219017906
-0.9879334647659747,-1.26342773437,-0.76599121093,0.015992539062656883,0.12606330574744384,0.2963421899528931,0.16723632812,0.60388183593,0.007405557855255601,0.08578450920584646,-0.050839598072452835,-0.24499511718,0.25109863281,0.014155083599033513,0.11860041279869443,1.041963943252264,0.81819506249,1.30934545647,0.018158229739591497,0.13432805751899626,Null,0.005366208666539802,0.2308054687899812,0.07302368743427484,-0.0003954754304712992,-0.7326657949626387,0.8627019860110469
-0.6576218679132124,-1.07409667968,0.42065429687,0.23873061880711352,0.48733322541735,0.5243438562542487,0.24890136718,1.11950683593,0.05064130117778839,0.22445246939217542,0.07231622409373058,-0.21154785156,0.72766113281,0.059754926309195745,0.24381409986309172,1.0214717758523832,0.55823613436,1.20791739739,0.016632123868217812,0.12863105014190962,Null,0.003988339006408745,0.23044925794999926,0.06298947560873659,-0.0005927759116663025,-0.7759520518081748,0.310959261314433
-0.8344071382831073,-1.251953125,0.08361816406,0.12347879057555029,0.35040144162062564,0.3930608889437853,0.24865722656,1.07861328125,0.019536024437056328,0.13937593557583006,-0.041609424653276834,-0.18591308593,0.91418457031,0.054868066745484965,0.23357670617556636,1.0186350505576838,0.6422813565,1.37138069171,0.011676983865536639,0.10775440689493572,Null,0.006011854414741862,0.46745924737990663,0.07731681017451851,-0.00017935503098504094,11.594867407543479,3.086891043211046
-0.9587996199287568,-1.00085449218,-0.91748046875,0.00018797832793405133,0.013673413211928378,0.3226932010098919,0.29772949218,0.35388183593,0.00020178571415035206,0.014166685588391879,-0.10893092799475675,-0.15625,-0.05432128906,0.0007821390109755917,0.0278910600827198,1.017992511210162,0.97611443731,1.06167791623,0.0001511930483290136,0.01226278062302006,Null,0.00037355991311367623,0.07984862421994876,0.019275390277244422,-0.00026427725571890595,-0.49966490947310316,0.08598922420529986
-0.9677104334644516,-1.01916503906,-0.9404296875,0.0003064378040857591,0.017448804715363263,0.2879268523139355,0.2568359375,0.32165527343,0.0002493710049759411,0.015740462502180422,-0.14350507182109679,-0.17456054687,-0.10949707031,0.00035729688809550187,0.01884122466513211,1.020066483760516,0.98310212687,1.0760505594,0.00033279140038278235,0.01818362887572198,lift up,0.0011843682570273596,0.14292898671010335,0.03430345713624431,-5.44694839102042e-05,-0.3672187463832395,0.2487850455396758
-0.980035840846598,-1.0224609375,-0.951171875,0.000638484343535804,0.02520303924382585,0.2970121717912371,0.27331542968,0.33203125,0.0001679066727656944,0.012924440972532203,-0.13456238421814432,-0.16723632812,-0.09704589843,0.00047349537762251105,0.021703794133738796,1.0331720244559792,1.00256170042,1.07488284304,0.0006255964279548669,0.02494737870196846,lift up,0.007215721067492505,0.2957083495899724,0.08472618620592028,-0.001412586533602205,-1.228931309220488,-0.37688341228107125
-0.9352025379301734,-0.96508789062,-0.88000488281,0.0006443715584846806,0.025311002891927725,0.3070978594620231,0.25756835937,0.35168457031,0.00040373559687967986,0.020035015974683146,-0.12734897150080926,-0.15270996093,-0.09790039062,0.0002094183033381435,0.014429407226709752,0.9928149651490175,0.92738757427,1.02510602362,0.0007034102354904477,0.026445118271091278,lift up,0.005139552154382192,0.24871991272004834,0.07148317116934745,-0.0013712401848111019,-0.7767630938705241,0.6302549011009567
-0.9710778886316559,-1.14904785156,-0.87390136718,0.0023557257413414664,0.04838099956372492,0.2939196544052229,0.24194335937,0.43127441406,0.0011604967086423711,0.03395739992786859,-0.10256783065936304,-0.23364257812,0.099609375,0.004110364413295589,0.06390761885912156,1.022166945873949,0.92148025595,1.22698587047,0.0026709459529006556,0.05151634263315082,Null,0.001762632605810825,0.16420300541994948,0.041849798643937876,-0.0005590377725621357,1.2874444431247731,-1.4584230824966282
-0.9613049958842632,-1.19079589843,-0.68969726562,0.012851978576578308,0.11306784062707663,0.3681460731865789,0.21179199218,0.5947265625,0.007752243320917537,0.08781481674684022,-0.09141974197873685,-0.22241210937,0.095703125,0.004845394933354405,0.06942544817829989,1.041248948850158,0.88004842505,1.25770622302,0.009160908846063269,0.09546042916490134,Null,0.002333433440519315,0.17321582892998322,0.04817833757909257,3.905428675795613e-06,-0.9610157065618004,-0.07358131810689024
-0.957405453632619,-1.00158691406,-0.92626953125,0.00012792711840950733,0.011276774692552548,0.32115899948559523,0.25573730468,0.35888671875,0.0004469856066438266,0.021079017482625972,-0.12609790619970238,-0.15161132812,-0.0361328125,0.0003267020695690961,0.01802102700716831,1.018073938562738,0.99156933398,1.04670063388,9.123426258102108e-05,0.009523192820384836,Null,0.00021042518989189166,0.07499025977006113,0.014462802598378989,-5.656668624838318e-05,0.3075292251643855,-0.16093904444038518
-0.509289177094898,-1.51147460937,0.63024902343,0.44442454600177156,0.6649489257291067,0.34514820332076523,0.04235839843,0.8427734375,0.04561270602153135,0.21302579217941287,-0.3277749820607142,-0.95349121093,0.20654296875,0.12957310818158954,0.35904320198960565,1.0298703797111735,0.50244859814,1.53784045001,0.04205430308693648,0.20454764803361775,Null,0.01889073567967324,0.6050720780099255,0.13709250298679762,0.00027945777733124954,3.700823894979787,1.9915316663106089
-0.5086588045424999,-1.20849609375,0.24914550781,0.25819167551815153,0.5065741170187091,0.5182643983389634,0.17614746093,1.03405761718,0.028952833933368415,0.16963576351419235,-0.40408250761829273,-0.83349609375,-0.00415039062,0.08674179540866413,0.29362030246906623,1.0203159066598781,0.48303486416,1.34869977382,0.02130631648640184,0.1455211322195521,Null,0.006751581395191876,0.47473395112001526,0.08191711186286356,-0.0001806844127864083,4.39735070055847,1.4997557116796965
-0.9384215359820726,-0.99670410156,-0.89599609375,0.0004933231030724809,0.022153262171026176,0.3539412898679793,0.31030273437,0.41589355468,0.000556079377235925,0.023520164475176738,-0.1617343092169948,-0.27514648437,-0.02307128906,0.002958532188722394,0.05425129497438202,1.0175964647629534,0.97573326762,1.07615826385,0.0005548807474487433,0.02349480192870789,Null,0.0008004768834470713,0.10895317448000696,0.028219307837510376,0.00017785821387031632,-0.29667182848163565,0.767702519549679
-0.7882995605435553,-0.98461914062,-0.021484375,0.08227361761574796,0.2860359102670976,0.42810668945005553,0.30688476562,0.8310546875,0.020166052832098245,0.14161221418102768,-0.3094862196143888,-1.24389648437,-0.10485839843,0.08560662417564877,0.29177222592138097,1.0398468854471665,0.87716337542,1.43288327627,0.006227902104661656,0.0786975390245759,Null,0.003629684850610149,0.28662024631000804,0.06007928041158138,-3.0541088762227214e-05,2.0648622812265387,1.1138880658303594
-0.5836640247285083,-1.07458496093,0.00366210937,0.12100586596852185,0.3468967069208977,0.5049462081276795,0.15612792968,0.90380859375,0.036864248512690156,0.19146952402772766,-0.3199186377740332,-1.24389648437,0.40380859375,0.20725466291890726,0.4539929619857724,1.021509686034254,0.74147813928,1.43288327627,0.017705597414655456,0.13269429691762938,Null,0.0031008203358358316,0.28216907213993636,0.055530970924074795,0.00013672008602444663,2.5439493002646776,1.058186284620486
-0.7734147892399998,-0.8251953125,-0.68444824218,0.0008520921460353319,0.029105637287825795,0.6784625386046511,0.56066894531,0.72766113281,0.0020434981715775884,0.04507346634389752,0.1586999227795349,0.1123046875,0.33569335937,0.002776535035129371,0.052539436517498865,1.0432010105066278,0.9463134227,1.08539886289,0.0010443895886705645,0.03222293525081621,lift up,0.0006855637848962627,0.09183464063005431,0.026107047878639277,-4.054918734768512e-05,-1.1279042441506297,-0.3420603559544923
-0.7640493641691847,-0.79846191406,-0.7431640625,0.00013159235231475122,0.011440156313921312,0.6685757844302174,0.62109375,0.70520019531,0.0003266967111675725,0.018025570325606925,0.09370555048059782,0.01232910156,0.14733886718,0.001149757035675874,0.033815800391742284,1.0202165318867937,0.98798291222,1.07299785939,0.0003049326320067805,0.017414803743985352,lift up,0.013464886123934204,0.3601799882900423,0.11572254488646444,-0.0020639204553625982,-1.284938175699522,-0.43533029864955197
-0.7596829322038708,-0.77514648437,-0.73645019531,8.153308445819596e-05,0.009005261492136363,0.6710106634289247,0.64782714843,0.6943359375,0.00012678341208260585,0.011229504923853497,0.08413072811317204,0.05541992187,0.11962890625,0.00021608307876902608,0.014660195830424534,1.0172148332913442,1.00209607299,1.02921316541,4.166045258189529e-05,0.006437116719000491,lift up,0.013576371843632445,0.4381749199899332,0.11620404724948828,-0.002151971585910051,-1.1211345640803332,0.21997464370971395
-0.7698301117961492,-0.77685546875,-0.76037597656,1.2310859999077112e-05,0.0034985865617584624,0.6584928666004598,0.64587402343,0.66845703125,3.0046143160940337e-05,0.00546566228166878,0.09284008508103449,0.07958984375,0.10913085937,6.904656590963903e-05,0.008285514260764432,1.0173290154954597,1.00867802026,1.02784503557,2.310814564121365e-05,0.004793259872622601,lift up,0.01828949224775948,0.44831643844008795,0.13484947246224982,-0.0026791076991801123,-1.2282534761318096,0.061583399715583645
-0.7691755964912433,-0.775390625,-0.76257324218,9.103039698515606e-06,0.0030089589692323206,0.6572767102999459,0.642578125,0.67822265625,6.936691201942531e-05,0.008306139641147339,0.10162254539297297,0.08251953125,0.11706542968,5.5675778515402573e-05,0.00744142650042754,1.0168979149181623,1.00951290103,1.02850487222,2.3089937895221074e-05,0.0047921944263679215,lift up,0.015323684201401136,0.4456559791000245,0.12345385160450911,-0.0022950804314531103,-0.9156650754822642,0.21578850646941863
-0.769336501983237,-0.7783203125,-0.76037597656,1.7238189689683367e-05,0.0041398728210796645,0.6528136854188439,0.63000488281,0.67712402343,7.054279818447379e-05,0.008374666342324163,0.10077080698647398,0.08239746093,0.12133789062,6.349395302304408e-05,0.007945246122905616,1.014056913090578,0.9991590048,1.02850487222,3.831570786576557e-05,0.0061720523155281695,lift up,0.01558581429476102,0.42637134321989834,0.12448181747810631,-0.0024903012598067173,-1.20965057723611,-0.01917437609943975
-0.752774268076804,-0.77294921875,-0.72888183593,0.00023239391769187896,0.01520513107143943,0.639042490532371,0.61437988281,0.66723632812,0.000309169195732094,0.017537831681367865,0.10328721508128866,0.0869140625,0.12048339843,6.419186905416532e-05,0.007991306722383124,0.9928951136479899,0.96228644429,1.02128116198,0.00047703696970130533,0.02178481159544963,lift up,0.0034760256238389625,0.2204931280200526,0.0588056797085462,-0.0009843994083237858,-0.25524487915370253,0.9319364965662426
-0.769826630011358,-0.78051757812,-0.75610351562,3.450567092489089e-05,0.00585599461716101,0.6567239643585185,0.6416015625,0.6650390625,2.6449910192842863e-05,0.005127049750321306,0.09934187523709878,0.08898925781,0.11022949218,2.425197006460454e-05,0.004909405925943304,1.0167802605877778,1.00133852485,1.02783575714,3.0988359083171254e-05,0.005549511051974866,Null,7.997054661101121e-05,0.0351247044000047,0.008914981843030334,-0.0001410902145732072,-0.598099141704334,0.47838711781707244
-0.7632802327434897,-0.82385253906,-0.56604003906,0.0022515350040048705,0.047326612589454836,0.6640472412071354,0.58374023437,0.85217285156,0.0017969176875602141,0.042279530996344294,0.05178197224619791,-0.3046875,0.16760253906,0.012087506342394149,0.10965651180023091,1.0202769128768747,0.90262188278,1.13451632914,0.0013306942343583,0.036383561332297,Null,0.00037486079483223803,0.07964130149002813,0.019310836203001502,-0.00018280075357556317,0.1395696760787941,-0.7863443872445599
-0.7963062959519411,-0.98010253906,-0.5712890625,0.010308544330054065,0.10123194077955298,0.6192059685167058,0.38415527343,0.95495605468,0.013536044328193678,0.11600181264975057,0.12145996093500001,-0.17810058593,0.39440917968,0.016710038544093014,0.12888655554291142,1.030868213270412,0.77728383394,1.23846896821,0.009957642338474277,0.0994940599823797,Null,0.00306496564761973,0.227005039699975,0.05519906192978147,9.801321685296036e-06,-0.7399510234242226,0.29326236535257977
-0.7865770477571649,-0.88562011718,-0.68823242187,0.0019714371174194755,0.044286285353622376,0.6270569476850001,0.39294433593,0.74914550781,0.004750719702438531,0.06874759236911263,0.1602242066651031,-0.03186035156,0.38818359375,0.013149574157649379,0.11437566545187138,1.027373457752268,0.91490148692,1.168477391,0.001858320756277093,0.04299699737547486,Null,0.0007638036626441726,0.10159768711002926,0.027565676671587467,0.00011732972916060649,-0.2049909087971069,0.7860990475551413
-0.7687545095999363,-0.93408203125,-0.70263671875,0.0014963853345670677,0.03855974867379695,0.6701932287481528,0.5400390625,0.76086425781,0.0006939433703672447,0.02625877660706868,0.13465755000605095,0.04138183593,0.30261230468,0.0019127667271461497,0.043595682120878776,1.0298379983615287,0.99133399237,1.24217465232,0.0017972211291605394,0.042258417632726586,Null,0.00010317525962364772,0.03615705096990496,0.010125121844447027,0.0001604042111432272,1.2583220800264812,1.5902171302558965
-1.0024255116744791,-1.34423828125,-0.50219726562,0.03736909363795522,0.19280680211528897,0.3043282826709375,0.14807128906,0.5400390625,0.010798693824388908,0.1036457940651085,-0.016719182330729165,-0.17736816406,0.27587890625,0.007727233740968021,0.08767546824454649,1.0584854877285415,0.6762494907,1.4241113211,0.03313710379863727,0.18156132494656646,Null,0.007815245997173198,0.33851153751004404,0.08817336100511265,1.421837698444298e-05,-0.038714835942749826,0.9842021329876267
-1.014999389644762,-1.52233886718,-0.67321777343,0.033496362218326546,0.18247459853328662,0.2754131498758929,0.10852050781,0.46960449218,0.009080290373095523,0.09500653148934878,-0.02536810011946429,-0.16259765625,0.20947265625,0.008479494648322879,0.09180970246053728,1.0581343600923216,0.68669476819,1.57495498952,0.036060245134751555,0.1893293448424551,stairs down,0.01006708604961357,0.40155035485997814,0.10003580818070032,0.0009534708891117365,-0.29015917510054967,0.00786110923266357
-0.9885560646999999,-1.38977050781,-0.70922851562,0.027004208507046833,0.16390767336063883,0.2729223006776923,0.17749023437,0.40319824218,0.0024311469938535,0.049180072929716157,-0.013238055889384617,-0.158203125,0.13000488281,0.005760994014308915,0.07570634356024056,1.0292805031925643,0.74400910143,1.41860020451,0.027644187612021285,0.165838543611985,stairs down,0.008999210468664084,0.4168051263700363,0.09462061441033283,0.0008490618014765374,0.28089978354025114,0.5688666364619631
-1.024116960148201,-1.33483886718,-0.79846191406,0.013414084310770624,0.11551238167273821,0.2858809213756085,0.09924316406,0.57080078125,0.01053747465301009,0.10238027553619486,-0.06200719762560846,-0.19787597656,0.07604980468,0.004379415665517688,0.06600184962605156,1.0704012430021164,0.87994301576,1.40049078249,0.015953367725354415,0.12597205393383967,Null,0.007084628802883434,0.2990752337199183,0.08394726913010672,-0.00021974810823802303,-0.1192234672005954,0.9656975395643466
-1.009538097489645,-1.28308105468,-0.83935546875,0.007466778147501879,0.0861544893101102,0.3127268051914793,0.10363769531,0.45849609375,0.006690403055523516,0.08155252829779724,-0.040993233402248516,-0.22473144531,0.28698730468,0.014014038062508016,0.11803014343955953,1.067348817811716,0.93219889902,1.32281812791,0.0074608439375535365,0.08612024693419011,Null,0.004797480151930758,0.2613970504099825,0.06905861782145989,0.00037608306516964283,-0.9585753793818945,0.0014471431971601306
-0.9676476111739487,-0.98815917968,-0.95556640625,3.535567909814899e-05,0.005930798253463583,0.2966170873356923,0.26062011718,0.32653808593,0.00017280842210404298,0.013111911571834672,-0.08655411157435898,-0.10437011718,-0.05688476562,0.0001886340674134862,0.013699150091214496,1.0159664920329232,0.99908232305,1.04351573702,4.537049717434255e-05,0.006718469167754204,Null,0.00014039334537315067,0.043112941100048374,0.011818349271342518,0.00010218035756603166,-0.17306062192623095,-0.8699485079411724
-0.9985434449717284,-1.26354980468,-0.74963378906,0.015368833883492765,0.1235878818433787,0.28245261863024695,0.13110351562,0.46240234375,0.0057473066471502065,0.07557664616549604,-0.07043984495290123,-0.18139648437,0.07800292968,0.0037324903077141985,0.06090525629275632,1.0435979324144444,0.77631227311,1.33935285978,0.01753711852980041,0.13201842565231273,Null,0.0030511624396445335,0.260867086989947,0.055066578825975245,6.722817814980138e-05,2.3153780309422647,1.24525648103597
-1.0015581916329412,-1.27758789062,-0.74963378906,0.026018218932834954,0.1608265232670632,0.24217529296505882,0.06359863281,0.44738769531,0.006006213802215032,0.07727148977980325,-0.003528550091882353,-0.20544433593,0.14721679687,0.009706751701256507,0.0982326481463131,1.0372192281285293,0.76100338331,1.31793971411,0.02760449346918474,0.16565661500778228,stairs down,0.011247011975463055,0.3770860212300704,0.10573955306076219,0.0011093209063699782,-0.7278826999654209,0.5959115120176154
-1.0022520084927837,-1.330078125,-0.77551269531,0.021988376124403176,0.14790210944889198,0.25471606696597937,0.04296875,0.43627929687,0.005759922566742775,0.07569829749891203,-0.038194794014432994,-0.21813964843,0.15002441406,0.006814231891281769,0.08233533254093092,1.040606861359897,0.78598603009,1.40081872608,0.022485845308268335,0.1495658346319558,stairs down,0.009913570270596554,0.4491459218199907,0.09930996623155737,0.0008914577824041034,-0.354100413127338,0.33352094142922895
-1.0356258088060735,-1.34387207031,-0.73291015625,0.02173405270936192,0.146971816899291,0.2786326028054602,0.10327148437,0.48278808593,0.013043728893664279,0.11385827162317208,-0.07156016343668713,-0.21813964843,0.04638671875,0.004012091296689654,0.06314647448317878,1.0802599376406132,0.74484760012,1.42501834681,0.02703401842275313,0.16391511690199262,stairs down,0.008292699319474591,0.29571514182998726,0.09078449131612125,0.0003553873271443951,-0.6448769674233246,0.8122453998354242
-1.0362922376585793,-1.26794433593,-0.80029296875,0.017518483091012674,0.13199527898835925,0.27234020128540987,0.13500976562,0.44934082031,0.00909967130838547,0.09513120586094884,-0.05062315893737704,-0.14953613281,0.02465820312,0.0018890292159583467,0.043344049786985944,1.0764976016219125,0.83491256306,1.31876725845,0.02024845896160495,0.1419077575218313,stairs down,0.009569681801450612,0.31697609217007994,0.09755710357669137,0.0001435722527585186,-0.7074564468935041,0.8261236890559954
-1.0041328517832757,-1.31616210937,-0.71069335937,0.027317155768902892,0.16480339990669413,0.25250173984936786,0.03198242187,0.5498046875,0.011401292173051109,0.10646956140320056,-0.011144177666436777,-0.15380859375,0.18774414062,0.006146521241546103,0.07817414154836991,1.0424069025053448,0.72212327428,1.40758183248,0.03033340943516078,0.17366369653983024,stairs down,0.012406143058456007,0.44023004320001746,0.11106234008747637,0.0009148542016491204,-0.33642710998191605,0.5246304907352389
-0.9792448513136649,-1.32238769531,-0.78466796875,0.014633658125930713,0.12065256779198769,0.26523066814921464,0.17834472656,0.45739746093,0.003490244076723731,0.05892342952957019,-0.027063819125968586,-0.1708984375,0.13940429687,0.00850614007949123,0.09198698448518215,1.0209780547753402,0.81590744915,1.34971985868,0.014168848553378894,0.11872095897616326,stairs down,0.01107597507186151,0.45503731411997705,0.10496659313124111,0.0010846841466473696,-0.20099471278027403,0.5646820432796033
-1.0174426567224388,-1.31713867187,-0.751953125,0.02033141676113679,0.1421528920131955,0.26844601514518296,0.10632324218,0.43383789062,0.00836901357798622,0.09120297696560536,-0.056191793300182924,-0.19348144531,0.1171875,0.005647178430146398,0.07491825155012917,1.0595551921369513,0.80123126713,1.38498391178,0.022025609847103344,0.14795711320526514,stairs down,0.007547345773022396,0.35732577672001753,0.08661019207903525,0.0008844956800386458,-0.20117755138274118,0.6604715707979296
-1.0411852459543025,-1.30725097656,-0.78967285156,0.01722032275307779,0.1308441997091833,0.2827141340345349,0.10656738281,0.53540039062,0.012052544811521921,0.10946447769286259,-0.06192300485686046,-0.19934082031,0.1005859375,0.00469779324773813,0.0683409137800907,1.0867738365987207,0.8242501167,1.38524423568,0.02064426636425012,0.14326284081996563,stairs down,0.00916402196026139,0.370124812450058,0.09545021091028565,9.066627803567971e-05,1.1065540015622677,1.3500804519784861
-1.0311859631103824,-1.45349121093,-0.70520019531,0.02861601782687156,0.1686998700199781,0.27039441384606555,0.13073730468,0.42468261718,0.007024607494286291,0.08358362076976673,-0.04148722997628415,-0.177734375,0.07995605468,0.004635491834686588,0.06789816844520101,1.071971075906612,0.76730302923,1.48018292206,0.029272822086308093,0.17062491409486535,stairs down,0.009338943896876166,0.38395443399997475,0.09637381084384578,7.18858216179593e-05,-0.26763173446769173,0.8617498426741693
-0.9876451646926487,-1.34204101562,-0.70886230468,0.02418491574557044,0.15509412133046843,0.2680604676901622,0.04797363281,0.72644042968,0.015105962474842105,0.12257368650581879,0.0007185652438378377,-0.1689453125,0.13293457031,0.006668806935261236,0.08144175421861792,1.0345315503975134,0.80464236123,1.36908954737,0.02287929956059689,0.15084968568439297,stairs down,0.007087092559977416,0.35002855018001355,0.08395703634326968,0.0010366270852120302,0.19596148248337508,0.6044110777207128
-0.9865575329965517,-1.33728027343,-0.7431640625,0.024732451258553414,0.15681298011988348,0.25041461812672416,0.0859375,0.37487792968,0.005153593785989325,0.07158194905768794,-0.03374051499551723,-0.21069335937,0.12548828125,0.006632850679482078,0.08120794818237193,1.0233111214328736,0.76616926699,1.36655355742,0.026436971621523985,0.16212660177469174,stairs down,0.009665199577992464,0.4083312651100641,0.09802883480885108,0.0009572425741518879,-0.48978866596558657,0.23103271363462857
-1.043555427316606,-1.55053710937,-0.72900390625,0.02726795195394848,0.16462895140003797,0.2774687795891515,0.04223632812,0.55505371093,0.014313541525784505,0.11927611994554736,-0.05581942471381818,-0.19226074218,0.13098144531,0.005581275784813462,0.07448120481682682,1.0884041473384847,0.74677785497,1.65084971977,0.0315572642059071,0.17710451168506305,stairs down,0.005871710972776837,0.30299738840994905,0.07639453413477366,0.0002830938281619683,-0.5348402584032157,0.550345520786853
-1.0274002399809574,-1.21472167968,-0.79467773437,0.014786121419701008,0.12127436595456322,0.2708298703415426,0.09619140625,0.50573730468,0.011990171495984888,0.10920803078541212,-0.09049176154920212,-0.25061035156,0.03540039062,0.003585923650745787,0.05972310766172282,1.0731739198751065,0.8312056569,1.29451812157,0.017689765924825157,0.13264867668101715,stairs down,0.0036516455148286244,0.22689004064000073,0.060267917406138675,2.2545839552383806e-05,-0.39046609505758223,0.8229200945736498
-1.0089583423220443,-1.37084960937,-0.75122070312,0.026605556154458327,0.16266088691355865,0.23948576700209942,-0.06188964843,0.42333984375,0.011268937820757148,0.10586160066700573,-0.01871789753071823,-0.18249511718,0.18981933593,0.007831958303438967,0.08825354279333303,1.0454675224105525,0.77230124384,1.39278313517,0.02830872062488558,0.167786527628047,stairs down,0.008992737048784491,0.4006318712100665,0.09456771869237784,0.0007592892591367314,-0.23352459473567944,0.4576733755125016
-0.9798021104565,-1.35083007812,-0.63623046875,0.033333350886711806,0.18206637691789182,0.2423190646663889,0.08935546875,0.40502929687,0.003578545903303235,0.05965454796349838,-0.009645589192944445,-0.1884765625,0.14916992187,0.008968560301255478,0.09443905424266225,1.0157299823030554,0.66101682876,1.36798957185,0.032924826562455295,0.18094725988345484,stairs down,0.008840247607508584,0.41531799141000647,0.09376105332599567,0.0010252928830403651,1.1044060212769242,0.9471884119420615
-1.0190820631596078,-1.37487792968,-0.65734863281,0.028320901419992175,0.16773728711631936,0.2245088465034641,0.02136230468,0.42272949218,0.007800844373997112,0.08803328042880121,-0.026251499948366015,-0.232421875,0.13696289062,0.008424616328144525,0.09148526371130264,1.0515690751907845,0.67291298241,1.40188585844,0.030020409864735968,0.17269683852217646,stairs down,0.008121727911405238,0.4234399367300057,0.08982563510736678,0.0013330807031576271,0.15925496077921686,0.4742195190076755
-1.010187903112558,-1.27453613281,-0.86999511718,0.01049135396322333,0.10212912277725243,0.27069943449831396,0.00720214843,0.44653320312,0.007044069613865953,0.0836846205748827,-0.06088114893523256,-0.25622558593,0.10522460937,0.006207806257128428,0.07856025942093532,1.0536493697840696,0.91048909105,1.328065164,0.010956189859772831,0.10436709769615296,Null,0.009047185477276695,0.37209713508991626,0.09483978891642017,-0.000418980279068226,0.7674697859054587,1.2253825749620109
-0.9779583196954973,-1.08764648437,-0.93225097656,0.0005669881585347005,0.0237490975437903,0.2717125378321989,0.00720214843,0.36376953125,0.00364556435904006,0.06022024273155315,-0.0394108158108377,-0.22143554687,0.17041015625,0.006947654163434775,0.08313410257377316,1.0210136400968586,0.99062649639,1.09669807126,0.0004185048193638036,0.020403766678118346,Null,0.0015265566416815535,0.2064849954899728,0.038968759263432906,-3.0086070685266332e-05,2.0779452788804207,0.9960634802267506
-0.987082317372675,-1.25085449218,-0.8017578125,0.0059607320303435,0.07695950613335793,0.27714470541025477,0.10229492187,0.40734863281,0.002539295662438068,0.050230685887369016,-0.06567538315738852,-0.20153808593,0.0478515625,0.002111441047315535,0.045803846762301016,1.0292182603125477,0.82103508504,1.30758538752,0.006750594784193058,0.08189992286434376,Null,0.0016018924752053349,0.1987264852800763,0.03989598148210654,-3.74400489322299e-05,2.218452009739706,0.7638119482969572
-0.5508547619541988,-1.35461425781,0.42846679687,0.345739817065775,0.5863698937791784,0.5100616960860773,0.17138671875,0.8916015625,0.03462011865784295,0.1855501206791381,-0.38389629553381216,-0.87426757812,0.15307617187,0.10520543930608083,0.3234566335462186,1.0726073053439227,0.53440398923,1.58764288495,0.042466422080266374,0.20550377359990452,Null,0.00821847741952262,0.32563737841996954,0.09040504115882352,-0.00034301503706679815,0.06021817496827442,1.1002756586310893
-0.9697258609429309,-1.08483886718,-0.85705566406,0.001684752071677967,0.040927614009460704,0.3174333243494253,0.22229003906,0.47863769531,0.0038212410465694327,0.06163829889873161,-0.14495989919741378,-0.30041503906,0.03637695312,0.006961865875923804,0.0831976871823908,1.0353461417259193,0.90208125734,1.17807187357,0.002615134116426159,0.050991220911152116,Null,0.0025526052390451265,0.20693245607992594,0.050377922684377754,0.00016925468703492865,-0.5437741594675223,0.4968487471017416
-0.9506778417421988,-0.96948242187,-0.93579101562,5.964860915185892e-05,0.00770300673561077,0.31003686395198954,0.28881835937,0.34045410156,0.00011188277662042312,0.01054973947170449,-0.1918434023197906,-0.21020507812,-0.17370605468,7.887878638623215e-05,0.008858092822218404,1.0182815424840836,1.00264305765,1.03445082326,6.725829898111973e-05,0.008179618651876082,Null,0.0006141405134406045,0.10909859466994476,0.02471689944313964,1.1303688190601206e-05,0.13067579821070208,0.45739341951268053
-0.9405039591919878,-0.96118164062,-0.92199707031,5.487434324182724e-05,0.007385375745962093,0.31308314311584334,0.28686523437,0.34130859375,0.00013506166438762606,0.01158654564153455,-0.22074430534253017,-0.25476074218,-0.18151855468,0.00043106594847847437,0.02069949674886602,1.0157986892937956,0.99791004414,1.04035106868,6.7490479709889e-05,0.00819047682097997,Null,0.0012769372892382496,0.13135765258004994,0.03562646342158572,0.0002032393369392246,-0.661291241349339,0.5685689403307757
-0.9634910406033139,-1.14611816406,-0.87915039062,0.002203951877179039,0.046809595207334465,0.30700115824436053,0.24731445312,0.36840820312,0.0009075941422725898,0.03003859903762321,-0.16648332462302326,-0.24340820312,-0.07043457031,0.0021189041749743003,0.04589754856911949,1.0264624400484303,0.94858298969,1.20716704681,0.0018671491525419739,0.04308472622883011,Null,0.0006831491901782514,0.08921855618007157,0.026061032070141352,-0.0002376642322458068,-0.9553746759741122,-0.3472764358102962
-0.9948535961071429,-1.22399902343,-0.76940917968,0.013285591323971802,0.11494604634107466,0.27387816041027474,0.07141113281,0.42395019531,0.00819367444500109,0.09026989673054268,-0.1411038912224176,-0.24658203125,0.03002929687,0.00658935398361617,0.08095152093659481,1.0475721896189012,0.80101630319,1.29512204195,0.015243894320882162,0.12312650673099766,Null,0.006725343520638199,0.35339201438989676,0.08178258423229004,-9.163130482962979e-05,0.3138355956119856,0.9884600593598967
-0.6121885557405946,-1.20141601562,0.21643066406,0.25679724959211697,0.5053802096947194,0.4228654191265405,0.18420410156,0.92028808593,0.02983318824935797,0.1722554143483868,-0.3828837626659459,-0.95959472656,0.033203125,0.10526537481820095,0.3235681887827612,1.038729278437081,0.83464433344,1.25210073496,0.011068740249356016,0.10492334926498068,Null,0.008355050192080079,0.4200564972600205,0.09115858576464081,-0.00047629877121669635,1.2003192554604434,1.1344705154681503
-0.7704797503559195,-1.44738769531,0.11608886718,0.1148178624622946,0.3378727418563427,0.5942179361946551,0.11145019531,0.92028808593,0.037022636991609265,0.1918589669934544,-0.1063351685958046,-0.71618652343,0.3466796875,0.08216560966366486,0.2858205617449041,1.0763735338972988,0.70417820146,1.49777726056,0.03210488715574491,0.17866274460564585,Null,0.007600689786544045,0.36808413441997345,0.0869310511919304,-0.00012155031621385985,1.3171814529532595,1.3349426672971785
-0.851501464840253,-0.92443847656,-0.60900878906,0.006471144498165062,0.08018845233209818,0.45222956017183535,0.35998535156,0.72937011718,0.010228319078968316,0.1008145965734426,-0.26084880587177217,-0.36474609375,0.33776855468,0.022576294266260503,0.14977785660058848,1.0177213996779748,0.92595646805,1.06620841234,0.000884346106265645,0.02964370049455363,Null,0.011913106061452593,0.4209718098600206,0.10880122543427699,-0.0009913585922183103,0.7330880915644693,1.3235399308635611
-0.8975028991660938,-0.90673828125,-0.88793945312,1.6699389051782402e-05,0.004075832806573118,0.3596242268839583,0.34838867187,0.36938476562,3.0690124733267314e-05,0.0055254212810983815,-0.3281510670938021,-0.35107421875,-0.30700683593,0.00013685056714846816,0.011667810582020228,1.0211237083661457,1.01413245936,1.0298893651,1.3886445408444577e-05,0.0037167351495556236,Null,4.392092649659704e-05,0.029045195759977105,0.006610005421411842,8.806554470345205e-05,-0.05937266319567058,0.6857035935507056
-0.9023722772978261,-0.94030761718,-0.88452148437,0.00019319289947708541,0.013861563334158377,0.3528117304232609,0.3232421875,0.37158203125,0.00013179034411022923,0.011448759419258705,-0.3455916694935327,-0.37683105468,-0.32800292968,0.00013363236032041018,0.011528490685800195,1.0287525442679348,1.00637735159,1.07584871954,0.00031146451578361857,0.017600334481196998,lift up,1.861579038741223e-05,0.017559402709935057,0.004302861561050692,3.521999738388501e-05,-0.6415470226105939,0.0777495607655967
-0.9096278036755483,-0.94506835937,-0.88610839843,0.0003817913806472281,0.01947635002893263,0.3562413369414839,0.337890625,0.37023925781,6.388575025300652e-05,0.007967031073263237,-0.34391696068193545,-0.37524414062,-0.32690429687,0.000171779041816166,0.013064103104824344,1.0357078660223227,1.00773180409,1.07871316677,0.0005356518749061769,0.023069374858422042,lift up,0.011870222522956813,0.3584229973899937,0.10859852872927672,-0.0023980206347823003,-1.1822624953349627,-0.36438030854384323
