avg_accX,min_accX,max_accX,var_accX,std_accX,avg_accY,min_accY,max_accY,var_accY,std_accY,avg_accZ,min_accZ,max_accZ,var_accZ,std_accZ,avg_magnitude,min_magnitude,max_magnitude,var_magnitude,std_magnitude,Label,var_pressure,range_pressure,std_pressure,slope_pressure,kurtosis_pressure,skew_pressure
-0.9739311373928061,-1.02185058593,-0.9306640625,0.00026709088780175967,0.01630117109874399,0.2654493682202551,0.23840332031,0.34375,0.0009630917176809314,0.030954450155469687,0.08134678431596938,-0.00769042968,0.119140625,0.001089516874249187,0.032923519172267886,1.0137678270475,0.98300614624,1.07621819038,0.00020623613615281664,0.014324242073085873,Null,1.0225862219099115e-05,0.01325046974000088,0.0031896221488877234,-2.0248363380171588e-05,-0.3019414390816766,0.2089185820872144
-0.9766833496052,-1.03051757812,-0.89233398437,0.0005506956981705752,0.023408165662429047,0.27854553222260003,0.13049316406,0.5234375,0.008653404589504183,0.09279082695265013,0.05589233398135,-0.13305664062,0.20361328125,0.004179144670661582,0.06448448609788461,1.0232598522286,0.97252261151,1.10514007777,0.0008819451927021514,0.029623225123855786,Null,9.055792282707196e-06,0.013130248960010249,0.003001751708801656,-1.4029847886013367e-05,-0.28071382822245594,0.0005868003018999653
-0.9771868896446501,-1.01037597656,-0.93188476562,0.0002009171004200048,0.014139042220670564,0.2630285644495,0.13891601562,0.34204101562,0.0014606592508200006,0.03812290590400869,-0.056438598630300006,-0.1552734375,0.01879882812,0.0017293493347458608,0.04148135229319473,1.01509086408805,0.97832635659,1.05754959158,0.00022921319376889706,0.015101891530535259,Null,7.538513364931531e-06,0.010350213009928666,0.0027387626399720867,-1.373107170762046e-05,-0.5813488530828481,-0.48734956421519837
-1.3630261230425997,-1.81970214843,-0.88537597656,0.05805344740205121,0.24033971824282593,0.22426818847410004,-0.07934570312,0.62646484375,0.032660434188361086,0.18026960924520607,0.26702453612974997,-0.11218261718,0.47644042968,0.02274132761433691,0.15042480173251094,1.42731084291175,0.9577262768,1.8862643988,0.0571013757389432,0.2383607955605294,stairs up,0.001541104393176942,0.14321953690000555,0.039158637249156886,-0.0006627249712403027,-1.060772728277103,-0.25276122697838127
-1.285102539058,-1.68395996093,-0.77478027343,0.027314875090009474,0.16485842627709216,0.21421630859139998,-0.01696777343,0.59680175781,0.02585731799248754,0.1603995991345524,0.255932617184,-0.04418945312,0.43408203125,0.015470089025661878,0.12406747591747633,1.3429638306599998,0.83868692257,1.7484233813,0.027764711091469045,0.1662103713250521,stairs up,0.0023720114128896424,0.17914796984996428,0.048581388986166235,-0.0008368186714362898,-1.0034654505619647,-0.014609727997277876
-1.111323242184,-1.51391601562,-0.58251953125,0.053932295947477706,0.23165196840894817,0.22128662109019998,0.02587890625,0.51818847656,0.012399383699319113,0.11107378980129613,0.1788378906226,-0.12805175781,0.5185546875,0.02431403509870134,0.15553927132145062,1.1638568804914,0.65088033711,1.55809873593,0.05187915207882991,0.22719981584155338,stairs up,0.0007731121439755482,0.08531029192999995,0.027735294901184492,-0.00044929875088344423,-1.2170705279447942,-0.5036439522156966
-1.1120825195276,-1.41345214843,-0.8037109375,0.01708584615927926,0.13038564694199614,0.251022949215,0.02575683593,0.66918945312,0.022253936792669654,0.14880412329201873,0.1139575195296,-0.12731933593,0.44274902343,0.022864671932580224,0.1508321867935267,1.1634503557971998,0.81458763457,1.51140432513,0.021108612797112992,0.14492435866039713,stairs up,5.080204820534216e-05,0.023443341299980602,0.007109714337743497,-2.260161040008011e-06,-1.2277790202535515,-0.22389908366790737
-1.1120874023406,-1.50366210937,-0.9326171875,0.016291846755794846,0.12732002011473242,0.254458007809,0.05480957031,0.49841308593,0.01733927166034364,0.13134905900706684,0.10630126952920001,-0.16528320312,0.27917480468,0.01637696602172461,0.12765218835419934,1.1583949067794002,0.96295760813,1.58593213028,0.02077036386675365,0.14375851991245558,stairs up,4.678584288450842e-05,0.05112750547004907,0.006822896281645052,4.369370200714785e-05,24.680102710745565,4.2719021936522585
-1.099072265622,-1.81372070312,-0.37646484375,0.11233207568432221,0.3343208269101711,0.23557861327840002,-0.34130859375,1.22009277343,0.08056896476215084,0.28313622152303314,0.0865405273432,-0.80236816406,0.53466796875,0.10406271621002235,0.3217800531869125,1.212649889542,0.49994744084,1.89461735795,0.09638751179171585,0.30968625128144983,stairs up,0.001228767871313852,0.13517741590999321,0.034966041125029906,-0.0005505461475335814,-0.44403730868449065,0.41622683429361323
-1.3783569335902002,-2.12072753906,-0.77856445312,0.06947738276646455,0.2629258371720669,0.155212402343,-0.46130371093,0.74145507812,0.08064130757143359,0.2832633068958569,0.2846582031216,-0.17102050781,0.58654785156,0.023106825914544937,0.1516287960282354,1.4521725419824,0.84204995229,2.20622939337,0.06888775457809747,0.26180778408062466,stairs up,0.0023471651081344706,0.15550217808004163,0.048326279420143635,-0.0008321994396757714,-1.278705942476493,-0.09995519222127795
-1.2200073242156,-1.45068359375,-0.87609863281,0.021322323599172636,0.14565614295722915,0.18098876952880005,-0.39111328125,0.53479003906,0.0373972256632455,0.1928995581512028,0.25718505859040003,-0.19763183593,0.60510253906,0.02360370950443596,0.15325041910844414,1.2835827906602,0.94526411358,1.58291040646,0.021754595164875934,0.14712519223114562,stairs up,0.0020684302758165692,0.14194940265008427,0.04536615615673744,-0.0007759927079888603,-1.3978874834998067,0.11511893743677437
-1.1999999999959998,-2.10424804687,-0.62951660156,0.11034668869703405,0.33135321826345504,0.264367675778,-0.12573242187,0.85815429687,0.06075236141287251,0.24586296916332917,0.2355029296854,-0.27758789062,0.60900878906,0.05192886678340337,0.22730865018623103,1.2950703127792003,0.73306951753,2.19530380491,0.11061061321087555,0.3317492428700044,stairs up,0.0013672617728885306,0.11334928978999415,0.036883945884681156,-0.0005573041136964481,-1.185884664773908,0.6421126904519021
-1.0694482421840001,-1.67663574218,-0.49938964843,0.056789210597410586,0.2377083602745674,0.3097827148404,0.02880859375,0.67883300781,0.020957657326401303,0.1444052251124221,0.0533251953118,-0.26513671875,0.46752929687,0.03354236969286305,0.1826873226154424,1.13905171402,0.59660803431,1.73757027648,0.05610294853868566,0.2362677163642808,Null,6.237720692714771e-05,0.03245617321999816,0.007878154662896127,3.55731202266324e-05,-0.7008855484340133,-0.1827395651626335
-1.0042504882774,-1.1943359375,-0.80871582031,0.005746760374463926,0.07561763400551227,0.18641601562159998,-0.00646972656,0.40417480468,0.01152331603824696,0.10707800641614376,-0.0301831054682,-0.25244140625,0.14038085937,0.008178118371025124,0.09020658390145365,1.0309672222683999,0.8125159372,1.21881025727,0.006641743074024119,0.08129289242396286,Null,1.5614833136293556e-05,0.019366280529993674,0.003941669566390882,4.411288886999491e-05,1.087024293539546,1.0033544261014025
-1.0356445312464002,-1.28051757812,-0.82141113281,0.008706578657179415,0.09307548422594167,0.18553466796500004,-0.04577636718,0.42846679687,0.011734142524910292,0.1080530971896953,0.0623266601554,-0.14721679687,0.25048828125,0.01187800707456635,0.10871346300800798,1.0643155190167999,0.84272596241,1.29852989616,0.010308473648122232,0.10127650902297936,Null,7.5423343108644e-06,0.01242656664999231,0.0027394566321279987,2.9382386146469967e-05,-0.11358192795097155,0.34433222074979575
-0.823308105465,-1.25036621093,-0.50061035156,0.017788486390841768,0.13303963303800698,0.5639648437464,0.13134765625,0.71691894531,0.02838542293665737,0.16805801326320052,-0.008806152342,-0.18994140625,0.15881347656,0.00878665315985316,0.0935025127686625,1.0203301809076,0.61022631771,1.2717704744,0.009630363245838502,0.0978887707023094,Null,0.0005564724134069838,0.11997944205006661,0.023530619442334044,-0.00012290070824087662,0.14730515641981645,0.34845417255405914
-0.7384570312456,-1.14501953125,-0.26428222656,0.03875942275731818,0.19638132712539547,0.6826684570282001,0.31604003906,1.11462402343,0.03179615112372134,0.17786840744804214,-0.1391064453098,-1.22277832031,0.26586914062,0.08084554717677087,0.2836217894324888,1.0772356519416,0.86821021524,1.53209336566,0.02101816883023517,0.14461354703513774,Null,0.0008053332848800117,0.1271128459100055,0.028307359793092887,-3.4985443140252755e-05,0.32165189006329253,0.9238793182492243
-0.7239819335902,-0.84252929687,-0.63891601562,0.0029622663865025603,0.05429046927933159,0.7107421874965999,0.51440429687,0.81188964843,0.006191873071153635,0.07849148811048155,-0.0070336914046,-0.16369628906,0.14538574218,0.010960145145719035,0.10442865708219387,1.0241102064034,0.97374475996,1.09679189432,0.0005686114452349705,0.023785886319597084,Null,0.00025104127568078806,0.06642206461992828,0.015804621770304537,0.00018373987174490173,0.08066222699797088,0.17552769859348494
-0.97425537109,-1.08312988281,-0.6943359375,0.009300125454066312,0.0961957630397305,0.1264941406228,-0.3310546875,0.59741210937,0.03838786022049029,0.19543776738232516,0.0860668945306,-0.1416015625,0.57861328125,0.038664510147244105,0.1961407341591947,1.0271362357465998,0.90356899653,1.12468340843,0.0035112488482241058,0.059107466567118114,Null,0.0119173147310641,0.5560769285799552,0.10889319610245986,9.341468135554196e-05,4.074311226387135,1.7142506699399789
-1.0040844726528,-1.04223632812,-0.96887207031,0.000288100823680659,0.01693104602681877,0.14298583984000002,0.04162597656,0.23876953125,0.003085861619427628,0.055411481764436596,0.0029150390624,-0.08996582031,0.08471679687,0.0016058687226577315,0.03997298311415402,1.0165010653681998,0.97754706532,1.04894903043,0.0003211981739426297,0.01787714135629398,Null,7.951634494555484e-06,0.009747226800072895,0.0028128057739706643,1.0800492972919545e-05,-1.1316706034790966,-0.23481243078813152
-0.9955200195270001,-1.08715820312,-0.92517089843,0.0014184307513284901,0.03756778670046783,0.216594238277,0.10534667968,0.31555175781,0.00260277106537258,0.05088965720110244,0.14788574218439998,-0.05627441406,0.26586914062,0.007433594914284738,0.08600248217181475,1.0341062786464,0.96312765643,1.13663454169,0.0018744656157178522,0.0431867258268008,Null,1.0551992120893023e-05,0.01238178278003943,0.0032402518667980977,1.3566018779385831e-05,-0.8481706568747494,-0.2336772879872149
-0.9239746093710001,-1.06005859375,-0.50866699218,0.013980701341101479,0.1179440453537014,0.1532202148416,-0.25891113281,0.41662597656,0.03394565731346516,0.1837822870325044,0.2902758789032,-0.01904296875,0.86315917968,0.04622343940922342,0.21445820621318573,1.0261469979378,0.9355436098,1.15967267808,0.0021778759483413413,0.046550902983719174,Null,0.004598331815855788,0.4482026345299346,0.06764126075685246,0.00026942453506913737,4.682301984512224,1.5570038925882845
-0.7317578124964002,-1.48254394531,-0.54553222656,0.027216211132168475,0.16456041467044144,-0.21926513671700001,-0.50720214843,1.07934570312,0.21805053756700546,0.4657899578985902,0.531198730465,0.1923828125,0.78930664062,0.011619182740979134,0.10752249451753916,1.0463406854136,0.77000383688,1.6038325388,0.0266245823238253,0.16276197164020278,Null,0.0006897585655841553,0.16142552091992002,0.026197514629373423,9.850130817568674e-05,10.69946828392886,-2.7149394588645497
-1.0474877929656001,-1.60852050781,-0.70751953125,0.03650031586375927,0.1905723334706286,0.3694824218712,0.08044433593,0.88806152343,0.03365901726546862,0.18300470534699723,0.08013427734100001,-0.14428710937,0.26452636718,0.007451499652240922,0.08610599371692843,1.1352415997986,0.80247648417,1.70396277619,0.028762540293955367,0.16917070547965918,Null,0.0001395512600129626,0.055350462809997225,0.011783611658269199,0.0001254222334231041,0.48728276421924166,-0.8005048314616073
-0.9533081054652,-1.09631347656,-0.75451660156,0.008411239888741913,0.09148324266934466,0.31882080077799996,0.15930175781,0.830078125,0.03044905631987693,0.17405979156105394,0.0320532226556,-0.3466796875,0.25744628906,0.02196783341884018,0.147844493477931,1.0342518480536,0.92207971821,1.1511344189,0.0023292058423252477,0.04814104083953339,Null,3.333179393743923e-05,0.025054587609929513,0.005758917864299858,7.137420596754411e-05,-0.5922608004281087,-0.23614092380302273
-0.9974047851521999,-1.10656738281,-0.93566894531,0.00149090733957613,0.038515617648925866,0.21949462890200003,0.01684570312,0.35656738281,0.006691817212977996,0.08159876302318012,0.1229077148416,-0.06970214843,0.26159667968,0.008879272188504551,0.09399402016916836,1.0359680568746001,0.96810268494,1.16634321483,0.0018566591173436145,0.04298111005729024,Null,9.349603655810608e-06,0.013714665620000233,0.0030500583006774734,1.5502472139268083e-05,-0.01308907753555788,0.10082403934198175
-0.8980859374974,-2.10717773437,0.66845703125,0.45862220557797334,0.6755213501807944,0.37592285155919997,-0.28857421875,1.48278808593,0.1333528494469384,0.3642610124618111,-0.011660156251000014,-1.19934082031,0.49645996093,0.1345420777720863,0.36588163028939547,1.2109213039104,0.31056685953,2.4842545762,0.2055944156447635,0.45229022050729734,Null,0.0006956297384909833,0.09950346689004164,0.0263087740078957,-0.00030427833241178896,-0.8772238993203203,-0.43643796540590374
-0.9834204101522,-1.52392578125,-0.51550292968,0.044598869756580686,0.21065582215499712,0.38439941405920003,-0.04968261718,0.86450195312,0.0562995965751338,0.2366814284904038,0.0360620117182,-0.21411132812,0.54907226562,0.03718289243996852,0.19234598508356934,1.1055188197505998,0.78751339257,1.55330367298,0.03155595223847825,0.17719529473799767,Null,2.5216789238255246e-05,0.01958508018003613,0.005009062316648094,4.2719322648765915e-05,-0.6768960485815962,-0.0054742349372173425
-0.9362452872318906,-1.07373046875,-0.73645019531,0.010960471063798676,0.1044315151523409,0.2244684779218408,-0.18090820312,0.7685546875,0.06856933192907982,0.2612052659771789,0.193245199779204,0.03674316406,0.53369140625,0.017896842372556763,0.13344588174903665,1.0293452572627364,0.95426374948,1.10750154346,0.0016836963170212384,0.04093066965527309,Null,0.0064911826673749425,0.4442848555599994,0.08036720865031785,-0.00020582460003563266,4.908702877248123,1.6462895851818433
-0.930830912370201,-1.06591796875,-0.60180664062,0.01282645297029312,0.11296901536595758,0.3041237682519095,0.04138183593,0.61181640625,0.016963619699403052,0.1299168017590702,-0.062377929687336665,-0.71911621093,0.18078613281,0.07541750145478095,0.27393159554058416,1.030659247429397,0.85258385015,1.14920875705,0.005275377925451516,0.07244907513999196,Null,0.0024941451097802757,0.25081410422001227,0.04981577779447809,-0.00010155033282864326,3.625467726202565,1.2244709353060976
-0.9939086914028,-1.28588867187,-0.59606933593,0.016546537678326177,0.12831135955142298,0.2658056640594,0.09362792968,0.69653320312,0.032627296352021606,0.18017813371844402,0.079685058591,-0.05285644531,0.16882324218,0.0035674465898816368,0.059578598145074116,1.0517073238227999,0.76467915908,1.35149558127,0.011302638883220547,0.1060477519271599,lift up,0.006617125594235644,0.2535604802800435,0.08114209737407868,-0.0013250535085035195,-0.8134256894106584,-0.7539469672432378
-0.9489685058553499,-0.99523925781,-0.87194824218,0.0006325798642871789,0.025088183771762813,0.2904144287074,0.23815917968,0.3486328125,0.001016217251199753,0.031798367331417415,0.13218261718410002,0.080078125,0.25695800781,0.002241817167611288,0.04722931379739951,1.0025499953092,0.91945322008,1.05600021049,0.0009902372531432344,0.031389266746413784,lift up,0.0026819517765749082,0.17567483038999399,0.051657932766343194,-0.0008205191527692329,-0.3396175097979235,0.9392182444824636
-0.9708743878228359,-1.0732421875,-0.84448242187,0.0022354930906832043,0.04716324028849853,0.2882250126287562,0.20007324218,0.44860839843,0.0043007144405594845,0.06541649525389578,0.004642315764925373,-0.1220703125,0.17370605468,0.003210189626897699,0.05651741797204263,1.0167500580138806,0.91060345022,1.11042479422,0.0016175606434449862,0.040118737244019945,lift up,6.753885232074613e-05,0.029111385329997574,0.008197733719150412,-0.00013213858437584731,-0.9993337948978058,0.1873557920891636
-0.9523447314664322,-1.09143066406,-0.64990234375,0.008365249801353832,0.09123164675808089,0.32836177959683405,0.10546875,0.5595703125,0.011769897955653318,0.10821623140636419,0.01327437970954774,-0.68188476562,0.2255859375,0.04759579670513648,0.21761576654121761,1.038537963863015,0.88910982009,1.15457711472,0.0038067700794302477,0.0615438102618262,lift up,0.00034897656598851764,0.08525368844004788,0.018633918399068625,-0.00017738193855152795,-0.3211451688919569,0.4155694754865317
-0.9461810302699999,-1.07189941406,-0.79907226562,0.0054472688121317454,0.07362086978616245,0.36104309081615,0.06945800781,0.64526367187,0.02305594360394607,0.1514617571729786,-0.0890155029276,-0.22631835937,0.13037109375,0.011205201154168211,0.1055896545519369,1.0345819160551,0.89715724617,1.17490774005,0.00395658196716687,0.06274391649658981,Null,2.2130423791477862e-05,0.017460768419937267,0.004692522953861864,-6.851900060995231e-05,-0.9123220596293407,-0.23185501879168197
-1.0555328369102,-1.65258789062,-0.76977539062,0.04154844738400757,0.20332413813191866,0.2703045654265,-0.03881835937,0.5595703125,0.020426549246120643,0.1425637278549142,0.05370422363189999,-0.10412597656,0.23828125,0.008645580371074735,0.09274886775168395,1.1048549137946,0.83686336154,1.70183392243,0.03986066844237311,0.19915161335063608,Null,3.0431183707503254e-05,0.02167515276994436,0.005502638257142272,-6.034489741251336e-05,-0.5011154299680909,-0.4610897838780617
-1.0328112792934,-1.564453125,-0.830078125,0.017877664636545394,0.133372697031149,0.39722045898085,-0.01135253906,1.53100585937,0.12684260629312208,0.3552582064663059,0.09112121581785,-0.1923828125,0.4169921875,0.016068234496840958,0.12644324151316572,1.1528902572069,0.83686336154,1.87706332324,0.06393459836924589,0.25221999400800815,Null,6.94283510730896e-05,0.03592584642001384,0.008311510651964789,-5.423293240608911e-05,0.4116452145005032,-1.0948711217662446
-1.0114090193524379,-1.22058105468,-0.75268554687,0.010738336739782608,0.10336784886456798,0.32212715717905477,-0.10949707031,0.7119140625,0.03245665411421959,0.17970859251327986,-0.03276160700308458,-0.29541015625,0.25012207031,0.01600107233929152,0.12618028774028223,1.0816487282193532,0.76611287279,1.32668345139,0.01532805572565705,0.12349816493352164,Null,2.4990713070104485e-05,0.02477351539994288,0.004986620214562472,5.7176970748792314e-05,0.21202492057060862,0.1507341456367886
-0.9472106933559001,-1.27600097656,-0.52380371093,0.024209464727185583,0.15520443744799842,0.2710400390594,-0.1103515625,0.86340332031,0.05464180525789402,0.23317074480218256,0.0066186523428,-0.37805175781,0.25219726562,0.021817077517016583,0.14733632318417444,1.0272754463662,0.66468003674,1.31716092491,0.015663085424293396,0.12483897627412653,Null,3.601056668383369e-05,0.025337685770068674,0.005985859491369182,-6.265937135621174e-05,1.177001270525138,-1.1657164771141653
-0.12408845987809042,-1.3466796875,0.83740234375,0.7171458944725536,0.8447142394082887,-0.00945830225321601,-0.59924316406,1.23229980468,0.2421870278023257,0.49088696006526084,-0.2231206079202009,-0.80590820312,0.21765136718,0.08292985077865025,0.287250966682733,1.0167026229749245,0.12756207479,1.8207684793,0.0689577806657765,0.2619375100188845,Null,0.0023295374864544484,0.1465488917000357,0.04814386012701465,-0.0006232399610362834,-1.4308619043541924,-0.5333570626420945
0.31962341308450004,-1.95727539062,0.89587402343,0.7722674715853414,0.8765877789630737,-0.2541900634743,-0.44641113281,0.31530761718,0.04501523218720745,0.21163684940546487,-0.2440466308576,-0.5224609375,0.41491699218,0.08591489317077025,0.2923787247816031,1.02857726807115,0.23646900612,1.98646980388,0.06737777403251113,0.25892254664734893,Null,0.0004000112845012722,0.08309321085005195,0.01995021874764199,0.0002186466780930783,1.096086090950676,1.3822612106198522
-0.40838256835560005,-1.05944824218,-0.185546875,0.06381101298418751,0.25197610584987334,0.0730749511719,-0.09448242187,0.48315429687,0.024347602617892285,0.15564660164874408,-0.8178063964805,-1.04663085937,-0.05834960937,0.05504777127651195,0.2340353230179782,0.9895155777888999,0.81037747554,1.16786927019,0.004294320610127523,0.06536703302947813,lift down,0.0014085148073626878,0.163076720389995,0.03743624224365841,0.0002468894955557303,-0.28495286912532114,0.5554553269301107
-0.5903405761680002,-1.17004394531,-0.00537109375,0.14385363452234862,0.37833102747427005,0.6816210937464001,0.09155273437,1.22045898437,0.08724611060697451,0.2946351643201124,0.034660644528500005,-0.89929199218,0.31481933593,0.0626400714588225,0.24965350208144166,1.0417430154747,0.67455676944,1.27577609652,0.021460581713147853,0.14612761136959063,lift down,0.01771774331232064,0.4929500977599446,0.13277482666439086,0.0022765273763558818,-0.7999083206891289,0.10769331260842242
-0.9701234443665829,-1.03332519531,-0.888671875,0.0010259215757138255,0.031949431777595724,0.28068749508799,0.15832519531,0.44055175781,0.006023795874669744,0.07741786320766837,0.07348510128477387,-0.03833007812,0.23413085937,0.006328460090691133,0.07935148885624475,1.0188711477224621,0.96551692505,1.08306577095,0.0005402771367175079,0.02318538712705678,lift down,0.018102299711899916,0.4463635449000094,0.13420630902341874,0.002317030982305804,-1.282530526529176,-0.11966874897835467
-0.9963946533164499,-1.0126953125,-0.98034667968,4.9477827245263706e-05,0.007016440558362722,0.19294372558165002,0.13293457031,0.23217773437,0.0006013362996827069,0.02446077713778312,-0.020254516600099998,-0.06591796875,0.08959960937,0.0012789083989437986,0.03567231218955508,1.0160241495695501,0.99053092142,1.03602963436,5.510879047422121e-05,0.0074049474354549,lift down,0.01445555952850167,0.40474828038009036,0.11993032031500275,0.0020754560914399505,-1.2154789104694768,-0.015011328179082064
-0.9944096655355226,-1.02233886718,-0.95715332031,0.0002818848667070946,0.01674761040969487,0.19760086286950246,0.13000488281,0.30102539062,0.001985472296181625,0.044447658257312395,-0.0055374980561691545,-0.09240722656,0.08544921875,0.0011103062693494723,0.03323826646444823,1.015361621092388,0.97460905392,1.05384885859,0.0003306302786660445,0.018137953354954685,lift down,0.01657607340896925,0.43506575766991773,0.1284274323579622,0.0022074161939591094,-1.1279106252602522,0.10140115661883728
0.1464819335918,-1.16333007812,0.66760253906,0.4231670456821732,0.6488845894716273,0.6993273925746,0.23596191406,1.02404785156,0.031337721532157144,0.17658151920429374,-0.2761206054667,-0.52551269531,0.11486816406,0.046613430251451114,0.2153610064524074,1.0278841170089,0.66450294025,1.51557249784,0.028970046347801395,0.16977984602438062,lift down,0.01156361724028708,0.36021994234999966,0.10726508823510866,0.001839972614953318,-1.298577116485191,-0.0887370095766535
-0.9835583496053999,-1.00830078125,-0.96520996093,0.00013015129309763642,0.011379830254979562,0.249572753903,0.17834472656,0.599609375,0.004391592501450132,0.06610321126044393,0.0140783691399,-0.037109375,0.08056640625,0.0009741980989357703,0.031134018507752763,1.0172434405575,0.98617974099,1.15926345998,0.0005588260044134451,0.023580328123064317,lift down,0.01480026770965561,0.458941052389946,0.12135182887417614,0.002091522441327226,-1.0657004929958602,-0.20430881569536785
-0.48940441955683406,-1.39221191406,0.70593261718,0.5145319885291028,0.7155042981331747,0.5162414857452261,0.10424804687,1.19567871093,0.09060380777135582,0.3002474183984216,0.1159876531076382,-0.08349609375,0.38879394531,0.015141154342739306,0.12273983925365053,1.0382630134346735,0.49438829208,1.75339540123,0.05894117595121007,0.2421672751165708,lift down,0.007450239515954107,0.3547564841099984,0.08609762555626432,0.0014500071421904529,-0.46953212347785955,0.19267625635558466
-0.98739257812155,-1.01696777343,-0.87561035156,0.0011082962769344302,0.03320775203999449,0.17587524413745,0.07495117187,0.30078125,0.0041416635929889265,0.06419466702946579,0.06070739746075,-0.04016113281,0.45104980468,0.016735946349434854,0.12904366167188405,1.0154264550191001,0.98315400132,1.07080948561,0.0003484262024704932,0.018619454112785927,lift down,0.002256179320763352,0.24510836609999842,0.04738035905477644,0.00031920214494160563,1.9214555725048594,-0.5522664783093107
-0.9942104662199006,-1.01159667968,-0.96948242187,0.00018064910203354544,0.01340710074110487,0.1996323315024378,0.08264160156,0.28161621093,0.006316070238603417,0.07927576555029595,0.024543420590497515,-0.04370117187,0.08435058593,0.0010404802323458996,0.03217613578068402,1.017959818335622,0.98264316319,1.04496787852,0.0001682447759467899,0.012938614193973305,lift down,8.701210650517046e-05,0.03091844445998504,0.009304795024765776,0.00014167036749273998,-0.8946197382797965,-0.6611248688588219
-0.9961743164029001,-1.03393554687,-0.90148925781,0.00044028999218123665,0.02093056478502982,0.1590637206992,0.03112792968,0.33129882812,0.004474521694176508,0.06672442645467719,0.019356689451900003,-0.11730957031,0.11535644531,0.006628352868908438,0.08121090508400886,1.0144980490323001,0.94590327033,1.04805541744,0.00031997444169718804,0.017843053816225016,Null,2.009082512782438e-05,0.017680664630006504,0.004471059270708146,5.766889685843259e-05,-0.3503341728345335,0.6741496641879804
-1.0530517578089,-1.40478515625,-0.83264160156,0.025162808260059347,0.15823082575389363,0.2083947753872,0.04296875,0.44641113281,0.011072032132603665,0.10496033523165142,0.0962890624965,-0.12756347656,0.29858398437,0.0089096163382068,0.09415449143039202,1.0860960113276,0.86180383602,1.45076909386,0.0270674966967861,0.1641102044764498,Null,2.127088638708494e-05,0.020140693089956585,0.004600492577447497,1.4526270427969996e-05,-0.056908494818653566,-0.057722103759443304
-0.9371899414024001,-1.599609375,-0.65673828125,0.04202789739760848,0.20449390678115678,-0.06679077148440003,-0.41381835937,0.43237304687,0.09617515346148385,0.3093449170330368,0.38264282226259994,0.0576171875,0.95568847656,0.03712541460845676,0.19219726203932894,1.0832279298423,0.77657613761,1.64360115225,0.030422711559380755,0.1739844763235613,Null,0.0019577919458320515,0.2604505013899825,0.04413618680972441,-0.00013460349435636854,12.332854823624261,3.3830580438056654
-1.0479699522970853,-1.69482421875,-0.41064453125,0.10166171552983609,0.3180422183260052,0.26979133950798995,-0.39172363281,0.74780273437,0.08648268792542475,0.29333956697646535,0.39644020885321607,0.11535644531,1.17138671875,0.06951848951503688,0.2630002858776873,1.230831448301809,0.7117326398,1.77315035356,0.06996686973335327,0.2638470720382082,Null,0.0012117236515301437,0.13076192608002657,0.03472224917764711,0.0005303247202105394,-0.7672678795591898,-0.6557486038674556
-1.4163378906211,-2.88110351562,-0.271484375,0.5021266878915269,0.7068352385471944,0.42613769531159995,-0.86682128906,1.88818359375,0.529629315164233,0.7259346861725315,0.4399816894502,-0.10473632812,0.86706542968,0.06239396694716152,0.24916259171959523,1.7500770689225,0.52967613961,3.22360312914,0.4091454430287652,0.6380436629366532,stairs up,0.010710226038531015,0.4023272563199498,0.1032311721736141,-0.0017129632745458666,-0.9378525676446645,0.32932596462329394
-1.3591345214806,-2.994140625,-0.41430664062,0.3572465215670056,0.5962049051787234,0.4277539062479,-0.72814941406,1.32922363281,0.3138512725543818,0.5588219897173069,0.17715209960840003,-0.46008300781,0.97546386718,0.1539609159201639,0.39139636091890667,1.5993343566649,0.67112234008,3.13653406428,0.3262974374582963,0.5697946562324052,stairs up,0.010526131882496452,0.5585056424899904,0.10234012518598934,-0.000444621537146734,1.7908529030100064,0.3517600168517148
-1.0630529785121001,-1.74267578125,-0.46948242187,0.11670292785262666,0.34076298685943507,0.5989514160116001,-0.05639648437,1.92980957031,0.16645648638040358,0.40696953688022103,-0.1713073730466,-1.11950683593,0.23901367187,0.08593296087259761,0.2924094664477103,1.3121875716051,0.62937555513,2.72731231009,0.16440335686874008,0.4044519008292536,stairs up,0.07779123479509217,1.3319972851199964,0.2782126500019665,0.0008463185113495989,4.265596234694413,2.00034249795149
-1.556349251134573,-3.15393066406,-0.26831054687,0.6745914078719201,0.8192688821746493,0.17508195273211055,-0.87963867187,2.12524414062,0.4621221487337122,0.6780854864106582,0.455262150593216,-0.3193359375,1.40478515625,0.12969432242379006,0.3592249882181833,1.7863658903731656,0.33403534528,3.81230045992,0.7327634619506879,0.8538625378236677,stairs up,0.002757702906410146,0.24404286833998867,0.05238172489390118,-0.0003213929362431378,0.41693138584958067,-0.2705729231317639
-1.7506583294428857,-3.15393066406,-0.42309570312,0.5155671709737254,0.7162416911719542,0.3124289441454228,-1.02136230468,1.79309082031,0.7380618486415886,0.8569655180611758,0.6162868518704478,-0.11083984375,1.29541015625,0.13364170322234142,0.36465986772156306,2.111131955406617,0.90292868708,3.56589371924,0.46804524398739517,0.6824343636453071,stairs up,0.006072465057451712,0.31246999041002255,0.07773193544811016,-0.0011023442111129918,-0.25633761172543146,0.5726390034660369
-1.2454345703093,-2.19909667968,-0.45166015625,0.21765661239612805,0.4653690248976047,0.47885742187259994,-0.44885253906,1.31188964843,0.2171197404793203,0.4647947307972883,0.07300415039059999,-0.63977050781,1.30651855468,0.19464361349143466,0.4400799875295143,1.4899220582758,0.5864758879,2.50315203146,0.19311199213753463,0.43834510625401873,stairs up,0.04645185761823231,0.8597639246499966,0.21498743761006398,-0.0005691789440098932,0.5770845607191477,0.9945205740417271
-1.1810119628872002,-2.24499511718,-0.44799804687,0.20443721942973483,0.4510155577500472,0.38547119140459996,-0.54064941406,1.21826171875,0.2085610369258708,0.45554169045350995,0.07435302734270001,-0.35559082031,0.73022460937,0.06563926027520824,0.2555602942043857,1.3567961358688,0.572682512,2.47508955875,0.18518014401968344,0.42924846336310285,stairs up,0.0006870847651586641,0.128073327409993,0.026146688917200792,0.00014160091328644148,0.3582964178011636,-0.9179912825920404
-1.6501245117145,-3.15649414062,-0.51208496093,0.46999333563148205,0.6838445502841451,0.30904663085949996,-0.92590332031,1.75561523437,0.5175808944538124,0.7176301205924562,0.4187280273411,-0.2958984375,0.99841308593,0.11195937789760999,0.33376575769260985,1.9002043559934,0.88320246666,3.50251472127,0.47941028190697116,0.6906614441949371,stairs up,0.005378871427165464,0.25995434080994073,0.0731572079157593,-0.00116768495866985,-0.3347024834244112,-0.8815797677512448
-1.2764708552481405,-2.11608886718,-0.54663085937,0.16922515927829967,0.41033496267498837,0.2983196009321608,-0.50610351562,1.09228515625,0.1252603671997643,0.35303104412835773,0.20200060360145725,-0.53076171875,0.75939941406,0.11066924089093277,0.3318329610696998,1.4114333717584426,0.6128322999,2.31060527169,0.164627731225214,0.40472269048563553,stairs up,0.004197133094938052,0.25142646800998136,0.06462230244937085,-0.0008200221450397377,1.6120034454869225,1.486484150953987
-1.2941141460624377,-1.77258300781,-0.86206054687,0.05379221182353595,0.2313538175158133,0.3165914810685572,-0.1015625,0.87976074218,0.09123873995043383,0.3013051872621486,0.136632511269801,-0.14685058593,0.50927734375,0.033507120137690104,0.18259358709290105,1.3810507935344774,0.8792358967,1.92372093482,0.0642984533395768,0.2529398358046679,stairs up,3.3325345320770436e-05,0.027834199349968003,0.005758432736678979,-1.123623636030993e-06,2.995764883428355,1.6527450691767231
-0.6216064453093999,-1.52795410156,-0.17797851562,0.1393601454088933,0.3723752739936539,0.3714416503876,-0.22973632812,1.04113769531,0.08496418381784901,0.2907565354360238,-0.5165100097638999,-1.08288574218,0.34851074218,0.18602337321099668,0.43022465799270704,1.0723153350416001,0.62200436324,1.61029673078,0.049831003857102915,0.22266982022226856,stairs up,0.011408066360802467,0.6076108869999644,0.10654119404717809,-0.0006090833012002957,1.8358483704277182,0.46356528451638307
-1.06406005859,-1.86572265625,-0.39489746093,0.11928631899390515,0.3445139872326458,0.41277587890379996,-0.13671875,1.27038574218,0.11495937187401625,0.33820788727444867,0.1447290039054,-0.64099121093,1.27612304687,0.1977304177582811,0.4435558202408009,1.2875289999047,0.7496269212,2.25947235565,0.09612012216082472,0.30925640098471785,stairs up,0.002437857583073487,0.23487117093998222,0.049251074050807454,-0.0007999977863957458,0.052977643831728205,-0.04246678163894774
-1.3309112548791502,-2.89038085937,-0.55810546875,0.34008570254123865,0.5817089255190542,0.27401062011715005,-0.89587402343,1.50085449218,0.4161480852663181,0.6434806483803429,0.2361767578097,-0.69543457031,1.06921386718,0.1378048386154251,0.3702915262632241,1.5527537707247498,0.66853090244,3.1021548001,0.411987007080504,0.6402554740454013,stairs up,0.00427875738516608,0.2925592323199453,0.06524847583078282,-0.0009057338340065901,0.7870393353971932,0.9844044224967617
-1.3912414550741499,-3.00671386718,-0.5546875,0.28272897869853725,0.5303916796152109,0.43932067870934993,-1.04504394531,1.64904785156,0.3608934266420503,0.5992403186609193,0.4164080810519,-0.17236328125,1.08776855468,0.08658120094120066,0.2935102978372218,1.65895517480255,0.79022226932,3.46951309178,0.27776025253467745,0.5257104253027555,stairs up,0.0015663617564843364,0.1486489790900123,0.03947822118208867,-0.0004903581353851018,0.5344365967564668,1.1515078462526134
-0.6918420410122501,-1.67358398437,0.3359375,0.26146415916834514,0.5100557208506766,0.9556445312466499,-0.07849121093,1.99487304687,0.31441388388354724,0.5593226389697895,0.17619262695250001,-0.33862304687,0.74182128906,0.07668334864192172,0.2762244230670273,1.3740400349036,0.56201927518,2.46564545568,0.1851842098726499,0.4292531756705903,stairs up,0.0005976918081752388,0.10570717697999044,0.02438654032728633,-3.1284210475155744e-05,-0.31957795917569154,0.34156148124314734
-1.1527478027309,-2.70483398437,0.10668945312,0.5364511993035176,0.7305949242275093,0.4006030273417,-0.59973144531,1.54626464843,0.3685692562566741,0.605579400223778,0.13796508789025,-1.25524902343,1.42126464843,0.3910606746940415,0.6237831124041202,1.5388898456746,0.62977120053,3.06689357408,0.4330853307107641,0.6564448979596157,stairs up,0.003714871680172122,0.21829411951000566,0.060797181857149114,-0.0008651245102507297,-1.1464879407568336,0.22990134990498515
-1.80593383788615,-2.98156738281,-0.67260742187,0.41630969658424083,0.6436055842682843,0.45987243652165,-0.90234375,2.09875488281,0.6261280538313753,0.7893018519946716,0.52653564452835,-0.49560546875,1.29516601562,0.1863975703936807,0.4306571519686075,2.1192144607103,0.71075232682,3.62563347625,0.48416149083357984,0.6940754162044727,stairs up,0.010512727014177837,0.34636600220005676,0.10227494013250239,-0.001577223967799562,-1.1505410221383012,0.2615321616963729
-1.06413269042625,-2.50354003906,-0.32531738281,0.23106674804095895,0.4794907864607558,0.61793518066125,-0.04235839843,1.63696289062,0.21496646696796332,0.4624841993334729,-0.04658020019485,-0.56481933593,0.55102539062,0.07796602666476452,0.2785250375306333,1.35745623495595,0.6594310479,2.52724734598,0.1960641216354552,0.4416829191029215,Null,0.007007307362093057,0.44833106251996924,0.08350012470219785,1.1382231524355416e-05,7.358810379924428,2.5706713741838727
-0.9883404540984,-1.24865722656,-0.70373535156,0.01146000174074671,0.10678343379027937,0.22481811523185002,-0.18664550781,0.74865722656,0.04764917291980397,0.21774050393807065,0.1296990966771,-0.150390625,0.34716796875,0.014137242905736081,0.11860251553490508,1.0517973428882998,0.81225422663,1.32279990148,0.010838621903020327,0.10384810442904206,Null,0.00033513026135677183,0.0765641456399635,0.018260739581133837,4.0337899137977706e-05,0.12559733402767836,0.3956064362461468
-0.9612524414024002,-1.28356933593,-0.68676757812,0.010128038516590377,0.10038624569136663,-0.0927764892561,-0.29870605468,0.45434570312,0.05157694526444184,0.22653710631620516,0.19238342284729998,-0.04248046875,0.42468261718,0.011089786287738757,0.10504445419107124,1.0164662215825002,0.7649294847,1.36671656535,0.008896815125070779,0.09408682718343427,Null,0.00014712455006766475,0.060675550849964566,0.012099129196654049,-9.666319114955267e-05,1.741001313657291,1.0699200153558968
-0.8550585937462,-1.77673339843,0.21057128906,0.17998329883749775,0.4231824456937105,0.5409155273401499,0.10705566406,1.068359375,0.08378414723762904,0.28873036989800865,0.14011108398209998,-0.2451171875,0.38403320312,0.028178617520507755,0.167444690668009,1.1335334411063,0.7649294847,1.79697750047,0.0491800939537967,0.22121074450403108,Null,0.0012786091775658674,0.24930094520993862,0.03566813888722031,-5.245534750482002e-06,8.870157241095095,1.4015739366514721
-1.1505633544886,-2.24768066406,-0.69018554687,0.09675620957233828,0.31027798588439465,0.37893371581784996,-0.20288085937,1.33056640625,0.11304065501715758,0.335373600246161,0.14068542480215002,-0.12329101562,0.48181152343,0.023471238773802694,0.15281977156092624,1.27169047442405,0.75067154304,2.28027704798,0.10259726887819458,0.3195063106322058,Null,0.00039858256081946294,0.11227442593997239,0.019914558694969005,0.00025579101597221515,5.7547165517012235,-2.27142403331047
-1.1520971679654002,-1.89929199218,-0.15600585937,0.16915545301264498,0.410255622444814,0.37787170409885,-0.11364746093,1.06311035156,0.10004630683843858,0.3155092317258663,0.1306182861305,-0.77758789062,0.42822265625,0.06077999452097047,0.24591887798289422,1.3105091077784001,0.5232964653,2.01760090596,0.09856660290713419,0.3131673193240293,Null,8.803463001878194e-05,0.05975060324999504,0.009359191037086914,-1.5541137498668002e-05,6.750498993152865,1.6077553622592557
-1.3287792968713001,-2.25427246093,-0.5,0.24021820073087016,0.48889376118663636,0.23458312988084998,-0.17297363281,0.62536621093,0.05288548442419523,0.2293928006762075,0.2014770507783,-0.02319335937,0.55651855468,0.023255568203270707,0.15211604242240315,1.3923378147905998,0.52958267491,2.31342071491,0.2386427469390964,0.48728793664978093,stairs down,0.0016139833416058335,0.14260366785003953,0.0400738496391076,0.0006777501797967801,-1.020583692979928,0.2677595758995902
-1.2565686035125,-2.3662109375,-0.5576171875,0.22281638257989614,0.47085273777158465,0.33736877441109997,-0.1181640625,1.15393066406,0.10925268826349976,0.3297065738231227,0.250278320309,0.02954101562,0.78149414062,0.025829382301945328,0.1603129295797304,1.3655080352076001,0.57116709654,2.74613242033,0.24815914528498761,0.4969087940040533,stairs down,0.002573771829136164,0.18318740253994292,0.050605365031688915,0.0007670209631773411,-1.0706435104123897,0.05453724429659721
-0.8538806152307999,-2.24780273437,-0.01184082031,0.382666056478377,0.617051639813059,0.24826904296594995,-0.16174316406,0.68041992187,0.04086890483547478,0.2016545568820536,0.591985473629,0.07763671875,1.22534179687,0.10718379604754122,0.32656986552237716,1.2359037298088498,0.65950226979,2.28795558282,0.14251613866309193,0.3765681319094547,stairs down,0.0008269537887465737,0.09123799244991915,0.028684822115586508,0.00041522754068059833,-1.1218508574149302,0.6161898118134267
-0.5731146240191,-1.22766113281,-0.13623046875,0.1397774947791261,0.37293244335298914,0.37686889648055,0.04382324218,0.68225097656,0.025788360263513218,0.16018557507527215,0.59236145019175,0.11169433593,1.20434570312,0.11916537147640022,0.3443392870687546,1.0405308738273,0.78632252933,1.39532224944,0.022096176957491744,0.1482757433726241,stairs down,0.010559002315951698,0.5553825428399932,0.10249979172843202,-0.00041066178351839653,12.878353534419766,3.478367554457088
-1.1432592773402002,-1.49621582031,-0.81665039062,0.026457602708152155,0.16225077717721847,0.19966552734065002,-0.0234375,0.48254394531,0.021351164375632586,0.14575461760697128,0.19244750976265002,0.08972167968,0.3759765625,0.004438674616195231,0.06645661173362853,1.1866693025144,0.82654417951,1.55048908585,0.02788574171623895,0.16657224561029893,stairs down,1.7256112972608897e-05,0.020533978639946326,0.004143649648286622,-1.1779260336021344e-07,1.113152206948734,-0.5936352365347188
-1.1020330810508,-1.6337890625,-0.64392089843,0.061684150851301175,0.24774125634832136,0.1725280761698,-0.18505859375,0.55090332031,0.03258969941729286,0.1800742927799701,0.2593273925743,0.07275390625,0.54235839843,0.010871255396123236,0.10400432259835464,1.1640573285485503,0.65623767023,1.66906829345,0.06139041339247401,0.24715068546437746,stairs down,0.0011459347995358639,0.12906743671999266,0.03376692354269462,0.0005645209944065756,-1.1169180828741812,-0.40558673182225913
-1.08025390624655,-2.26867675781,-0.275390625,0.165849012741573,0.4062262518324796,0.2100805664046,-0.30627441406,0.83837890625,0.049812293824355064,0.22262801341078642,0.1585266113262,-0.701171875,1.548828125,0.1869790670467545,0.43132838036874027,1.2027059679543,0.56244581014,2.74420026938,0.1912950344041509,0.4362780755803919,stairs down,0.0025910533721092196,0.18351108690001183,0.05077497518708082,0.0007912232499539491,-1.1646509091816273,0.20334997282623996
-1.1009423828092002,-1.43579101562,-0.8916015625,0.02015455394522477,0.1416113737504818,0.10722290038810002,-0.2578125,0.36120605468,0.020407371231235302,0.14249678724476256,0.18269897460575,-0.04760742187,0.35766601562,0.008103004818074407,0.08979136814852548,1.1331272480076,0.90900807958,1.46554395089,0.021501548864308967,0.1462670199326814,stairs down,0.0020110511760053156,0.16198691890008377,0.044732492889680196,0.0007361450306639942,-0.6490557733823108,-0.7852198458171382
-1.2214410400348001,-2.06237792968,-0.6533203125,0.17298122526103726,0.41486903853473095,0.1484002685526,-0.2578125,0.56237792968,0.03152742939851465,0.1771151948634619,0.23770141601255002,-0.03588867187,0.58312988281,0.032970287954000393,0.18112271120494633,1.27441522187015,0.6621284257,2.1083366028,0.18351779631095808,0.42731745497861806,stairs down,0.0005979718473720971,0.10715410207001241,0.02439225262527503,0.00035334986958050806,0.13507061849986668,0.3510666778623684
-1.26966613769175,-1.94580078125,-0.59265136718,0.13998753437458986,0.3732125355648131,0.2138952636704,-0.16687011718,0.54113769531,0.04384829840829883,0.20887569728490996,0.30434692382350004,0.025390625,0.54528808593,0.015650343593860108,0.12478818804634839,1.3443774037068499,0.59761114511,2.01782530076,0.14227987634157194,0.376255866346113,stairs down,0.0001144305836820437,0.05826736938990962,0.010670446605631531,-5.973140380444281e-05,2.002962322023466,1.121668326877264
-0.8584918212866001,-1.80688476562,0.10412597656,0.273480608980826,0.5216447123626596,0.3220239257782,-0.03002929687,0.92150878906,0.057641939595466256,0.23948638770813033,0.2985473632772,-0.03723144531,1.09497070312,0.07835406439388164,0.27921728827547954,1.1267953834856002,0.6293921637,1.84159597957,0.06793923393712817,0.2599991110897161,stairs down,0.00042874569962392934,0.08003136874003758,0.020654345090702093,0.00018000712589757786,-0.3490610049956362,-0.47215092688766436
-1.2229406738238502,-1.88488769531,-0.74108886718,0.07491227686530505,0.27301596195273736,0.1995458984346,-0.43212890625,0.80834960937,0.06845152254561129,0.26097751806024067,0.07615783691125,-0.24487304687,0.29443359375,0.011696119280731639,0.10787788783772131,1.2729191922804501,0.75390990656,1.91394371909,0.07554153006934802,0.27416021304886906,stairs down,0.0009495921158692812,0.11784086097009094,0.030738317378964236,0.000507176462775883,-0.45861292644934126,-0.2864656255549844
-1.1920306396453002,-1.67956542968,-0.60827636718,0.07462364827203495,0.2724895044413175,0.1493731689435,-0.61279296875,0.4296875,0.04848637372290452,0.2196450360338016,0.08065979003585,-0.068359375,0.27124023437,0.004623543523707108,0.0678264388427446,1.2241781422126001,0.61973830535,1.72656610324,0.07863132160766487,0.27971085963835324,stairs down,0.002126394566563885,0.16664354716999696,0.045997419424692355,0.0007884134271138011,-1.1471284775464217,-0.18288391531319814
-1.22203186034865,-2.06921386718,-0.55285644531,0.11790463031480215,0.342512929921234,0.16412353515455003,-0.21459960937,0.85144042968,0.05688072374013106,0.23789981110003094,0.1418920898405,-0.18518066406,0.634765625,0.028690247013964894,0.16895797045092328,1.27241476780805,0.55355932457,2.15468288224,0.1244730144562653,0.3519242097156488,stairs down,0.0008002448180310598,0.11028124295000907,0.028217788608268093,0.0004033798026417227,-0.4408132218044156,0.2337561684708332
-0.95453735351175,-2.06921386718,-0.50671386718,0.12019063352806823,0.3458174089898134,0.4663354492160499,-0.083984375,1.10266113281,0.0748599451924338,0.2729205845414956,-0.14274536132750001,-1.099609375,0.67590332031,0.19780935314009473,0.4436443467174965,1.19396237830645,0.68849943948,2.15468288224,0.11491057288149553,0.338136096885689,Null,0.0030414748483831157,0.3864925513499884,0.055011521285465284,0.0004175138933394895,22.614271751987115,4.3858542621488
-0.9921527099566001,-1.25207519531,-0.59069824218,0.02287315294646215,0.1508601577015278,0.0964642333976,-0.32507324218,0.40148925781,0.03754654616118399,0.19328428138464357,0.17318786620915,-0.169921875,0.88818359375,0.05479641752824617,0.23350039708875214,1.05778676928985,0.76840699072,1.35464488779,0.019491027104998213,0.13926080557527026,Null,0.012113644392642255,0.6096477417898996,0.10978650267987884,0.00021018874605901092,4.221764511595741,1.1075873553508895
-0.9131524658165999,-1.21423339843,-0.3916015625,0.04581853324994173,0.21351683911038966,0.27759460448855,-0.05432128906,0.56066894531,0.019909816650219812,0.14074895227662873,-0.12723022460915,-0.74340820312,0.2919921875,0.09297373497003834,0.30415270226514207,1.03803647806185,0.84505351359,1.25881116328,0.00752016581156447,0.0865018206889696,Null,7.380698519031143e-05,0.04583663351991163,0.008569594521583847,-3.6997214823749865e-05,2.4584547247034356,0.5886396258234358
-0.8968969726520499,-1.28649902343,-0.16259765625,0.06960753543281309,0.2631719927265229,0.23005249023335003,-0.35070800781,0.93395996093,0.12514034245702085,0.3528663213523441,-0.020886840820450007,-0.6123046875,0.3193359375,0.07288168578718475,0.2692903216943543,1.05518573909985,0.86110148832,1.37870608273,0.010712622909069025,0.10324272271944246,Null,0.0008046156841833015,0.12903848449991528,0.028294745196986403,0.0001533082347789997,0.02646444595892916,0.084521047355975
-1.0128875732383502,-1.11633300781,-0.88305664062,0.0032285918299158637,0.05667846919921431,0.13266174316130003,-0.15246582031,0.3486328125,0.015404887830737107,0.12380574862090783,0.1472711181611,-0.0615234375,0.37036132812,0.01609519134454363,0.12654926071621642,1.0469071324896,0.92236814401,1.17462035625,0.003788582869232263,0.061397393714115435,Null,1.2445635778769146e-05,0.018129617689965016,0.0035190066211752574,3.056348815026815e-05,1.0692253164946255,0.21497462833345882
-0.9592028808554001,-1.12756347656,-0.75341796875,0.007995240890414878,0.0891922905074357,0.09159362792905,-0.28308105468,0.56311035156,0.050803942037533585,0.22483309882520838,0.28991516112985,-0.12084960937,0.61022949218,0.02693497288081359,0.16370796564739762,1.04550771684365,0.88327705347,1.21070915653,0.004558564916349895,0.06734814096742497,Null,0.004244942303951712,0.2766391553999483,0.06499013457773382,-0.0002737397768552616,0.5819188748143596,0.7988310710308291
-0.9919897460896,-1.33239746093,-0.71923828125,0.011256804352367476,0.10583251074507133,0.22529052734,0.06701660156,0.35229492187,0.005824280198541361,0.07612594037217967,0.0685485839821,-0.20568847656,0.25720214843,0.01621835641317399,0.1270325337506425,1.02985516678445,0.73960689833,1.35659091132,0.01209011620940705,0.1096798323683986,Null,2.8569217813017274e-05,0.02013530744000036,0.005331638746572407,-3.0219468098002945e-05,-0.9460498753567568,-0.4433365599197644
-0.8163806152315,-1.814453125,0.23205566406,0.2485767227896504,0.49732669260326473,0.4506048583953,-0.13464355468,1.22485351562,0.1451498202483293,0.38003167124213166,0.1902886962858,-0.12084960937,0.50183105468,0.021066837887970084,0.1447808816747924,1.12374691575745,0.69098330347,1.95592765376,0.05592373730120467,0.23589005620139789,Null,0.00011203941839743882,0.04306742347000636,0.01055837209542511,-0.00013518148916396403,0.7793457661548993,-1.2344794289375975
0.16497741698859997,0.02209472656,0.32739257812,0.005892139133821539,0.07656812938914226,1.0220086669877502,0.72570800781,1.55480957031,0.01880314733467782,0.13678132766574694,0.19906249999634998,-0.00769042968,0.43957519531,0.011868966608104254,0.10867208369707343,1.06115989260145,0.76888544316,1.58437130079,0.02056245887922772,0.14303722097702956,Null,0.00026339779230834525,0.13012682448004398,0.01618890988753732,7.730226086979209e-05,39.80161344730213,5.89632103926203
-0.4404248046856001,-1.04626464843,0.486328125,0.25043703500710934,0.4991841842767795,0.7187817382778001,0.33081054687,1.08264160156,0.04096240183199113,0.20188509064027282,-0.0398120117182,-0.33520507812,0.33703613281,0.015420373965289542,0.12386796234484158,0.9968544657433998,0.51327933335,1.33153384813,0.023892540722195765,0.15418520687337287,Null,0.002971492390149658,0.28977687207998315,0.05437494761559693,3.290725562376624e-05,1.967119295682088,0.12567296516122065
-0.8265814208950999,-1.18200683593,-0.28393554687,0.07314009281544807,0.26976729296074947,0.44108520507464993,-0.00659179687,1.4521484375,0.12986434109664705,0.35946490703706224,0.09956176757845,-0.13098144531,0.5703125,0.03942186580581366,0.19805240840945254,1.0501703008102001,0.74421279036,1.50518808604,0.026193021690932097,0.16143746957406585,Null,0.002347830371655192,0.27107496091991834,0.0483331275606795,-0.00012297343095449184,5.210741926498908,1.6946706702556986
-0.9978674316365,-1.09838867187,-0.95910644531,0.0006528963859833766,0.025487877590208638,0.144981079099,0.015625,0.34851074218,0.004929391369877312,0.07003388046529997,0.15295471191010002,-0.00158691406,0.21484375,0.003071014530236512,0.05527801966048829,1.02359663306435,0.97771722806,1.16044990599,0.0010917665564822855,0.03295918269162441,Null,9.923375942993742e-05,0.049298192470018876,0.009936679054532643,0.00011709326035722911,2.484185009019967,-1.6145644513874382
-1.0123071289028,-1.06420898437,-0.93676757812,0.0010119063710520846,0.03173084996020157,0.17071044921480003,0.05310058593,0.23803710937,0.001824713358309315,0.04260973822399955,0.0819018554646,0.00854492187,0.1337890625,0.0008757206722695173,0.029518503839255972,1.0312071356196,0.94305324918,1.07930412635,0.000925946505914189,0.03035320038125499,lift up,0.010711455434870388,0.3193767057999821,0.10323709680970322,-0.001761208857181723,-1.2244942371350551,-0.37360510406803266
-0.8823901367149999,-1.04455566406,-0.67749023437,0.014953456458115846,0.12197823238523038,0.4129150390588,0.08410644531,0.71447753906,0.034190479235528905,0.18444383112305832,0.1441210937472,-0.00805664062,0.25256347656,0.004623342854300786,0.06782496693717795,1.0096307117677998,0.84829764996,1.11789533559,0.004046573393992108,0.06345345165569914,lift up,0.0011894592123582112,0.13278875614003027,0.03440220801484144,-0.0004996424027544713,0.6490564864901676,1.3855860539009657
-1.0503686523402,-1.37976074218,-0.83544921875,0.014967636780400063,0.12203605449414555,0.16448486327799997,-0.08654785156,0.38781738281,0.01195659182758891,0.10907249363818068,0.13868652343420002,-0.03771972656,0.27160644531,0.008507975165990878,0.09200780015933933,1.0812261759719999,0.87758161966,1.4205561904,0.015847765826434216,0.125572795609965,Null,1.8217987232036604e-05,0.01752914168002917,0.004257569411750844,4.023261426627697e-05,-0.48520524316978664,-0.2246081324491115
-1.1377099609334,-1.72973632812,-0.73425292968,0.04770037075963786,0.21785745088437913,0.2157714843714,-0.05554199218,0.56311035156,0.020918158430260222,0.14426908067257144,0.22706054687119998,0.00744628906,0.55639648437,0.010604059181086587,0.10271825001031294,1.19127805505,0.76073636994,1.84790343875,0.05244306694145052,0.22843128421199946,Null,2.4552626816462665e-05,0.01918289010995977,0.004942657552610776,4.7037855304724415e-05,-0.8647803712797271,0.43984515478952324
-1.0085815429652,-1.66198730468,-0.51989746093,0.046997558681123576,0.21624655115797328,0.3585156249968,0.05102539062,0.94201660156,0.049413037635541286,0.22173401283376346,0.0754980468738,-0.22595214843,0.28686523437,0.023195072777021555,0.15191806151059342,1.1067491261088,0.64800122533,1.70250186982,0.045813215944601034,0.21350444928590606,Null,5.990319545428475e-05,0.02604365535000852,0.0077203419274675476,-8.898026381803245e-05,-1.0847227781005644,-0.3858511050832142
-0.8353881835903999,-1.51672363281,0.37231445312,0.1812297993852075,0.42464532305005015,0.40641845702759993,0.03881835937,0.95678710937,0.07027199153927953,0.26442509635354794,0.007739257811,-0.56237792968,0.40014648437,0.0351216265894266,0.18693854192348744,1.0532019094846,0.61496971129,1.57689090196,0.039261622001759214,0.19764947227794566,Null,5.441319312398871e-05,0.0407534774500391,0.007358065449448568,4.1035212373977456e-05,3.883157527137347,1.6793252800829548
-0.5288812255841501,-1.04504394531,0.22985839843,0.15659310471502344,0.3947279305945404,0.7920764160114999,0.20617675781,1.53820800781,0.09619297819418397,0.30937358210295374,-0.05962097167795001,-0.41845703125,0.5234375,0.038545487404929316,0.19583860693924646,1.0814395738534,0.54164414786,1.73105503337,0.031174291867560672,0.17612047129230285,Null,0.0008337780016394909,0.1389158914799964,0.02880293581618536,0.00016060048563677895,0.5307964504649494,-0.6237929654688946
-0.7795361328089999,-1.04174804687,-0.17785644531,0.07645198565609813,0.27580740694879397,0.4446582031212,0.00134277343,0.95812988281,0.10085802027933179,0.31678656880924594,0.16807617187200002,-0.08654785156,0.38305664062,0.016252383897937057,0.1271657264299126,1.0104461540293999,0.82642768164,1.15256630639,0.00526658010165012,0.07238955174016391,Null,3.5709998594852506e-05,0.0252179975599347,0.005960826167728618,-5.007326108932645e-05,0.9106913838946578,-1.199285533083436
-0.7780004882772,-1.14440917968,-0.41760253906,0.049630583764105486,0.22222158051207574,0.4411743164042,-0.17578125,1.00109863281,0.13342091680602355,0.3643539655636994,0.3265039062468,-0.0068359375,0.67150878906,0.015646582895699937,0.12477319416133192,1.0461410508302,0.86373219859,1.28942746862,0.009867168671136056,0.09908497781086886,Null,0.022804889843183792,0.5317424252299361,0.15063487442809476,0.0015774062128604436,3.2000361993235957,2.226386632683519
-0.74033691406,-1.57153320312,0.12573242187,0.2553168363640297,0.5040240591303251,0.4286230468708,0.10131835937,1.37561035156,0.10701236715269193,0.326308604417549,0.19510742187080002,-0.09741210937,0.40246582031,0.006574772374671696,0.08088200363986008,1.0457272335596,0.42895002367,1.66014749412,0.0436154549766717,0.2083203727478144,lift down,0.012481852068477671,0.33528232790001766,0.11144255384786945,0.0018914703101238644,-1.3414196318895573,0.2961429517284415
-0.8672241210902,-1.01123046875,-0.65625,0.015063330905492263,0.12242554574501516,-0.0274023437498,-0.44580078125,0.33374023437,0.05938733656666335,0.24308517002036556,0.423520507808,0.12292480468,0.69897460937,0.0332427499524641,0.18186955820780393,1.0187102098360001,0.86562175991,1.1258433479,0.0015905968756177995,0.03978245707896523,lift down,0.01410298456927169,0.4298507353299783,0.11845872549721836,0.0019385646624780492,-1.0362569564809645,0.037253239673361756
-0.9770727539022,-1.126953125,-0.79089355468,0.004446286466336293,0.06651357029963594,0.2946142578088,0.09204101562,0.59729003906,0.010368126265383588,0.10156911752130501,0.1774658203094,-0.04345703125,0.31506347656,0.006115869660943814,0.07800827079636552,1.0437954814576,0.88710387516,1.27619248167,0.004300973438835607,0.06541764724935795,lift down,0.00705000730932166,0.2659107768699869,0.08375414779445285,0.0013997432021118363,-1.075651106075921,-0.5631090689044582
-0.6134326171858,-1.92565917968,0.46618652343,0.42234156272714873,0.6482513825002713,0.4893823242152,0.22607421875,0.94714355468,0.07024358654172043,0.2643716486482842,0.15818847656059998,-0.09887695312,0.4921875,0.020652116027308463,0.1433487197263091,1.0366087894092,0.35016392036,2.07300048008,0.07731811647027999,0.27736532928238994,lift down,0.000481389119782802,0.08572076719008237,0.02188566138328673,-0.0002867118402869161,-0.6802637064730508,-0.6837043657049519
-1.0086157226532,-1.18322753906,-0.86938476562,0.0032927822767357495,0.057239133163877236,0.1777197265596,0.02502441406,0.2763671875,0.0027257136004669837,0.052077682671799526,0.11482910156019999,-0.05419921875,0.34753417968,0.007135014102317057,0.08425757551582808,1.0348378956752,0.90113410953,1.24384115019,0.0042954491043507926,0.06537562128828328,Null,2.7802707604044094e-05,0.026560170739912792,0.005259628700395483,3.8985528584972864e-05,2.228934912232744,-1.0364475995197089
-1.0649926757774,-1.54248046875,-0.80261230468,0.029065193896603222,0.17005842504010263,0.26064941406000003,-0.16137695312,0.611328125,0.039015185029986785,0.1970281936800844,0.1339599609342,-0.11975097656,0.330078125,0.014166603135912429,0.11872560852753236,1.1287639122512,0.87967558356,1.59303903616,0.02796036702812761,0.16679497951972946,Null,1.9631516623219724e-05,0.017351201400060745,0.004419655986624256,-1.57530226356275e-05,-0.7013030500467856,0.01959015299121988
-0.8325341796834,-1.07873535156,-0.60632324218,0.015819010207345722,0.12545881856732508,0.5616894531212,0.12280273437,0.88671875,0.03851597138997447,0.19576361136080575,0.08212646484160001,-0.06677246093,0.23510742187,0.008358647649217678,0.0911967894773253,1.0366292837439999,0.90987574466,1.14622602525,0.0031485904543656824,0.05597184561986369,Null,1.1951624057255707e-05,0.014677558679977665,0.003448458487059026,-4.974531619535586e-06,-0.2856539881476192,0.12447478836067934
-0.8141772460894,-1.02038574218,-0.68420410156,0.010845497511066927,0.1038810378438317,0.565559082028,0.134765625,0.79479980468,0.03858727930186024,0.1959447445208749,-0.0446435546858,-0.17810058593,0.17041015625,0.009637639174662994,0.09792574216614178,1.0209142568824,0.9400419979,1.12837768509,0.0012501048169674686,0.035268318543455274,Null,1.6634343790231757e-05,0.014623725449951053,0.004068313172714288,2.6500715358844566e-05,-1.0545339226384582,0.2374002905948485
-1.0056494140584,-1.30041503906,-0.83642578125,0.007941106479918796,0.08888982476931317,0.26918945312180004,-0.02221679687,0.60266113281,0.01985866460350312,0.14056803079109276,0.1397485351528,-0.10534667968,0.42602539062,0.0087021689256851,0.09305191067923685,1.0624515944762,0.85246663698,1.41406451272,0.010893867789205139,0.1041124317757448,Null,2.7674027421704264e-05,0.02011961613004587,0.005247442928188523,-2.2909159731762875e-05,-0.41160686453627626,-0.31239823118574533
-0.2752563476568,-1.2333984375,0.14562988281,0.16314947080786463,0.4029065939567449,0.8656689453087999,0.18334960937,1.08129882812,0.046623663183552114,0.21538464399217128,0.0271166992188,-0.16882324218,0.30688476562,0.017904557180508672,0.13347297252480042,1.0218093663824002,0.84307489053,1.35142033992,0.008370871017971305,0.09126344647711618,Null,0.0013734217360194994,0.15433935121006925,0.03696693965341737,-0.0003284070719896886,2.23532365614268,1.542915261756196
-0.6660986328102,-1.15686035156,0.07153320312,0.11466380545743655,0.3377728325815286,0.6812573242151998,0.25622558593,1.24597167968,0.061022796229263536,0.24640958229768017,0.23892089843420003,-0.1962890625,0.43139648437,0.017820171111375713,0.13315806492968738,1.066292684705,0.77402915865,1.40098938318,0.020543995594205382,0.14297298911414824,Null,0.0011895725594920795,0.16059569424999154,0.034403847120556434,0.0001952986714242879,0.8279200651375578,-0.3012096167672722
0.2771020507777,0.03332519531,0.51806640625,0.009260926707896314,0.09599282303566674,0.9606140136685001,0.6015625,1.11206054687,0.007039802420359854,0.08369350875819495,0.025117797851649998,-0.26318359375,0.28662109375,0.015628790132779964,0.1247022300607173,1.0120178915468,0.65030073856,1.1858397598,0.007824514997868938,0.08823487078745905,Null,0.011863612137988162,0.4971642988999747,0.10864756820701613,-0.0005754060971033888,0.222843257074119,-0.5781425312333054
-0.4040820312462,-1.00500488281,-0.11962890625,0.047742393483938834,0.2179533929915273,0.6144921874960001,0.30249023437,0.8955078125,0.0423995231502852,0.20539602122371742,0.618007812497,-0.01098632812,0.95434570312,0.06853573228859304,0.26113799728716247,1.0373582874212,0.95726711714,1.354253576,0.004611695451761493,0.06773947869966734,lift up,0.0032680837185391095,0.26443185523010015,0.05702405895713154,-0.0008056866005913596,0.08036544937310008,0.4116472000336698
-0.6563427734344001,-1.0771484375,-0.50756835937,0.030225973967809457,0.17342100247078038,0.7194604492162,0.12353515625,1.11022949218,0.057127244322619536,0.23841478163278057,0.12393310546680002,-0.08532714843,0.47192382812,0.021074928715855232,0.1448086809285823,1.0314604190869998,0.83211382603,1.32420278781,0.007782913552031646,0.08799999422881508,lift up,0.018859040228406596,0.42204405763004615,0.13698447002220565,-0.0022118540506928224,-1.527700189400043,0.02575941645063979
-0.56130859374695,-0.57653808593,-0.53942871093,8.871331287400305e-05,0.009395198045258707,0.8382666015584499,0.80065917968,0.87036132812,0.000313574548943472,0.01766371071430787,0.0831829833954,0.06640625,0.09704589843,4.685278176072898e-05,0.006827775468769117,1.01236777968545,0.97694292669,1.03103579117,0.00023443225841510555,0.015272854910691388,lift up,9.393267712759954e-05,0.04143306618004772,0.009667627099860727,-0.000145180090558215,0.4800545141979726,0.7031099584454357
-1.1051440429654,-1.8330078125,-0.5947265625,0.05112845790457108,0.2255500290734812,0.245200195309,-0.0029296875,0.49206542968,0.016620721313703384,0.12859866914993665,0.1425488281222,-0.52465820312,0.39855957031,0.02616361311271836,0.16134681604281745,1.1595236110462,0.72573897132,1.93930290539,0.0509898328382317,0.22524405358197702,Null,2.7549238380792167e-05,0.021742995609997706,0.005235598551158044,-3.776872681683858e-05,-0.8821014460480718,0.14426389057552472
-0.6360864257762001,-1.29431152343,-0.05456542968,0.16683438716184545,0.40743123987494656,0.1772485351538,-0.23400878906,0.65600585937,0.055315288160719935,0.23460330713763677,-0.41799316406280007,-1.08117675781,0.28332519531,0.25864883043944087,0.5073022632388344,1.035541817715,0.68902618978,1.41500077811,0.01687329293670085,0.12957208986513008,Null,0.0003308293218323017,0.07230569793989616,0.018143185365947737,-4.346695894464587e-05,-0.6973167291146347,-0.4553669678094249
-0.97458496093405,-0.99182128906,-0.87353515625,0.0001762143930618142,0.01324134891529202,0.26454589843330006,0.22900390625,0.42053222656,0.0009676992953293377,0.031029998370169006,0.11949096679275001,0.07409667968,0.18530273437,0.0002597555907556577,0.01607659207673938,1.01754122818025,0.98704008335,1.03687073859,9.153207789931309e-05,0.009543291754411395,Null,9.512627386304612e-06,0.011633340759999555,0.003076534454442708,-9.010831971915782e-06,-0.47431146100292443,0.5229946454112453
-1.21966125487905,-2.16796875,-0.44946289062,0.15244757438394166,0.3894680173159562,0.3185906982391,-0.169921875,1.15234375,0.09352086243190551,0.30504632126899345,0.25261596679375004,-0.2177734375,0.56262207031,0.03301932097458347,0.18125734294011525,1.3377905775877499,0.48316411976,2.22401728801,0.1415051516145854,0.3752300972157117,Null,0.0006986795648039393,0.15491461261001405,0.02636638327453956,-0.00014962481740615118,2.8140541421749115,0.5012185250996289
-1.2510101318319,-1.86303710937,-0.59729003906,0.10331620941494037,0.32062381129271367,0.23123901366970004,-0.64135742187,1.22094726562,0.1261333263668685,0.3542635455914624,0.26563720702844995,-0.2275390625,0.85888671875,0.05784382277957519,0.23990540566164265,1.3643253931267,0.59867897291,2.02389973254,0.11876318513482106,0.3437577187630075,stairs down,0.00259760341526593,0.15460314633992311,0.0508391128776811,0.0008616642939413861,-1.2304002713407935,0.2732063345855049
-0.7484374999964001,-1.37878417968,0.08581542968,0.14125853627123552,0.3749029789023813,0.7713061523393501,0.18420410156,1.64343261718,0.11258320215976726,0.33469431747337514,-0.011062622070750008,-0.73352050781,0.57800292968,0.07857382483652828,0.27960857589198806,1.18443115829675,0.65411800387,1.76715826032,0.08348801040534663,0.2882196564312016,stairs down,0.031792602643228474,0.969970529410034,0.17785848202999016,0.000414362305179323,11.179733540570815,3.0996222023059983
-0.8919256591765,-2.05969238281,0.01513671875,0.2411692390483464,0.4898605851189751,0.42051208495764997,-0.18664550781,1.00268554687,0.07088970056302346,0.26558473612052397,0.23803527831705001,-0.20751953125,0.72473144531,0.04972825285095093,0.2224401303422927,1.1357569908436,0.47440811096,2.10892104103,0.09955467644898545,0.31473306637012344,stairs down,0.003570025002081648,0.26963007391998417,0.05960012480751395,0.0004011703856384859,-0.3436323800752721,-0.2666036767497958
-1.0069329833951002,-1.21008300781,-0.88037109375,0.003495232288761159,0.05897250314610491,0.1999865722613,0.01733398437,0.474609375,0.01179939951569996,0.10835313801695574,0.06922546386485,-0.259765625,0.55969238281,0.026806756418604614,0.16331785767793916,1.0461563446425002,0.92985888912,1.35546315436,0.006179508369053473,0.07841307816434835,Null,5.929316880511745e-06,0.009954181590046574,0.0024289236908781606,7.99673728284708e-06,-0.3585918725917665,0.3137036944872142
-1.00239501952795,-1.13269042968,-0.85302734375,0.00369640953568175,0.06064591897237061,0.21647094726225,-0.00817871093,0.44030761718,0.008392989202448914,0.09138393872249471,0.11123901366960003,-0.12426757812,0.26867675781,0.012179691993137766,0.11008539200626065,1.0409765533945,0.87213066208,1.17146926849,0.00456796472930311,0.06741754152782935,Null,2.9497414944982063e-05,0.019353296500071338,0.005417557371201264,6.098831279694323e-05,-0.8403159528241164,0.4808709456069666
-0.77242858886305,-1.75915527343,0.01940917968,0.1762062151640649,0.4187185022043384,0.64826049804315,-0.177734375,1.40161132812,0.15255003744459364,0.38959887994881437,0.0507006835914,-0.68493652343,0.49206542968,0.08653885012735676,0.293438504420807,1.15930843379915,0.68354861519,1.99393354829,0.08912637193780146,0.29779311623694804,Null,0.00013816273564214095,0.04501854406998973,0.01172484208695069,-9.627283029697733e-05,-0.729755539889342,-0.5780797763569148
-1.13074829101215,-1.75012207031,-0.49487304687,0.11887815777207951,0.34392407153791826,0.11427307128785,-0.13293457031,0.62805175781,0.030445654927065326,0.17405006938358283,0.21983337401999997,-0.22412109375,0.71337890625,0.031419066318776286,0.17681055111950303,1.1823455929085,0.5076705881,1.7928966142,0.12248724455636924,0.34910572658377775,stairs up,0.002224190399485127,0.15980175869992763,0.04704327207463041,-0.0007871571450203444,-0.9321670030025033,-0.3913438403717332
-1.31945129394165,-2.00134277343,-0.880859375,0.08137328094494124,0.2845459796592047,0.12107727050605,-0.18872070312,0.43103027343,0.025714279968904102,0.15995533304350806,0.3109039306602999,-0.12634277343,0.56823730468,0.02102550309152119,0.14463877618420168,1.37667179860825,0.92216286771,2.08078175495,0.08494465750738231,0.2907231229535164,stairs up,0.002568497090557111,0.17738858617997266,0.05055348262092658,-0.0008686798163627375,-1.1158644957132549,0.04303746488767065
-1.0602172851528,-1.45227050781,-0.61437988281,0.056741197055153056,0.23760785144829977,0.07623962402114999,-0.16760253906,0.37353515625,0.010505014881981307,0.10223741882291142,0.23617736816095,-0.00463867187,0.52600097656,0.021461136972560284,0.14612950177050998,1.1013099319118498,0.63506662128,1.51991360323,0.0613398666085558,0.24704891676652424,stairs up,0.0013034441948464113,0.17077714175002257,0.036012872335765986,-0.0005821858493450298,-0.21526389191583517,-0.07839295417277878
-1.06864318847275,-1.58923339843,-0.63134765625,0.03464851246657349,0.18567517309602977,0.17170532226215002,-0.06860351562,0.42224121093,0.01747412070369001,0.1318588264022229,0.18155090331784998,-0.28454589843,0.53430175781,0.03185359429343548,0.17802900415934564,1.11814051863815,0.65969844044,1.6859755783,0.03794958730010261,0.19431891149242808,stairs up,0.00021322030111587637,0.05521114037992447,0.014565514052387474,-0.00020736317307683668,0.7394632695335042,1.330945613083617
-1.1527233886677,-1.59594726562,-0.8662109375,0.027976274309112363,0.16684241947888073,0.23309692382454997,-0.21716308593,0.57434082031,0.03131811401747129,0.17652626843442856,0.1770269775353,-0.23937988281,0.46740722656,0.022080669195547964,0.14822370205055002,1.210838983689,0.90519185609,1.65049521662,0.0294282163499262,0.1711171390252203,stairs up,0.00010624447829836034,0.06003885374002493,0.010281695186440247,1.8853329204588625e-05,6.750257583732285,2.1532867270586156
-0.8325042724577,-2.18872070312,-0.01281738281,0.2914583637989368,0.5385174760209199,0.4298803710916,-0.29724121093,1.06848144531,0.13219718782642995,0.36267919968933676,-0.30041687011595,-1.11828613281,0.53723144531,0.21373922837669962,0.46116215394892945,1.1935822336582502,0.61461687131,2.22169484562,0.17857291513153056,0.42152111519575497,stairs up,0.0018423474454964917,0.13952399358004186,0.042815134103130044,-0.0005333026009893075,-1.0401685651273747,0.40741271316689176
-1.3164324951134,-1.71240234375,-0.85534667968,0.05478417242524446,0.23347430600200578,0.16775451659835,-0.10375976562,0.43078613281,0.017720838811490697,0.13278642482359876,0.28938354491845,-0.11828613281,0.5712890625,0.029865628856427327,0.17238416607143822,1.3751901865729497,0.90132207127,1.81324503236,0.05586901079978032,0.23577460793262156,stairs up,0.0020201562862134986,0.2282889001400008,0.044833642555367176,-0.0006887272136632318,2.739622963100442,1.1618905696518707
-1.1568597412068,-1.52416992187,-0.74963378906,0.04057420535591253,0.20092619124726616,0.10159667968544998,-0.38342285156,0.38916015625,0.03761156482215345,0.19345156240786135,0.22728088378649997,-0.21459960937,0.56018066406,0.033128848802672355,0.181557716879947,1.21163553305935,0.78017757242,1.59383367804,0.04321640924267905,0.20736520247251142,stairs up,0.0017219963733476878,0.13830755502999637,0.04139307178116827,-0.0007116006644350762,-1.340338805244748,-0.06288995528559754
-1.10234863280965,-1.50891113281,-0.73693847656,0.04064857520054328,0.20111024917825684,0.11404296874795002,-0.16674804687,0.55297851562,0.01672861298080656,0.12901538635334364,0.14961364745850003,-0.16162109375,0.69079589843,0.0330640610993802,0.18138010032493448,1.1377234252799,0.77585772226,1.67636794377,0.046368845310201696,0.21479525386667808,stairs up,0.0008799823654489581,0.11478354958001091,0.029590242540772006,-0.0004848114768581943,-1.0464926573324955,-0.520858177654592
-1.1725738525359501,-1.75427246093,-0.51391601562,0.09555257249347965,0.3083420335131301,0.19383666991980003,-0.52282714843,0.67443847656,0.10603331578752652,0.32481248314772154,0.2209973144501,-0.09436035156,1.06774902343,0.057419815732200265,0.23902451057065102,1.2855636227699,0.71716051985,1.86379848154,0.06671231613309592,0.257640747073188,stairs up,0.00013800322620254068,0.05385297742009243,0.011718071943435404,-2.4988573761983178e-05,0.1969967220187665,0.11130700822734134
-1.20384887694965,-1.8125,-0.74670410156,0.07767478028620026,0.2780043279964707,0.24111755370715002,-0.07275390625,0.54846191406,0.028413029767877428,0.16813971755370008,0.19040283202849997,-0.1025390625,0.50354003906,0.019145309799008522,0.1380202276842546,1.2611968396352,0.78383752524,1.89934867216,0.07802263078311224,0.27862612517349605,stairs up,3.657548550818276e-05,0.023860518890046478,0.0060326286211436755,2.1654933342845003e-05,-0.6742372113258979,0.39319660283145297
-1.20660034179355,-1.78955078125,-0.66528320312,0.10308492436909562,0.3202647338488116,0.1619903564439,-0.22204589843,0.4443359375,0.03251565497625049,0.1798696102774708,0.22023681640314996,-0.09875488281,0.52502441406,0.0252935671865129,0.1586414175131461,1.2605285120127498,0.72611715142,1.85883859302,0.10229855467137758,0.31904084675480143,stairs up,0.0009053207128540871,0.09737250501996186,0.030013232236628842,-0.0005031981940255752,-1.3504528572075836,0.13805795758615497
-1.1967413330041001,-1.65417480468,-0.78466796875,0.05077597331119339,0.22477120243624943,0.1428143310525,-0.05297851562,0.43408203125,0.016604671537682927,0.12853656359182206,0.22882629394254997,-0.01928710937,0.46594238281,0.01623391068706449,0.12709343465981698,1.2392487239226,0.82001511769,1.68983805245,0.0526696553638208,0.22892423874942053,stairs up,0.002125889328155804,0.16020684853003786,0.04599195453027654,-0.0007923086933774738,-1.1621597652101276,-0.029392242913446748
-1.1837738037071,-1.71142578125,-0.64135742187,0.0630646006450618,0.2504980591578236,0.11922302245885,-0.1865234375,0.427734375,0.019284637419855533,0.1385215298527859,0.24255493163709999,-0.12023925781,0.61071777343,0.02271791708315143,0.1503473561381632,1.2294024238616499,0.65414332395,1.77267664918,0.06781803202547917,0.25976709157503336,stairs up,0.0018711439046753006,0.14532113433006089,0.0431484436005741,-0.0007394429649279744,-1.117524751301616,-0.13720879446258621
-0.57294006347505,-1.39196777343,0.06762695312,0.2748483175190949,0.522947488694132,-0.0037609863273000066,-0.41931152343,0.42065429687,0.0824146816445449,0.2863609754074779,-0.44865783691259997,-1.11853027343,0.29431152343,0.28293167632440847,0.5305817730970284,1.06870297493615,0.62326697644,1.45095648521,0.024558763265004866,0.15632008651699192,Null,0.0003492521220507355,0.05703220727002645,0.0186415090977228,-0.00029720798258988247,-1.6702377674603053,-0.1562254993107572
-0.5298937988258,-1.97375488281,0.11853027343,0.3539822581990704,0.5934748073069952,-0.05930603027305001,-0.49536132812,0.52172851562,0.09340800274041662,0.3048622028502624,-0.46588684081975,-1.24865722656,0.23291015625,0.2612944451673251,0.5098901577217279,1.0731479086355,0.53352723384,2.05230147191,0.05512566882078241,0.23420085498707835,Null,0.00035339154107593914,0.05898503446996983,0.018751655483464906,0.0002876759627747888,-0.9145113072897635,0.6832060401649173
-1.1264953613244,-1.62866210937,-0.67065429687,0.060490826828343246,0.24533318710317512,0.29805358886504996,-0.14038085937,0.95434570312,0.07187541983732888,0.2674248356793778,0.18296325683315,-0.03442382812,0.41442871093,0.014016191979548426,0.11809365359599425,1.21724060422105,0.68463204142,1.68321268854,0.05555691674447682,0.2351151466000318,Null,5.041618227264747e-05,0.034342259679988274,0.007082662025064039,-7.121034238530924e-05,-0.6919173906426224,-0.36789430192334693
-1.09502441405845,-1.98168945312,-0.71228027343,0.09014544454653388,0.29949076333636937,0.29137451171555,-0.23461914062,0.81750488281,0.060429118931595076,0.24520802053957597,0.06238098144535,-0.14270019531,0.68078613281,0.03065874834648992,0.17465810775557333,1.1745047649845002,0.72308487423,2.08143934027,0.0891805654274857,0.2978836393633398,stairs down,0.0006854536954772245,0.08774621753991596,0.02611563568056191,0.0004150487808883111,-1.072564840829074,-0.6138397402340845
-0.81499999999695,-1.83703613281,0.11743164062,0.2792558908089666,0.5271239051256562,0.4761523437464001,-0.044921875,1.47827148437,0.15655948933625322,0.3946855607817088,0.21306701659934998,-0.12634277343,0.65087890625,0.042266128005385345,0.20507266362282034,1.13205904614485,0.61749378282,1.88614860355,0.13113268810719084,0.36121603600429325,stairs down,0.013446191381910864,0.3889267010899857,0.11566745620528407,0.0012514668185374985,-0.11322222053099118,1.1765882631316862
-1.0788800048795,-1.80847167968,-0.15307617187,0.17101901156797172,0.4125092926348834,0.2686669921846,-0.12707519531,1.26635742187,0.08018789179920274,0.2824658427849405,0.19464111327845,-0.14477539062,0.59216308593,0.03716711857110041,0.19230518188089707,1.19438751663855,0.55836901111,1.8567666022,0.13509526886725412,0.3666330488689172,stairs down,0.011228112999788807,0.41460280978992614,0.10569755169723594,0.0015392207572140458,1.752450379883551,-1.5780216375115255
-1.17221252440995,-1.75561523437,-0.55590820312,0.11348436779975397,0.33603116813884276,0.21538818359060002,-0.12707519531,0.51623535156,0.029203722650288855,0.1704632043493182,0.1424999999976,-0.18115234375,0.36511230468,0.01980756410950118,0.1403870588371794,1.21879766881085,0.64750749469,1.80729792829,0.11758386010050852,0.34204669388843095,stairs down,0.0006738220468777682,0.09866357563998918,0.02589310596748446,0.0004191464407692552,-0.7519324202664079,-0.5322767192216233
-1.3335614013637,-2.3505859375,-0.87524414062,0.15737906620663183,0.39571728655139476,0.24791442870850006,-0.21252441406,0.61865234375,0.052339764062403406,0.22820619019231575,0.28732177734095,0.06335449218,0.69494628906,0.018779868043241478,0.13669663018167372,1.41284615344335,0.8818157105,2.431553011,0.1543953069580347,0.39194812210705193,stairs down,6.1031552499906434e-05,0.036575491749999856,0.007792714208631477,-1.1152677778875058e-05,0.19112198026756788,0.2383178555990218
-1.4439373779250502,-2.58288574218,-0.58117675781,0.2776261115008707,0.5255834671518562,0.21507446288909995,-0.21496582031,0.72521972656,0.06536643900192048,0.25502863918962293,0.29477600097254997,0.00988769531,0.74035644531,0.024065063032330723,0.15474087280731316,1.5203814991481,0.61781610998,2.68373778566,0.2731331549977202,0.5213132352268947,stairs down,0.00021239040908518285,0.054130224669961535,0.014537140607415096,0.0001570604634218976,-0.9050308010513834,-0.05074372045643863
-1.1573846435507,-1.89379882812,-0.58508300781,0.1106768865675996,0.3318486132783465,0.2481402587865,-0.142578125,0.74694824218,0.04220951291980352,0.20493527113506962,0.08882446288915,-0.24035644531,0.39428710937,0.02034201794910805,0.14226843592084124,1.2085045408511998,0.63780552611,1.96533239897,0.11727064677330942,0.34159082765707116,stairs down,0.0013976583649985054,0.14660094827002013,0.037291689063027336,0.0006245170130414253,-0.5017044343800481,-0.2288722450114649
-1.1598937988244,-2.3896484375,-0.18200683593,0.32204430917269716,0.5660689777993788,0.22675048827879998,-0.19104003906,1.0810546875,0.07853029853089245,0.2795311199817258,0.16281249999699998,-0.30688476562,0.66918945312,0.043032532995448375,0.20692358572785058,1.2538077150096998,0.50539292735,2.48800558242,0.2941031531813254,0.5409553007554495,stairs down,0.0016635789195099978,0.15195982334000746,0.0406848992245581,0.000673779275219729,-1.1533693037839372,0.02065082494890619
-1.19139892577685,-2.10461425781,-0.50842285156,0.13780911867993106,0.3702972766393664,0.22615600585674997,-0.501953125,0.5244140625,0.04898290809449758,0.22076683073782866,0.17700500487975,-0.14086914062,0.466796875,0.023079646806977248,0.15153959407673745,1.2544744616145502,0.52426942503,2.18132865471,0.13771341854377675,0.3701686797273074,stairs down,0.001372778893420341,0.13595524324000507,0.03695828728381822,0.0006091091291837565,-0.8096365914433235,-0.5418010488969132
-1.27664550780905,-2.15222167968,-0.46484375,0.13864556047167345,0.37141934880847965,0.23134948730264998,-0.13842773437,0.63623046875,0.048503564511134224,0.2196839700309937,0.26145385741870003,-0.1259765625,0.73022460937,0.03214629707435715,0.1788450882439475,1.3524133895367498,0.4733584681,2.2381977312,0.14221822280272436,0.37617433682896384,stairs down,0.001169089718035305,0.136674820440021,0.03410636699276439,0.0005404456409185823,-0.7895473646268947,-0.5808379334379482
-1.2304394531213,-1.87805175781,-0.69677734375,0.09747754213194125,0.311432423522795,0.2028210449198,-0.31274414062,0.61633300781,0.05986075380046998,0.24405214613165693,0.24295654296510003,-0.01818847656,0.49182128906,0.013161952920834077,0.11443838148204433,1.2993280663602003,0.71595037509,1.94156838705,0.09601992905456767,0.309095178560415,stairs down,0.000109584121668864,0.04778813584005093,0.010442040081349989,-9.964177631276587e-05,0.061647286054895556,0.06660129552661088
-1.1946386718709001,-1.95104980468,-0.69689941406,0.10428311341963654,0.32212062624510457,0.31724243163829996,-0.20288085937,1.70227050781,0.12637393569601857,0.35460127751819853,0.24352539062079998,0.03100585937,0.55578613281,0.016949582315626186,0.12986467727618645,1.3049997520662,0.7561721943,2.40902387519,0.13110872162999854,0.3611830256557588,stairs down,0.0005575203515755464,0.08978092483005184,0.02355276522656456,0.00019609127930797835,0.8317822800411072,1.290448020224838
-1.1241845703086002,-1.80786132812,-0.65441894531,0.09928981484471591,0.31431411958499783,0.19201904296575,-0.06005859375,0.46350097656,0.01744014608173883,0.13173057864949253,0.1779217529268,-0.12915039062,0.56237792968,0.027182651505420034,0.16445892571670573,1.17539735542575,0.67653682122,1.86140371291,0.10124059090230705,0.3173868112379522,stairs down,0.0016281853730879885,0.17164474202991187,0.04024977572884784,0.0005911762356894843,-0.1880854487087742,0.15604362787811749
-1.0047216796838,-2.04321289062,-0.0537109375,0.2429597341471233,0.4916756405155615,0.3203149414029,-0.12658691406,1.21545410156,0.1077839708139983,0.3274829017825638,0.1255529785132,-0.20983886718,0.59753417968,0.04228361541030698,0.2051150831442082,1.1649296938015998,0.47498862102,2.11421303646,0.16264508341353606,0.4022833056397797,stairs down,0.0028836748632795695,0.20211104382997291,0.05356544118144806,0.0009045952964169602,-0.9995250105559559,0.05595906989277057
-1.1297875976523002,-1.92272949218,-0.41040039062,0.1764907619999028,0.4190564498846227,0.27146484374740004,-0.32751464843,0.91149902343,0.06470016849635093,0.2537255754823884,0.11824951171719998,-0.23669433593,0.53283691406,0.035733635250917876,0.18856024786434517,1.2220249166507,0.64073387244,2.00035292521,0.14702630173163928,0.3824802873652198,stairs down,0.0013941994541468708,0.157744302389915,0.0372455159297886,0.0005813246020723496,-0.039789460264050724,0.038977588060004134
-0.9682165527305,-1.16101074218,-0.58142089843,0.02113213241270406,0.14500507491339928,0.3417675781212,0.06616210937,0.791015625,0.02993371142835827,0.1725805402448853,0.2530212402309,-0.02709960937,0.67590332031,0.025850536648056588,0.16037856454282257,1.0854005449052,0.8704360566,1.48566075905,0.016789521759957328,0.1292500450721683,Null,6.605519359684192e-05,0.04438559481991433,0.008107090577319197,3.147051979226785e-05,4.549125675984642,1.4879551590750395
-0.9867028808553,-1.53295898437,-0.72082519531,0.025746966203523288,0.1600569628991681,0.34089233398119995,0.08337402343,0.76062011718,0.025148328553034303,0.15818529296451403,0.1415112304661,-0.09606933593,0.37280273437,0.017089990999772202,0.13040146105306236,1.0753286128569,0.81950597624,1.58226697131,0.021235497993940842,0.1453592807631186,Null,2.6607585290259182e-05,0.02224963113008016,0.005145342298021375,-2.3808223679948993e-05,-0.07585026519249016,-0.20902276962852115
-1.010729980465,-1.18469238281,-0.72082519531,0.006270487254641614,0.07898819417082786,0.22802856444980002,-0.107421875,0.53332519531,0.017487000129438074,0.13190741119736557,0.1616027832008,-0.14831542968,0.40539550781,0.018963231924233652,0.13736235206421185,1.0659812194041,0.89048171982,1.22548305489,0.005908276125542267,0.07667290750268022,Null,2.4595156518836897e-05,0.019684971809965646,0.0049469365001223444,6.0911869081051835e-05,-0.5453849764555065,-0.41736660671119197
-1.0136389160122001,-1.3095703125,-0.86926269531,0.007529809503373329,0.08655726691535762,0.16478393554299997,0.00219726562,0.35693359375,0.009381929862156026,0.09661790834439155,0.1894946289038,-0.16040039062,0.52819824218,0.0269799880100769,0.1638447071773346,1.0602908816449998,0.92117911275,1.41764420612,0.010031484311126125,0.0999065908214793,Null,4.330879944411697e-05,0.030196271859949775,0.0065644691671830095,-1.2393520375841675e-05,1.2792635138748931,1.0543175030226386
-0.9855261230433001,-1.20068359375,-0.83435058593,0.004786386638104765,0.06901054053486498,0.16256103515419998,-0.33471679687,1.48327636718,0.10225535981496954,0.3189734832488348,0.22438842773089998,-0.037109375,0.52294921875,0.01613550141088777,0.12670763159270768,1.0731486739873,0.86908189382,1.72495357927,0.01904651356138562,0.13766365167893335,Null,0.007754895497113027,0.43587946851994275,0.08784145387929017,-0.0002502717431037279,2.4000732877048074,1.2340937861965702
-0.5128112792956,-1.29638671875,0.17004394531,0.25926555412050256,0.5079067102824101,0.5329882812467,0.13806152343,1.09533691406,0.08399316327662387,0.2890902929194281,0.3031970214813,-0.35900878906,0.89099121093,0.10838790254138238,0.3283990910899046,1.030402374984,0.55670017124,1.46281142077,0.02677355017021486,0.1632166732272282,Null,0.0008045973522239066,0.09547797282004922,0.02829442286852282,0.00019930178241348625,-0.7427433680362237,-0.5061096062331091
-0.9653588867147,-1.01318359375,-0.82385253906,0.00137145273046561,0.03694043132955112,0.2686035156213,0.20886230468,0.46203613281,0.003932039342309112,0.06254901394584543,0.1892541503862,0.13562011718,0.24304199218,0.000347938865563507,0.01860642822348474,1.0219746197468,0.91339714744,1.12104443032,0.0010792086234265468,0.03276907963781427,Null,1.5327751392085753e-05,0.01971760575997905,0.003905267293684944,-9.846665808383101e-06,1.5223327164536062,-0.9266407106453732
-0.971510009762,-1.00610351562,-0.94873046875,0.00018427985844789944,0.013540991808418612,0.2294287109332,0.14624023437,0.3125,0.0022837068806989573,0.04766852574073865,0.1971838378866,0.12194824218,0.25280761718,0.0009602251529239152,0.030909934117679637,1.0191070018344999,0.98126225828,1.04051521398,0.00018360606769603322,0.01351621386918515,Null,0.00011297002853212417,0.03852875459995175,0.01060213084193284,-0.00014074513354485997,-0.8912657380244502,0.6460650760883105
-0.9549291992150001,-1.02612304687,-0.38513183593,0.012691343124266086,0.11237386888705378,0.24883300780899997,0.10668945312,0.87927246093,0.02409194202270662,0.15482726605024416,0.1560058593716,0.03723144531,0.22351074218,0.001941154050997584,0.04394824547968435,1.0174405281754,0.88032259942,1.14085169068,0.0014985508297163804,0.03861422115707888,Null,9.005266821882813e-05,0.03786410093005088,0.009465854682897576,0.00014336420129257976,-0.57419551596286,-0.6313264899082525
-0.5228283691372999,-1.0478515625,-0.24755859375,0.03773501844706163,0.1937687883918004,0.6920373535111,0.265625,1.00622558593,0.04037557746135761,0.20043377852560387,-0.282657470702,-0.77978515625,0.22155761718,0.11689374897554229,0.34104146409295244,1.0119866154705,0.89104098092,1.09026131782,0.002083277632060048,0.045528685945234,Null,0.07177140488391189,1.4597830469600694,0.26723126287822746,0.0005502675072385414,5.008099291014252,1.709317717977951
-0.9518579101527999,-1.10192871093,-0.80883789062,0.003917357963429011,0.06243213254095895,0.31880981444940004,0.07885742187,0.54577636718,0.023888534545650715,0.1541722798460296,0.1306274414027,-0.02600097656,0.27111816406,0.0048984793861806385,0.06981394552129062,1.0276804732153,0.96699494153,1.12855521027,0.00115618328196919,0.0339175819533077,Null,0.002928987454339809,0.21417684121990987,0.05398465075434044,0.0004304821039549381,1.5785892267511645,-1.4507744458626186
-0.9567102050742001,-1.18310546875,-0.75244140625,0.006246632863205406,0.07883780627902694,0.30159851073825,0.10778808593,0.54455566406,0.015080323650310734,0.12249457960276929,0.06874450683345,-0.15246582031,0.31311035156,0.008576397484725464,0.09237702905648047,1.0172783980389,0.78185665418,1.29202773895,0.005909933170007539,0.0766836586513548,Null,0.0035272618644809927,0.2589310763700041,0.05924209276484574,-0.00015802446558369333,0.6377580001893044,-0.33391277774544825
-0.8599804687466001,-1.32727050781,-0.45129394531,0.052461708586218014,0.22847188020254686,0.45474121093349995,0.01184082031,1.00695800781,0.06200703158468554,0.24838880092862906,0.22271484374659997,-0.25402832031,0.76623535156,0.04198772777818555,0.20439615734962982,1.0465491670033,0.55383673421,1.46582531912,0.0566501546002774,0.23741715150189974,Null,0.0009482797072262886,0.17006711892997828,0.030717068686483696,-0.00013979685004098048,5.051633772302832,1.9548306948391068
-0.5028430175752999,-1.28454589843,0.18225097656,0.19248009575397115,0.4376273474946479,0.6721533203088,-0.05786132812,1.16955566406,0.10333204271804095,0.3206483782969294,0.1461938476553,-0.51928710937,0.94641113281,0.15958384226741842,0.39847951397290343,1.0777432732035,0.68975553283,1.3715258947,0.017690718914645322,0.13267352908576788,Null,0.00020425145076799698,0.053958268509973095,0.014255882768673324,-0.0001823302873039897,-1.2519968032048734,-0.35239413035062733
0.09576416015550002,-1.46081542968,0.8291015625,0.6402420441949135,0.7981483784196638,0.5141381835904,0.2021484375,1.00122070312,0.03153092369341668,0.17712500973874243,0.07911254882780003,-0.39758300781,0.81689453125,0.18565751861910004,0.4298013855561712,1.0420047255951999,0.6027518195,1.71004331206,0.047373997477653,0.21711086451457176,Null,0.000928321209559849,0.10575866884005336,0.03039209771490033,-0.00034561868128914246,-1.2538349699680469,-0.11808044218606964
-0.8249621581997001,-1.15893554687,0.70336914062,0.1770973547288699,0.4197759735325803,0.28796874999669997,-0.04016113281,1.01452636718,0.04111580480854883,0.20226276420662823,0.08605712890390001,-0.4228515625,0.32055664062,0.0324260730171368,0.17962166531922344,1.0050047045874002,0.65334606262,1.22781342905,0.01029746032177432,0.10122239386699688,Null,0.0014163339962551685,0.12303984363995824,0.03754000967333243,0.0005409151035532793,-0.10103364720712316,-1.1527244472131277
-0.7582580566363499,-0.99694824218,-0.40661621093,0.04557645976066816,0.21295205437343126,0.46544799804289994,0.20947265625,0.87084960937,0.029907115103340126,0.17250385366079052,-0.21685241699219998,-0.72668457031,0.24230957031,0.14771848239775312,0.38337956386036587,1.0292082408482,0.93636022265,1.11661646327,0.0014457628545380206,0.03792801128803526,Null,0.0003526916829166967,0.0903815566899766,0.018733078350930826,2.2415515047372737e-05,2.44369487794423,1.3653269552912848
-0.9642126464804,-1.15283203125,-0.87475585937,0.0018593630165698847,0.04301239590498343,0.2754418945279,0.17785644531,0.69750976562,0.014575442231588801,0.12042659598457002,0.1406542968712,0.08642578125,0.30688476562,0.002424141006825218,0.049112323319011206,1.0182766818451001,0.95551109251,1.37439762814,0.0072715043779030975,0.08505966644663958,lift down,0.004947198420945939,0.2602884255200024,0.0701602624627446,0.0011884759908212317,-0.7834846449626744,0.543483574758135
-1.0116870117149,-1.05517578125,-0.97351074218,0.0005436017345643345,0.02325690705772186,0.2091174316363,0.17846679687,0.23168945312,0.00018536029000898932,0.01358062916653512,0.13894653320029998,0.10876464843,0.15979003906,0.0001825074379794181,0.013475715223672583,1.0425601569499,1.00586863393,1.08520423365,0.0005247037502269622,0.02284907506827853,lift down,0.010790754647454279,0.324276326889958,0.10361853537961732,0.0017494887558509764,-1.1622803602129623,-0.486658699022527
-0.9730468749962,-1.19348144531,-0.77612304687,0.006024831203918024,0.077425493526993,0.29818603515240005,-0.01794433593,0.55065917968,0.026479703882662957,0.16231853056028336,0.09050170898219999,-0.11535644531,0.25109863281,0.010700716113766034,0.10318533099814722,1.0400980029359999,0.93351283181,1.28465855593,0.005136744785293795,0.07149168526036664,Null,1.89213299588456e-05,0.018086406349993922,0.004338977219236277,-2.4351726015381353e-05,-0.42763061028029536,0.32625734586199784
-1.0522937011679,-1.3525390625,-0.82446289062,0.01581331620122915,0.1254362372690723,0.20973876952720003,-0.04309082031,0.44787597656,0.015371703736017714,0.12367233003925181,0.15014526366800002,0.01281738281,0.27197265625,0.0043464705857292835,0.06576274198055185,1.0921226291500998,0.84114197925,1.40755221154,0.016560785056118976,0.12836658884163893,Null,3.197689459482845e-05,0.02575868926999192,0.005640656887442659,7.180875174730864e-05,0.18880319891661257,-0.26944611127525875
-1.0522692871055,-1.41015625,-0.88452148437,0.0107503568392576,0.10342439294026005,0.21376831054349998,-0.01196289062,0.5546875,0.020295022628500324,0.1421040024607253,0.17170410155870003,-0.01208496093,0.3076171875,0.004592325220116545,0.06759706793948952,1.0977612151697,0.91895093926,1.4550671161,0.01289414302004138,0.11326814338083402,Null,5.698296082666559e-05,0.028235034239969536,0.00752981049047931,-9.843519131891484e-05,0.5889241786806076,-1.2797654020016291
-1.1543176269499,-1.48364257812,-0.95129394531,0.01713639035147424,0.13057836114654245,0.20259033202894997,-0.18920898437,0.6181640625,0.04023454020945337,0.20008340138153916,0.159187011716,-0.15856933593,0.45056152343,0.01942884991468383,0.1390385042537153,1.2069500049659,0.96797091935,1.51932960192,0.019015374529226033,0.13755107290232202,Null,4.049176441264842e-05,0.03707847345992832,0.006347385728832398,-7.310939092947459e-05,2.7373828167440584,-1.389542261400159
-1.2512432861293001,-1.56103515625,-0.91369628906,0.02874332502832663,0.16911418746865975,0.1371746826155,-0.16870117187,0.47119140625,0.02943380176602218,0.17113337709865972,0.17673156738035,-0.29309082031,0.46606445312,0.03507339563083907,0.1868101406580619,1.2958541424028498,0.95600587839,1.60741580299,0.02935378188334668,0.17090059383726536,stairs up,0.0013675314262879934,0.11871821009003725,0.036887582858687734,-0.0006236263724100274,-1.214430278245085,0.3681184915550917
-1.1298181152306501,-1.93200683593,-0.26745605468,0.14563308243040288,0.3806637847474473,0.25003601074035003,-0.16870117187,0.99450683593,0.07589742897549684,0.27480527984487374,0.3350915527313,-0.07800292968,0.68310546875,0.02443769252307464,0.155934294048677,1.2688033891557502,0.6577752984,1.97012042607,0.0866026647820561,0.2935466767962905,stairs up,0.001659783299182991,0.16734174530006385,0.04063845940346504,-0.0006524558344562531,-0.15922379257405694,-0.43736907865867775
-0.40993041991859996,-1.21032714843,-0.0361328125,0.08810382912937659,0.29607990472797996,0.3324401855432001,0.11767578125,0.86511230468,0.02436905182019102,0.15571514557386532,0.774373779294,0.24755859375,1.26794433593,0.0834405988469831,0.2881378070520219,1.0222140490456,0.69484504244,1.38350516821,0.028368368370571943,0.16800751926243981,stairs up,0.007023135966729966,0.3577026129199794,0.08359437951738331,-0.000923370755332869,0.020316582648490122,-0.5295157977959999
-0.8625146484333499,-1.29614257812,-0.43139648437,0.04789805684255164,0.2183084207224698,0.26442871093500003,-0.14343261718,0.62512207031,0.03760074535759859,0.19342373595505438,0.32364501952759994,0.01062011718,1.14270019531,0.053394481464844365,0.23049405427802286,1.01166212017405,0.65810094657,1.34976821384,0.03320281614549039,0.18176028736982933,stairs up,0.00226723778751191,0.1836711523900476,0.04749633247498537,0.0003451624599810022,-0.8102458109740946,-0.2504943294426652
-0.9738391113253,-1.353515625,-0.61877441406,0.02485375733676166,0.15725612404633993,0.13939086913775,-0.02770996093,0.46020507812,0.008571348116840224,0.09234983149013334,0.26859374999565,0.07885742187,0.45739746093,0.009042924337138639,0.0948562581775865,1.0269128393171498,0.63120156565,1.44753076593,0.027779639968405823,0.16625505035506077,stairs up,0.0020761564144252814,0.17920523287000378,0.04545080452921769,-0.0003528830337927773,-0.41999206382865006,0.5086198806055298
-1.0033038330043,-1.36096191406,-0.79748535156,0.012010006760371646,0.10931585761713526,0.03600891113145,-0.34729003906,0.36083984375,0.022079497047523593,0.14821976778515736,0.290209350582,0.08654785156,0.68041992187,0.015817484798304894,0.12545276949638604,1.0628803512708,0.81400173128,1.37788881475,0.0121402037312077,0.10990679102108142,stairs up,0.0025418329515600902,0.20784687730997575,0.05029039457791408,0.00019561113891372064,-0.5477251832990007,0.5612066212233102
-0.9832476806607501,-1.47277832031,-0.73803710937,0.025309159075420282,0.15869030619430785,0.089533081052,-0.09436035156,0.47241210937,0.011958048990068802,0.10907913982571762,0.24201354980110001,0.05310058593,0.373046875,0.006705915873736231,0.0816846760069938,1.0262016000539,0.75643340204,1.54830380159,0.026895417110594594,0.16358771355160392,stairs up,0.0024781950369383273,0.2213158838799245,0.04965686318882452,0.0002876383864180934,-0.3570043280053219,0.20892591643111327
-0.9633819580034,-1.19226074218,-0.68627929687,0.017968502092174814,0.13371110493042057,0.0638043212878,-0.16967773437,0.34936523437,0.01495013742792157,0.12196469464882845,0.2978637695279,0.1298828125,0.45715332031,0.007070387577825552,0.08387511931399218,1.0196100391179,0.73136655946,1.26658688597,0.02118900875581987,0.14520008165301,stairs up,0.007727061401993899,0.32941410584999176,0.08768367062905116,-0.0010178832486671227,-1.1113440117986477,0.2122974440842419
-0.97203186034735,-1.23999023437,-0.6552734375,0.02590851540799263,0.1605583159819281,0.08369506835785,-0.07507324218,0.29174804687,0.007917832834981448,0.08875947087948724,0.29897338866780004,0.09875488281,0.41943359375,0.005753312337067591,0.07566072809180634,1.02542453846485,0.6889148913,1.31115248171,0.02926850987180894,0.17065218229618365,stairs up,0.009015039365271487,0.4449111025800221,0.09470989477581067,-0.00029524367707644183,0.5720324600988347,-0.19863563060439868
-0.9715075683559,-1.24487304687,-0.65686035156,0.030449190509741743,0.17406017510387906,0.042978515624,-0.08251953125,0.23693847656,0.005026190328544556,0.07071816864782227,0.2907128906219,0.08190917968,0.43347167968,0.005288480059061325,0.07253990390651216,1.01871237826455,0.68558210842,1.31115248171,0.033138919511176576,0.18158531029139086,stairs up,0.0027769363141616522,0.3459570172300346,0.052564737539446,-0.0003734864257238837,4.191153001072177,1.3450972049473762
-0.9495361328085999,-1.31726074218,-0.65661621093,0.027485581199199725,0.16537277071272563,0.0490649414055,-0.14709472656,0.24243164062,0.008644909510774504,0.09274526922285918,0.28551208495755,0.06335449218,0.43029785156,0.01062183775163405,0.10280432171302857,1.0002083824649501,0.68066443466,1.37124886681,0.03180416593716281,0.1778908235617481,stairs up,0.0040552840100417835,0.2591600059499797,0.06352170959594503,-0.0006167961096344653,0.07709804829308764,0.8168439692724796
-0.9711688232381,-1.33349609375,-0.70947265625,0.018233950125874667,0.1346951386474111,0.1583306884729,0.04406738281,0.39855957031,0.004932971800049393,0.070059310166809,0.21311523437125002,-0.0888671875,0.45849609375,0.011407641226366555,0.1065392088399136,1.0138855373868,0.71711147171,1.39461784735,0.020194372540594592,0.14175119286232346,stairs up,0.002732251157284355,0.21323644850997425,0.05214009878680643,-0.0003097210788408249,-0.7351982908524737,0.33995152616601715
-0.9926812744104001,-1.22375488281,-0.7783203125,0.014662051964484543,0.12078386359386804,0.0668145751919,-0.01623535156,0.17626953125,0.0025398170524425037,0.0502704482492477,0.21276733398075,0.06323242187,0.39953613281,0.00729835212981333,0.08521654985485075,1.0220799928651498,0.79152668585,1.25686611088,0.014955222771209144,0.12198543625102588,stairs up,0.0028689198257971613,0.20588089344005311,0.053428225000164246,4.516892956904768e-05,0.00038958141878930874,0.8513548894995253
-1.0018286132774,-1.28991699218,-0.79467773437,0.02086241969515184,0.1440767420393593,0.046066284177700006,-0.14367675781,0.15539550781,0.004892626364960846,0.06977222393715168,0.2449072265583,0.00854492187,0.65612792968,0.013188283671082136,0.11455279242657827,1.04183431638705,0.82635046108,1.31222582405,0.019188032985059788,0.13817413947672874,stairs up,0.0035356974495847344,0.22369368577005844,0.05931289035561166,-6.8668495727631e-05,-0.6534147088808715,0.4932735195257215
-0.9876348876919,-1.27404785156,-0.69787597656,0.025216681543302876,0.15840012037743645,0.08445434570124999,-0.13623046875,0.36352539062,0.014037107364934534,0.11818173220980416,0.2727551269493,0.02722167968,0.44323730468,0.008361028545078959,0.09120977690112812,1.0379143169482001,0.72552347235,1.30428734656,0.027197167046641053,0.16450283040546096,stairs up,0.0036481093189017575,0.2808277436499793,0.060248392279854644,-0.0004470974724390543,-0.2924973107805453,-0.16557799261829198
-0.9517725095189553,-1.23791503906,-0.68212890625,0.024159054959195795,0.15504470534628462,0.07861510319278607,-0.14758300781,0.44213867187,0.016139373551832783,0.1267244181719831,0.2988554541706468,0.14184570312,0.49084472656,0.007935060778756019,0.0888570923699051,1.0102945636212937,0.71629436455,1.33023569459,0.028807564429636615,0.16930517775180054,stairs up,0.002847819325250052,0.20056392780998067,0.053232049273915324,-0.0006426723238743948,-0.843983818830091,0.36997745924605335
-0.9697811567574874,-1.27685546875,-0.708984375,0.03095813526012962,0.17550660027826445,0.05165721183934673,-0.18432617187,0.35607910156,0.016405080969054478,0.12776010087756332,0.3008714225385929,0.08471679687,0.46459960937,0.009637505900701497,0.09792382867723527,1.0272018199518091,0.73268747218,1.35205646815,0.03541625097538043,0.18771861885532662,stairs up,0.003907449231851172,0.24246784581998782,0.06235233603142338,-0.0008204572975834848,-0.036682520269761376,0.7733037023260991
-0.9946838378866499,-1.29028320312,-0.77294921875,0.017290600243224676,0.1311645807449883,0.13788574218425,-0.01477050781,0.33447265625,0.005562990550398329,0.07439876072654932,0.22979797362975,0.04943847656,0.40368652343,0.006094889275014591,0.07787435282966734,1.0357305004725499,0.81168164709,1.30770711895,0.017368434164733663,0.13145946901577685,Null,0.003684706832054668,0.32043666879008015,0.060549841435749395,-0.00023079411028424282,1.7175632107158032,1.1852490150206494
-0.9961431884731502,-1.18823242187,-0.89819335937,0.0031378630263623865,0.055876414623976856,0.032783813475499995,-0.06127929687,0.17163085937,0.0023200352551250277,0.048046176526851773,0.2597729492159,0.04382324218,0.40600585937,0.008354090212551573,0.09117192419538382,1.0350579454795998,0.91660067291,1.23593412994,0.0032723553392524102,0.05706131406264798,Null,0.0006904043240264186,0.1143578225400006,0.02620977494001592,-2.2246753644387593e-06,0.42207407411742937,0.7236332688184508
-1.0048566979517413,-1.59777832031,-0.79968261718,0.01896880923229667,0.1373842678295494,0.07421692805328359,-0.06091308593,0.3935546875,0.01017151005213556,0.10060271131790134,0.23958090407034827,-0.1435546875,0.44006347656,0.01837204843146339,0.13520593628031355,1.0502434919987067,0.81733531198,1.60096633328,0.016993284416229527,0.13003361377992306,Null,0.002097245048855649,0.1911544853999203,0.04568162643652498,-8.683832644480628e-05,-0.40009784368153456,0.27066102242060075
-0.9282183837856499,-1.16784667968,-0.66564941406,0.02005190801034465,0.14125030431929314,0.07805786132654999,-0.14221191406,0.26635742187,0.012093251336599409,0.10969405216289721,0.3762829589803499,0.11242675781,0.57287597656,0.013321270593620854,0.11512890271627169,1.01366326673145,0.68955317519,1.28181485773,0.02713280643444448,0.16430807162848773,stairs up,0.008553071324534766,0.37471577243991305,0.09225131959984145,-0.0010289466796535804,-0.43374819922720764,-0.16907219512804098
-0.9530676269498001,-1.2236328125,-0.67663574218,0.02564764081411866,0.15974793460338718,-0.002919311523300001,-0.23278808593,0.16979980468,0.00870386840912955,0.09306099648662645,0.28881530761359997,0.087890625,0.43823242187,0.007243607576902488,0.08489634585197395,1.0022322583022498,0.70024683295,1.29335284218,0.028822459764811594,0.1693468259696282,stairs up,0.003557508859136123,0.2054677056099763,0.05949555710168989,-0.0006213264507745821,-0.9957116397241856,0.37055478240294143
-0.9534997558557999,-1.216796875,-0.68041992187,0.024153899234202806,0.15502622274322428,0.1253826904265,-0.05102539062,0.53454589843,0.012305680782323778,0.11065329809098398,0.31282653808224997,0.0009765625,0.53271484375,0.013395551751277365,0.11544944344829462,1.0216550951480499,0.6977994996,1.29444337292,0.02871333574986355,0.16902594200629156,stairs up,0.002311099019635237,0.18711664494003344,0.04795355591128838,-0.0005314675647631951,-0.13869784459170154,0.5361485857631741
-0.9620124475243282,-1.19067382812,-0.71557617187,0.01576867859316867,0.12526063809469126,0.11388370646432837,-0.04040527343,0.37182617187,0.007808623027754701,0.0881463224245337,0.23515175586527362,0.00524902343,0.49792480468,0.008759722597055996,0.0933602800318096,1.00422670254796,0.74466745745,1.25170546654,0.01752586281344953,0.1320555544690148,stairs up,0.0030122816586985184,0.2336942032599154,0.05474755869246222,-0.0002481775014085424,-0.601056937139115,0.47874297204029015
-0.9777954101520001,-1.21423339843,-0.75610351562,0.016710863191177934,0.12894692270551494,0.0919897460904,-0.09216308593,0.1875,0.003601331860316845,0.05986088206011719,0.246235351558,0.13354492187,0.39440917968,0.005898672348322538,0.07661056706865525,1.0174750066793998,0.83313591029,1.25560141445,0.016082663018196167,0.1264999988265027,stairs up,0.0037252340902500956,0.25900054023009034,0.060881917839362164,-7.039814753076447e-05,0.019187808207642654,0.6719175197913665
-0.990247870205829,-1.29138183593,-0.74743652343,0.023698203007480167,0.15355493010713267,0.08190549917336683,-0.123046875,0.22131347656,0.006235725636936478,0.07876795244405083,0.22912720339638196,0.06896972656,0.45874023437,0.009804604027974648,0.09876909770267167,1.0271792860032665,0.77339628861,1.31807617536,0.024362611724572936,0.15569260271453922,stairs up,0.0020703255995494145,0.23475450207001813,0.04538636307659519,-8.766553435742397e-05,3.634086053364644,1.6712412685339622
-0.9605310058556,-1.25524902343,-0.66455078125,0.030401509477614903,0.17392383945344245,0.0282690429695,-0.11071777343,0.26379394531,0.009765690947776635,0.0985741471839232,0.31592712401934997,0.15979003906,0.43688964843,0.004784735294012395,0.06899863489622338,1.0171437902195,0.69163372586,1.30792152447,0.03354229723760461,0.1826871253028428,stairs up,0.0030090274674691516,0.20600464796007145,0.05471729461634416,-0.0005839635789693317,-0.6981951092062957,0.20946553354146222
-0.9789782714809,-1.302734375,-0.65600585937,0.025702309606963864,0.15991809797183384,0.1073834228492,-0.07836914062,0.36145019531,0.01036547425033259,0.10155612674320012,0.19477478027,-0.07348632812,0.47131347656,0.01734382020396036,0.13136628602095957,1.0156942931549,0.69935653437,1.33210428099,0.029524140157951004,0.17139579766482388,stairs up,0.003778577408278956,0.2328900785599899,0.06131626636739684,-0.0008381957752530286,-0.9614235125413391,-0.08313740927428703
-0.965121900260597,-1.3369140625,-0.67980957031,0.02821740809057741,0.16756199740901548,0.1615530744682587,-0.01940917968,0.45361328125,0.009809256612625893,0.09879501172084189,0.31341157979248757,0.03540039062,0.64477539062,0.015842169823931516,0.12555219256802458,1.0370215928829352,0.70946598771,1.42569211916,0.03414341056525357,0.18431913316581808,stairs up,0.00209153918555395,0.18191198421993704,0.045619442324124584,-0.00032628978536577405,-0.8496242368843685,0.03571563285283896
-0.9631567382776,-1.25476074218,-0.56311035156,0.031057017945614378,0.17578888717972563,0.131838378903,-0.00158691406,0.28576660156,0.005775945564014182,0.07580940466851135,0.2558618164024,0.03955078125,0.50183105468,0.014063051291842352,0.1182908958262771,1.0139651898602,0.62367448915,1.37357233446,0.03319965649468665,0.1817516388157565,stairs up,0.0015266907065946452,0.16982273533994885,0.03897508502956308,-0.0002776599229104001,0.43190216427605943,0.599725000941966
-0.9869875500513065,-1.21508789062,-0.76538085937,0.01791052594327447,0.13349353280344123,0.11716541692507539,-0.04333496093,0.37536621093,0.009077786306785683,0.09503772561550844,0.24030921207165837,-0.02258300781,0.40808105468,0.011314548416870912,0.10610226854148998,1.0320830269476886,0.80830153192,1.25997408539,0.018629300327189326,0.13614582532226552,stairs up,0.002160820819065883,0.2024428707899233,0.04636768727239019,-2.727642819517756e-06,-0.24270073362577183,0.2057397524380112
-0.9683587646448,-1.23840332031,-0.73461914062,0.01886645712703678,0.1370114040560186,0.10614685058275,-0.03942871093,0.31091308593,0.005112168431955259,0.0713204570217794,0.2568823242142,0.09033203125,0.38525390625,0.005534378062568971,0.07420718410138015,1.01213675292125,0.7679697838,1.27867967116,0.020019106969680667,0.14113472795464715,stairs up,0.0018537944431170975,0.1939557864999415,0.04294793907629925,0.000154971700728943,1.3942415152161676,1.1666051589830921
-0.9656683349572001,-1.27307128906,-0.68371582031,0.02348550307955613,0.1528662015102042,0.11005187987980002,-0.1572265625,0.30041503906,0.010463376409859018,0.10203459966016294,0.2512896728478,0.00122070312,0.50317382812,0.012047441397593226,0.10948609131120382,1.01351136160245,0.71359065971,1.33059457171,0.026517543244834022,0.1624344653348231,stairs up,0.0012203181195982473,0.14909451617006653,0.03484560989565624,-0.00038456452287550667,-0.8193790705948705,0.22904422042356606
-1.0021328902324378,-1.4853515625,-0.29418945312,0.09237302572260636,0.30317232464467153,0.30675237095492536,-0.11169433593,0.91125488281,0.0832135820058637,0.2877491686963431,0.19155443485482587,-0.32299804687,0.57287597656,0.03789696244812112,0.19418656067397963,1.1452172309785573,0.8087419199,1.54131558862,0.036139202043379684,0.18962965226537815,stairs up,0.002592308202619598,0.2121855532200243,0.050787903548829144,-0.0006943026459499341,0.6366966788225992,1.1016758989442548
-1.115795898434,-1.46826171875,-0.65905761718,0.03939690122665183,0.1979896884196714,0.08022949218539999,-0.259765625,0.2939453125,0.014457390870983104,0.11993791692633397,0.1449951171852,-0.12561035156,0.42663574218,0.02165060726164641,0.14677313863693922,1.1439571547076,0.7345013104,1.49682542025,0.03914597531615512,0.19735816537345077,stairs up,0.0015047482718920557,0.12212727565997739,0.03869398571525807,-0.0006577307376396194,-1.2685687872542546,0.3086459058641576
-1.0832714843712001,-1.39562988281,-0.90625,0.011599221037675697,0.10743009323503037,0.11677246093579999,-0.40270996093,0.49670410156,0.037293433543087506,0.19263168580317222,0.17090332030980002,-0.05920410156,0.44580078125,0.018823306739949038,0.1368546316580089,1.1275697246946002,0.93103624329,1.4037895188,0.01234649130087035,0.11083663132902406,Null,3.1336347577912435e-05,0.024851658870034044,0.005583875521537249,1.3246999841125681e-05,0.9576611701926367,0.8702189899683911
-0.9878344726524,-1.09375,-0.90454101562,0.0007198261915223387,0.026762418810053902,0.04864746093519999,-0.10498046875,0.19946289062,0.0046014457728532675,0.06766415996662488,0.2129418945276,-0.00744628906,0.470703125,0.006918121875919882,0.08296704928187022,1.0170273064995998,0.95988280093,1.19196259688,0.0013682673015436484,0.0368975062170322,Null,1.0825477715826406e-05,0.012403692939983557,0.003281973541521515,1.1319988596800362e-05,-0.49751037956227817,-0.6336205358781029
-1.0615545654265501,-2.47473144531,-0.43994140625,0.08814042941403732,0.29614139742185175,0.0857434082,-0.49401855468,1.14697265625,0.07158024394723472,0.2668751444542907,0.4089862060509,0.1884765625,1.66467285156,0.1458385536235747,0.38093222606581456,1.2003718259959,0.6919631224,2.86880240579,0.18160361722098753,0.42508304969133104,Null,0.0034975416918564886,0.32708288766002624,0.05899198236537916,-0.0001828452386057523,5.612381439302386,1.5936170984318832
-0.9565551757774,-1.38330078125,-0.44165039062,0.029314394123096936,0.17078589564856184,0.3029956054656,0.03210449218,0.65844726562,0.033974701441403514,0.18386089288969665,0.2549438476526,-0.07507324218,0.47253417968,0.013669014126310589,0.11662190641418547,1.0601175808428,0.54946668137,1.42320250802,0.024647779523234135,0.15660313095726397,Null,0.00023284850409723855,0.07178309943992645,0.015221178061396968,0.00021289471557286419,2.112629947073417,-1.5784275905109721
-1.0489477539024,-1.36901855468,-0.65576171875,0.028348499500455825,0.16794867371597058,0.23434570312119998,0.01586914062,0.48498535156,0.01489481947534026,0.12173884087654013,0.2249975585904,-0.04919433593,0.52404785156,0.019198850584771693,0.13821308307048155,1.1147222767498,0.81971654588,1.41653822627,0.025484828936068675,0.15924008537861417,Null,0.002211956508276229,0.2688189588500336,0.04691371575280355,0.00026982506419374723,14.732106319271544,3.9176602839584507
-0.4492114257775999,-0.86633300781,-0.19519042968,0.023428103079130673,0.1526792800734108,0.7484887695268,0.34460449218,0.93347167968,0.01837851707071584,0.1352280462232678,-0.4075634765592,-0.82678222656,0.67016601562,0.1291977242353447,0.3585411212318163,1.0459278981942,0.85252743917,1.20906490618,0.004340185960116763,0.06571518112518734,Null,0.004892241049010618,0.4213121368100019,0.06976947644755237,-3.992820734453235e-05,2.874553149662349,-0.5665793888300125
-0.16316162109139998,-0.84643554687,0.57250976562,0.07426340070097504,0.27183098369661646,0.8703271484338001,-0.01147460937,1.68103027343,0.0709398314218929,0.26567862590879127,-0.2496655273406,-0.8212890625,0.07385253906,0.056938482774267635,0.23802056709535901,0.9957733823965998,0.34442813048,1.92363930177,0.05627167102970255,0.2366227222279256,Null,0.0045460713839195815,0.37105157785993015,0.06725578805575014,0.0006787885322912358,0.08658409174775716,-0.5364607780546895
-0.6671276855447501,-1.09606933593,0.19152832031,0.20024320479779717,0.44636530865851143,0.48842956542520005,0.08862304687,1.14208984375,0.10254557825768242,0.31942581355675376,0.03950256347384999,-0.90246582031,0.30981445312,0.06376790429623318,0.2518909779542571,1.0180065395470501,0.57886998401,1.22726511421,0.013638021184632561,0.11648961790095029,Null,0.019281787780392082,0.5331028822500912,0.13851129499607648,-0.0007674357273016431,-0.38894881441415574,0.48447331084262824
-0.9399755859338,-1.09509277343,-0.81176757812,0.004009576922087031,0.06316271873088267,0.3237499999962,-0.06970214843,0.52136230468,0.027928950414803526,0.16670124673417866,0.1945239257778,-0.02770996093,0.34155273437,0.009235929729610057,0.09586318417913108,1.0321878882202,0.9275288565,1.13953293817,0.001773337230438698,0.0420056013441839,Null,0.07515994933145995,1.1701123441000618,0.27346690765941434,0.0004635677401691179,0.15618090970332332,-0.07877221731833531
-0.9502392578078,-1.05603027343,-0.85729980468,0.0022250352552540147,0.04705220588854198,0.2511181640586,0.03552246093,0.53491210937,0.0173026253587688,0.13121018341567456,0.219765624996,0.01416015625,0.39733886718,0.010695495461593802,0.10316015696132802,1.0213404595150002,0.93318938432,1.11197760698,0.0012538848091274554,0.03532159941284961,Null,0.014866330098979244,0.5678236026200238,0.12162235998567182,0.0015830452556727446,3.751557993043993,-2.070660021194681
-0.9510034179656001,-1.07373046875,-0.82971191406,0.0025349363550125543,0.05022212334457287,0.26349609374739996,-0.11730957031,0.49084472656,0.02677990213658717,0.16323603347883772,0.2257495117154,0.03540039062,0.3681640625,0.00603817432370127,0.07751118275502422,1.0282808050055998,0.89602632809,1.14009341171,0.0026285108036087413,0.051140671188308603,Null,0.053403819618151764,0.9598429608799961,0.23051420893311764,0.0007401761013718512,5.883951845052895,2.6666002763885293
-0.9689208984338,-1.06469726562,-0.88708496093,0.0013676474441948834,0.036889147550111655,0.1320483398406,-0.07019042968,0.35302734375,0.01553492259100213,0.12432718117148446,0.224316406246,-0.02099609375,0.39099121093,0.01345239691990021,0.11569414391100662,1.0174835367569999,0.91063447593,1.12000399801,0.001500267474567658,0.038636331828925216,Null,0.010356907442062082,0.5181151704899776,0.10151415125415654,0.001194312814894806,2.6499990568512164,0.8288092283487795
-0.9668794698348755,-1.07995605468,-0.90100097656,0.0013749718650572348,0.03698825771798631,0.13231753828114426,0.02624511718,0.33813476562,0.0061119789181694004,0.07798442833575896,0.2602447965214427,0.03649902343,0.46887207031,0.014930898836320457,0.1218877178288805,1.0205459547011941,0.96143846711,1.08546675626,0.0008878839461855469,0.029723166270098935,Null,0.0010526329587945303,0.13887762467993525,0.03236349763081905,0.00011368559660363644,1.1140247495303264,1.2007089289655246
-0.9702909076596482,-1.00305175781,-0.94506835937,0.00014353872652863374,0.011950624519050209,0.07272384873190955,-0.00183105468,0.16931152343,0.002447890432667238,0.049351691720944696,0.287295240848392,0.16845703125,0.37072753906,0.001771769262321713,0.041986496629207684,1.0166104604680402,0.98953846361,1.04915170632,0.0001368914413793677,0.011670627433391022,Null,0.00058107910472474,0.12711986762997185,0.024044939368266467,0.00018100332117767734,3.3822844264140297,1.2114214383076212
-0.978452148434,-1.00732421875,-0.94482421875,0.000127018540344491,0.011242039300890587,0.05148193359020001,0.00903320312,0.07104492187,0.00020496618210014662,0.014280803590472277,0.2639526367154,0.13977050781,0.37768554687,0.0025281811779028487,0.05015516196777092,1.0160224936188,0.96263896137,1.05221732469,0.00023532484487524924,0.015301902517362766,Null,0.0011859153351493328,0.1828372330800221,0.034350920780578595,-0.0001883087311778651,2.952689081764281,1.3067625581700864
-0.9793505859342,-0.98718261718,-0.96948242187,1.5382407293234237e-05,0.003912223824983441,0.046899414058,0.0302734375,0.06823730468,6.912461476739164e-05,0.008293310056518729,0.2580200195274,0.24267578125,0.27844238281,8.491670066743813e-05,0.009191959375677253,1.0139329507808,1.00544368709,1.02032222246,1.0053877092857123e-05,0.003162848037353808,Null,1.3710103061516534e-05,0.01555606108001939,0.003693447244270446,-1.2474259247943434e-06,-0.457981228450278,-0.36713041098683513
-0.9799267578092001,-1.03088378906,-0.93615722656,0.00020153807634872313,0.014160875183652298,0.0528515624954,0.02294921875,0.14660644531,0.000492356506434741,0.022133565548789633,0.271743164059,0.16381835937,0.3740234375,0.0015468906757290775,0.03923208154496052,1.0193039127928,0.99881737784,1.0538086373,0.00014391983602154727,0.011966630137237448,Null,0.00012708969806349244,0.05982275440999274,0.011245187840724358,-7.152153084816087e-05,4.934447412227419,-2.125788268719043
-0.9796197236435821,-1.01953125,-0.93957519531,0.00029641543305012637,0.017173838516857866,0.03432119189039801,-0.03503417968,0.17053222656,0.0014374893086328319,0.03781980460724488,0.262029695269602,0.10876464843,0.333984375,0.003879557535176549,0.062130960510095236,1.0172273385760695,0.95980633473,1.05180504709,0.0003280165466138724,0.018066118108115824,Null,0.0003198505586816379,0.07586423797999942,0.017839822374950624,3.0860710667242616e-05,-0.3730023658481443,0.21464217143774517
-0.97000122070005,-0.98474121093,-0.95263671875,4.729939316224755e-05,0.006860240243346898,0.04696899413680001,0.00708007812,0.11376953125,0.0008608705898573383,0.02926715286644828,0.28915222167575,0.27136230468,0.31225585937,0.00013008106855381095,0.011376759785239464,1.0137568923579001,0.99581621829,1.02857721639,4.7723477601151455e-05,0.006890925932931342,Null,0.00043937284268637656,0.08847458067009484,0.02090875363269998,-0.00016299261272926884,1.4113890147787753,1.3188050949727677
-0.9800134277307501,-0.99792480468,-0.95812988281,5.946637247918993e-05,0.007692141484449826,0.033436279293200005,0.00305175781,0.05029296875,0.00011909265464553691,0.01088564152323184,0.26571655273010003,0.248046875,0.30920410156,0.00024863369950344757,0.015728653184743133,1.01612302527145,1.00047364789,1.03719366848,6.898892095348269e-05,0.008285166042314137,Null,6.631748760402227e-05,0.03845053844997892,0.00812317057348928,6.0449795017367596e-05,0.058470492418559505,0.06653898272126052
-0.9810046386678501,-0.99279785156,-0.9677734375,2.540697254562096e-05,0.00502791583888323,0.03103820800485,0.009765625,0.04064941406,4.464634662172401e-05,0.006665066758001407,0.25247863769214995,0.2373046875,0.27429199218,8.277410798916106e-05,0.009075254125875223,1.0135128753090499,1.00402096638,1.02619629951,2.2762618622076352e-05,0.004759076121367042,Null,1.9048372581120962e-05,0.01686691331997281,0.004353519348551854,3.716335744003318e-05,-0.965542370848862,-0.14554952251574743
-0.98146606444995,-0.99194335937,-0.96960449218,2.5482050435842945e-05,0.005035339132934715,0.02652587890235,-0.00061035156,0.04040527343,7.482329803788105e-05,0.008628393914726636,0.253701171871,0.23693847656,0.27270507812,7.2884463785831e-05,0.008515869977101685,1.0141456182107,1.00510496718,1.02876132445,2.4654727519718925e-05,0.004952923771079092,Null,1.019283356641281e-05,0.013724908380027045,0.0031846301823886466,-1.2115558936769911e-05,-0.46192533999845686,-0.24240931449558398
