avg_accX,min_accX,max_accX,var_accX,std_accX,avg_accY,min_accY,max_accY,var_accY,std_accY,avg_accZ,min_accZ,max_accZ,var_accZ,std_accZ,avg_magnitude,min_magnitude,max_magnitude,var_magnitude,std_magnitude,Label
-0.8791805967955867,-0.98742675781,-0.73669433593,0.0018395322286215835,0.04283502707323641,0.48797763123385207,0.23693847656,0.65954589843,0.004517251647122382,0.0671247200812172,0.14584132602882655,-0.14221191406,0.31469726562,0.004313630935494465,0.06559441115632286,1.021123330885587,0.95755950984,1.08696063302,0.0003014893380867949,0.017341286937032435,Null
-0.9158517456021501,-1.56457519531,-0.46728515625,0.05296486003930591,0.2298531006734685,0.47791046142194993,0.01037597656,0.94116210937,0.039018396382572894,0.19728367999309132,0.03513763427614999,-0.65295410156,0.37841796875,0.039945599192774496,0.19961396543025883,1.076379070345725,0.6527302562,1.6122637766,0.041528433883879584,0.20353037316128,Null
-1.10684448241835,-1.55944824218,-0.69958496093,0.04078882943282504,0.2017098345625294,0.258188476559275,-0.02673339843,0.52819824218,0.01684979603103288,0.12964440420224582,0.0879244995092,-0.18688964843,0.423828125,0.010890624359759593,0.10422762493149403,1.1529897421436253,0.73881937024,1.62033959276,0.03856571078912508,0.1961359133666047,stairs up
-1.1015453242734925,-1.63037109375,-0.59814453125,0.061759489689300666,0.24820216576833365,0.24751964166133167,-0.01135253906,0.59094238281,0.017978054092586834,0.13391371513928085,0.06727822461763819,-0.23889160156,0.47814941406,0.017215663555723588,0.13104353520740322,1.1478345202490452,0.68805522606,1.65612341289,0.05852700716592245,0.24161944123786588,stairs up
-1.1411543930092747,-1.70373535156,-0.53881835937,0.08695963745822563,0.29450696668051807,0.25442836939075125,-0.09313964843,0.50903320312,0.025866734800846867,0.1606229203274658,0.05151968051582902,-0.13330078125,0.38720703125,0.014064641511748478,0.11844072195254604,1.188725308087798,0.55195695102,1.72253456464,0.08476869801346566,0.29077326216061206,stairs up
-1.15448014322544,-1.6005859375,-0.8037109375,0.038895446179439096,0.19695614991572935,0.23192317707986665,-0.15759277343,0.50903320312,0.017522474233533248,0.1321958684512385,0.08041959635194666,-0.14343261718,0.37866210937,0.011141898821120289,0.1054143590358099,1.1927311490739199,0.84257199917,1.61633446443,0.03795334731641651,0.1945562602185789,stairs up
-1.1029152519336785,-1.61669921875,-0.59484863281,0.05012066513911872,0.22357123376959157,0.23161794054084467,-0.00708007812,0.486328125,0.015432741026628526,0.1240592195733992,0.06377225870479565,-0.19775390625,0.37023925781,0.013137225958294679,0.11446147693559404,1.1421468578286649,0.62735086819,1.62262865042,0.048244050871345014,0.2193458358206489,stairs up
-0.37341174450447806,-1.53405761718,1.10266113281,0.9129377509847707,0.9541643884783727,0.41577651474137367,-0.22509765625,1.49084472656,0.07288165478254861,0.26959493774220417,0.1090798849564835,-0.27111816406,0.45458984375,0.022011080085065683,0.1481573828225647,1.1177356767027473,0.32172651569,1.83629057309,0.07873611061171687,0.28021385157684625,stairs up
-1.0779906544565643,-1.35461425781,-0.65258789062,0.027141570559898392,0.16451673506666015,0.22695053355980446,-0.14733886718,0.46362304687,0.016010823059305082,0.1263570341922668,0.09124142097790502,-0.14184570312,0.37182617187,0.01039208712129064,0.10179911072781621,1.1169730122660055,0.6551991746,1.42432654909,0.027181215961787603,0.1646368451396491,stairs up
-1.074446451352722,-1.60205078125,-0.68603515625,0.05777963844641285,0.24002933308895394,0.2845997632712034,-0.01245117187,0.59619140625,0.015660942287828685,0.12496426900395025,0.06792530835759313,-0.15686035156,0.32775878906,0.013387778202160042,0.11553968065632393,1.1265085622756446,0.68640970343,1.66055063387,0.05776960474468008,0.24000849108158012,stairs up
-1.0966456796379178,-1.65051269531,-0.73095703125,0.05211187927762623,0.22794529720369597,0.26207171576821114,-0.05029296875,0.53796386718,0.019576179060154197,0.13970959491179435,0.09865572305536657,-0.10180664062,0.36499023437,0.01287366589973983,0.11329568929935878,1.1461841400747506,0.73386666783,1.68216943345,0.05013274955658242,0.22357489281158716,stairs up
-1.1160944326995745,-1.48046875,-0.76098632812,0.02313308010370181,0.1518643038713071,0.23767052739963526,-0.02368164062,0.53186035156,0.017442167213966072,0.13186793206897782,0.09702289430331307,-0.23803710937,0.34753417968,0.01138588169658183,0.10654235849384565,1.157070681169605,0.81782814937,1.55827709317,0.024633007909919534,0.15671035557821855,stairs up
-1.1141506195033126,-1.65368652343,-0.62121582031,0.06258909475507085,0.24978691685907264,0.2533000946006875,-0.05346679687,0.50561523437,0.016679106863890042,0.1289456655143568,0.0593551635729375,-0.18505859375,0.33288574218,0.013378935825032516,0.1154864782153274,1.1578948041860624,0.69632948748,1.66087251358,0.06084294809772593,0.24627792001095133,stairs up
-1.1436491559229935,-1.55615234375,-0.72729492187,0.03924164066242573,0.1977793398829107,0.2566617734833439,-0.033203125,0.55529785156,0.018676134954199695,0.13644287015964918,0.09946942177302548,-0.17687988281,0.484375,0.016546943471781317,0.12842992719603244,1.1899004310392038,0.73309986523,1.56940571618,0.04220175869773135,0.20510328664437477,stairs up
-1.1569158380644806,-1.67102050781,-0.57678222656,0.03670885471474306,0.19128426522198153,0.22418133623792208,-0.04418945312,0.55944824218,0.02319477216930806,0.1520508614492521,0.12556398069474028,-0.23645019531,0.55261230468,0.018457251794215104,0.1356367415268669,1.201215150819448,0.59159644985,1.68581078895,0.039795669530756896,0.19916441150843486,stairs up
-1.0449126089328054,-1.71667480468,-0.60302734375,0.06929069003782339,0.2627965142319891,0.30441556118201324,-0.21325683593,0.62658691406,0.031168393409741372,0.17625415576629885,0.03217539771382838,-0.56274414062,0.38732910156,0.036363862886556755,0.19037817663208206,1.1262826928173597,0.69418424513,1.7241810648,0.05358196991543163,0.23109550348479793,Null
-0.8740629716314487,-1.07775878906,-0.64587402343,0.00918270138431391,0.09569019889451641,0.46783620660573866,0.19995117187,0.74475097656,0.020952984051018857,0.14454569702397455,-0.1079243746634091,-0.27893066406,0.05395507812,0.007695254701398244,0.08759790626698895,1.0154401153457386,0.89162580409,1.13393187629,0.0011245526665292313,0.033486682646026354,Null
-0.9270864893484764,-1.48498535156,-0.64624023437,0.021402843498073962,0.1460943388463586,0.41510331002947365,0.01501464843,0.73168945312,0.023544331971009462,0.1532289535788099,-0.08845972288213295,-0.34704589843,0.19543457031,0.01822398995164582,0.134809153936299,1.0424816600035458,0.7803679255,1.57736352924,0.01589744113564863,0.12591030101856596,Null
-0.9362343807920476,-1.13232421875,-0.59448242187,0.008197913406398753,0.09040789375855136,0.34932502723569736,0.00817871093,0.55102539062,0.014103657807194348,0.11858249107923054,-0.028741581856023737,-0.41247558593,0.20886230468,0.012525333687051877,0.11175046543426903,1.0147992474217509,0.83474236912,1.16924660607,0.004307699851785314,0.06553561901472754,Null
-0.8120898714098869,-1.17175292968,-0.40466308593,0.02896630642543805,0.1699536669217629,0.5049972750273372,0.10229492187,0.88073730468,0.022432542348024068,0.14956267605728965,0.16782558538390938,-0.16833496093,0.67211914062,0.07181631301350427,0.26760580593024075,1.0308400305779037,0.84939857586,1.2241788591,0.0029208502029815873,0.05396828549991501,Null
-0.9360652970640124,-0.96118164062,-0.89819335937,0.0002710413382474785,0.016437907132819812,0.280135543254321,0.22937011718,0.36828613281,0.0017139924825259232,0.04133645343121751,0.21615148473271603,0.17980957031,0.24499511718,0.0002081267930287451,0.01440431971262769,1.0016255321829013,0.95615353721,1.03665086341,0.00034939056092290647,0.01866312393448996,lift down
-0.9592540890109218,-0.97827148437,-0.94787597656,2.923538069105508e-05,0.005399418266489368,0.23233833525731848,0.19384765625,0.26403808593,0.0001903190220398595,0.013776334950191212,0.22948264009773742,0.20886230468,0.25793457031,0.00015224444639835925,0.012321492709148679,1.0134835852826816,1.0009554456,1.03273092487,3.366813281810338e-05,0.005794315123840406,lift down
-0.9678747298833131,-1.02160644531,-0.94738769531,0.00026122082971050207,0.016137745983428656,0.1992335913716109,0.17578125,0.23767089843,0.0001771146175711902,0.013288200603111852,0.25460379463942245,0.22534179687,0.27709960937,0.00013544797273360942,0.01162051103729323,1.0206106831322797,1.00390328878,1.07343222521,0.00022516619068023693,0.014982716541531566,lift down
-0.8843065821445509,-1.01708984375,-0.82629394531,0.0033105091306716897,0.05745082616192427,0.37788400249904197,0.17858886718,0.4609375,0.006689779850526845,0.08166854088042251,0.28952921792832337,-0.06713867187,0.40185546875,0.017626354222276076,0.13256538276126434,1.0177404862302095,0.94556537902,1.06818412166,0.00042591076914955166,0.020606687924215043,Null
-0.8905542547018467,-1.16162109375,-0.43090820312,0.024866438224964583,0.1574668058180922,0.39902808449105104,0.11547851562,0.94714355468,0.034088944173425256,0.18436946759706033,0.18181991576786932,-0.06530761718,0.37475585937,0.00829724766476463,0.0909597490016561,1.0218424195980398,0.81746192831,1.25658515615,0.008291972254216098,0.09093082818746087,Null
-0.974441134823639,-1.04357910156,-0.92907714843,0.00039608323002483233,0.019873306746897454,0.2521234637991117,0.07641601562,0.3427734375,0.0029099092672092482,0.05386623634806937,0.09140198278315187,-0.07434082031,0.26281738281,0.005958875993597108,0.07708308407393272,1.0148397208354154,0.96583162924,1.08657102835,0.0005057219866824112,0.022456022055311817,Null
-0.9646785341422701,-1.22680664062,-0.70739746093,0.018640782610081993,0.13633494468701576,0.30456507890755746,0.00231933593,0.56103515625,0.011195498558832754,0.1056566495113419,0.1269882026725,-0.06433105468,0.23400878906,0.004228242160845019,0.06493144107205048,1.0276682039702012,0.78686766782,1.26270752655,0.01740527963152382,0.13173938082505499,Null
-0.9604884060911648,-1.26049804687,-0.64501953125,0.029869315152336314,0.17258174626356293,0.23456781560357953,0.06066894531,0.47668457031,0.008906535688591514,0.09424029409114387,0.19155051491085232,0.05834960937,0.36437988281,0.0031031101162424988,0.05562638279182976,1.0127727472649715,0.68622186366,1.28862769567,0.030389320444625112,0.17407753200200027,stairs up
-0.9740764167152448,-1.29357910156,-0.62292480468,0.028376876038184628,0.16821146898306483,0.24705272311414989,0.07153320312,0.47668457031,0.00806855969322192,0.08969563735105547,0.13799327663129682,-0.02905273437,0.30212402343,0.004769765897388382,0.06896390486581479,1.020889448741124,0.65331551132,1.30903264556,0.027863515591146627,0.16668298436049792,stairs up
-0.9827742143068182,-1.29833984375,-0.70581054687,0.023062914671692535,0.15164892029862548,0.26286385275764207,0.09692382812,0.44775390625,0.003997580150483555,0.06313654558726196,0.13115033236102272,-0.041015625,0.25012207031,0.0032265536645498037,0.056722017937586446,1.0293642161724432,0.76701094271,1.33357712881,0.02281811145098832,0.15084192809272173,stairs up
-0.9711247565799109,-1.26928710937,-0.65161132812,0.029123251705115427,0.17040197346448152,0.24373819141427303,-0.001953125,0.52819824218,0.011661291314311479,0.10782712124502852,0.18013774746955488,0.0595703125,0.42041015625,0.006212043632933621,0.07869949344841856,1.0258364733729672,0.70233865848,1.29742078901,0.02903804842581036,0.17015252601712022,stairs up
-0.9581718337328731,-1.23120117187,-0.67175292968,0.019177950963935465,0.13828929303042212,0.2875601755023944,0.056640625,0.45349121093,0.007210244041936841,0.08479347554700088,0.17064810739022535,-0.0107421875,0.32116699218,0.0052808216351215255,0.07256683871590228,1.020234237540507,0.72456189023,1.25710922032,0.01949483861626378,0.13942712640626323,stairs up
-0.9679301649950474,-1.24780273437,-0.64233398437,0.025249320893306938,0.15864951950369696,0.2933623016032492,0.04956054687,0.58117675781,0.012031512598964525,0.1095151053533031,0.1630293307582019,-0.00402832031,0.41125488281,0.006823234865224299,0.08247248307780325,1.035537944175426,0.75480604089,1.35150157372,0.022507313641972677,0.14978755840378005,stairs up
-0.9640808950794737,-1.23620605468,-0.67065429687,0.02597402084035884,0.1609412024440142,0.27691430596099725,0.06091308593,0.45239257812,0.008467882132095513,0.09189355469720112,0.17477662146822714,0.01159667968,0.30053710937,0.0029156476224211944,0.05392189755757397,1.024063491900443,0.7209448887,1.2694478521,0.025298483047287344,0.15883451812146926,stairs up
-0.9685654413090774,-1.24816894531,-0.62280273437,0.024978457100081786,0.1578103813250275,0.2878283546048214,0.09631347656,0.49670410156,0.006550296959812079,0.08081337778105842,0.14185151599380952,-0.03637695312,0.32836914062,0.006073802230733044,0.07781854173896907,1.0266277238588095,0.6880054025,1.30253911878,0.024685658149777665,0.15688272348825985,stairs up
-1.0069440569158856,-1.26098632812,-0.69348144531,0.02269405926829102,0.15043011367061132,0.23845807756297144,0.07043457031,0.4638671875,0.010704524135077335,0.10331476070923111,0.15482840401448572,-0.01770019531,0.34167480468,0.00549377368937197,0.07401403375790716,1.0541945980405716,0.73733841774,1.31529798747,0.021823507295823826,0.14751662420837783,stairs up
-0.9761387218093751,-1.14880371093,-0.73425292968,0.006453352763948937,0.08021857250920757,0.266847783865625,0.03332519531,0.47668457031,0.008546515573151468,0.09231595582218767,0.09646918556633523,-0.25805664062,0.32250976562,0.010431871890444084,0.10199135203905928,1.0260619531677841,0.84659537277,1.21533851116,0.00593406509957001,0.0769233837014636,Null
-0.9951831335268966,-1.07153320312,-0.91723632812,0.0010720671098047277,0.03269535834320135,0.15461853728488506,0.03515625,0.29614257812,0.002859580699376907,0.05339816020668837,0.05816369769077587,-0.05395507812,0.24072265625,0.005843421688367115,0.07633236696666675,1.0131607672200575,0.94718977634,1.09662637555,0.0009343018158959038,0.030522402273786865,Null
-0.9941028333654794,-1.15930175781,-0.83801269531,0.002913048716730715,0.053898680515782685,0.19436469926810962,0.00903320312,0.42504882812,0.005458988811619115,0.07378368842697315,0.0707011183639452,-0.06811523437,0.30688476562,0.010721472212087958,0.10340260304081558,1.0231429763743014,0.87188620508,1.19084712807,0.0032452675582879827,0.056889159022547285,Null
-0.9946065503459011,-1.10095214843,-0.90344238281,0.0010694779503995372,0.03265530589152865,0.1643871928334593,-0.00537109375,0.31726074218,0.003914812702722184,0.06247745539982824,0.046283810636424415,-0.08959960937,0.25732421875,0.007646185294980281,0.08731527937392193,1.0148672375313663,0.93636454327,1.12399163354,0.0009527494972787205,0.030821743569225547,Null
-0.8734587770562569,-1.08435058593,-0.13403320312,0.07276675738925642,0.2693761279148614,0.2124889522914525,0.03942871093,0.60266113281,0.01616738464429882,0.12697332141830547,-0.0642147810105586,-0.95947265625,0.26733398437,0.1181040959762273,0.34318245332009106,1.0073243600264246,0.81222627687,1.2260651947,0.004662409246610853,0.06818640448868953,Null
-0.9962674654410651,-1.07263183593,-0.91955566406,0.000552274994211181,0.02346574193423608,0.1891674515724852,0.12231445312,0.47045898437,0.0034925729776447904,0.05901050687375861,0.044523160131982244,-0.07019042968,0.19873046875,0.005122653809510197,0.07146676170786449,1.0192686856473077,0.9539425814,1.13566496595,0.0005488484843543047,0.023392833780250227,Null
-0.9930864122138612,-1.06018066406,-0.93286132812,0.0004937641854209898,0.022189921546487378,0.1529612223267222,0.02587890625,0.29541015625,0.003389603902993163,0.058139387136397984,0.047494845920472234,-0.1142578125,0.26953125,0.01382208218338741,0.11740395014928491,1.014342951602028,0.93649340473,1.08384061667,0.0006399406618380132,0.025261889258099107,Null
-1.0052003428254985,-1.10546875,-0.91882324218,0.0006268776438285887,0.024999675071207716,0.09986679215114805,0.00756835937,0.19421386718,0.0014584331839525063,0.038131706510498596,0.0245881325523565,-0.09509277343,0.244140625,0.004676865760575465,0.06828423139178678,1.013405419816435,0.93766656031,1.12464328249,0.000759177377694606,0.02751152104938612,Null
-1.0038106282513055,-1.17358398437,-0.92541503906,0.0009439049283374321,0.030680335236160008,0.11131930880750002,-0.04138183593,0.31518554687,0.003431778271239206,0.05849996199844148,0.044813028969805546,-0.04150390625,0.19177246093,0.004042956190165499,0.06349587196270265,1.0145514907515556,0.92798659259,1.20700468879,0.0011196103908308326,0.03341407430959915,Null
-0.9945311051055786,-1.17639160156,-0.78918457031,0.004433949064647111,0.06648903628238959,0.19851675514272998,0.10754394531,0.36437988281,0.003921788055586,0.06253119783200486,0.05451399352982197,-0.13635253906,0.20861816406,0.003996128933056155,0.06312108192751376,1.0195144614791987,0.83908068567,1.20853748597,0.004391303626140758,0.06616852009515158,Null
-0.9602922218009349,-1.0693359375,-0.85583496093,0.001221596606348151,0.034901805006796335,0.26647119278560905,0.10900878906,0.40588378906,0.004488090322841177,0.06689825248800804,0.15780648293317281,-0.24060058593,0.27465820312,0.012322999369891853,0.1108516577378748,1.0173296326372239,0.88653389436,1.10436095546,0.0010960596347740611,0.03305986463936296,Null
-0.948462475301638,-0.96813964843,-0.90283203125,0.00032913447424462976,0.01811597873496036,0.24825243017738508,0.23181152343,0.27392578125,7.523047606178884e-05,0.008661079409223522,0.22107635146931034,0.20422363281,0.25183105468,9.235090628674127e-05,0.0095961205765273,1.0050880655880459,0.9583768921,1.0292893252,0.0003794486173402759,0.019451433051326003,lift down
-0.9498835100406856,-0.97912597656,-0.93676757812,6.272289287522294e-05,0.007908456525129613,0.2797882951972286,0.2294921875,0.32495117187,0.0008716936255410375,0.029482250123170822,0.22297851562111431,0.20483398437,0.24963378906,8.477260526673439e-05,0.009194041430356683,1.0155186167178858,1.0059117572,1.03296794269,1.7858484730641108e-05,0.0042198886820097,lift down
-0.9458577473918552,-0.99560546875,-0.92126464843,0.00016335821891790678,0.012762629699011359,0.30658153588886955,0.27209472656,0.33959960937,9.311779650554777e-05,0.00963576098961623,0.22974340466092752,0.19348144531,0.26147460937,0.0002524526504103692,0.015865714720666873,1.0206789942809564,1.00355361058,1.07088672242,0.00014340825617111745,0.011957950496062176,lift down
-0.9697538813479886,-0.99536132812,-0.79736328125,0.0009807322563927417,0.03127225572366055,0.2581953097296317,0.19641113281,0.37719726562,0.0018290044855277827,0.04270624274862819,0.13721602226073656,0.03186035156,0.39172363281,0.010044118308331384,0.10007829292803677,1.0189703323089236,0.95840461438,1.06802281268,0.0004337776911684833,0.020797808999559794,lift down
-0.9915307273287889,-1.26147460937,-0.75183105468,0.00913236191972337,0.09542870090580306,0.21741204059940847,0.06494140625,0.4169921875,0.00453093755080953,0.06721736640512667,0.09651257151991549,-0.14538574218,0.35278320312,0.0066937221077989885,0.08169985650272436,1.0247726680812959,0.78690682921,1.31378556484,0.00988435495900038,0.09927996628522164,Null
-0.991181780574586,-1.24780273437,-0.65563964843,0.009959217224547347,0.09963684043685785,0.18371776410359872,0.00830078125,0.32824707031,0.005701033115069866,0.0753848589482825,0.0992454966128981,-0.17163085937,0.24047851562,0.007008608817602514,0.08358402004782596,1.0192933005220062,0.69105524108,1.29044400948,0.009711970278624901,0.09839227834018902,Null
-0.9865483896097246,-1.32238769531,-0.62475585937,0.03638068323618602,0.19047430527060005,0.21195475259986224,-0.02954101562,0.49060058593,0.009862094321653952,0.09917119550422668,0.18155857222399446,0.04382324218,0.38464355468,0.005295843379450095,0.07267223871074308,1.0328588551352893,0.65120712212,1.3493145622,0.035864083100307954,0.18911711708174345,stairs up
-0.9823137658042227,-1.28234863281,-0.63366699218,0.03021290515023385,0.17356354529498738,0.24013020355624637,0.02685546875,0.40856933593,0.005097042316375748,0.07128881383642569,0.10649507136357772,-0.09912109375,0.33947753906,0.008361291023404,0.09130592044538709,1.0240330520252199,0.66291171946,1.31150095246,0.028928361982171857,0.16983382488793503,stairs up
-0.984422340283518,-1.30847167968,-0.63732910156,0.02658563445442821,0.16282502890421038,0.2510036140889474,0.11926269531,0.47973632812,0.008205419790100012,0.09045822292854637,0.13683710071479224,-0.04663085937,0.349609375,0.006794515527879975,0.08231460475047285,1.0321776975105263,0.68102586453,1.33021348104,0.026968831422060024,0.16399428501580104,stairs up
-0.9916338239358631,-1.30700683593,-0.66186523437,0.02960685062643325,0.17181017140893862,0.2136691865430357,0.02124023437,0.52844238281,0.015738013653521326,0.12526441764192878,0.1146476382270238,-0.07299804687,0.26428222656,0.004840919527689775,0.06947310291829105,1.0307660063421429,0.70147161001,1.33393831857,0.029175075715246433,0.170552763486144,stairs up
-0.9829953620195441,-1.34655761718,-0.65942382812,0.03286570846978639,0.18103058850017992,0.21251815404284902,-0.00915527343,0.44030761718,0.00809484239455252,0.08984308635342071,0.13848059672905982,0.00390625,0.2978515625,0.004224053032739709,0.06490006697696925,1.021399275060057,0.69826319736,1.38036041201,0.032512745865178265,0.18005587177201265,stairs up
-0.9918798687775287,-1.22875976562,-0.74438476562,0.017486881662510598,0.1320478398254241,0.2690012263119827,0.15454101562,0.41931152343,0.0036375960762351153,0.06022576868705856,0.08037312825232758,-0.17907714843,0.25988769531,0.0057221597217209375,0.07553619486057557,1.035881431946724,0.79496867161,1.26603991571,0.015782694117800075,0.12544856136479227,stairs up
-0.9808202283096551,-1.27514648437,-0.65710449218,0.029408750381692595,0.17124322608003192,0.2504297015272701,0.04431152343,0.46899414062,0.008266632635105357,0.09079029652790638,0.13035285335548852,-0.09313964843,0.31640625,0.006192838176166719,0.0785814396926287,1.0275140689419826,0.68038390645,1.3147127255,0.029757733989120926,0.17225627204623675,stairs up
-0.9775285693453868,-1.26416015625,-0.66015625,0.027201923292055615,0.1646935967742505,0.19289627730659026,-0.05187988281,0.52282714843,0.012385138370267978,0.11112898302321665,0.1606455805616619,-0.04248046875,0.39672851562,0.0067384287103271715,0.08197024394054796,1.0186007163969628,0.66999270451,1.32815226919,0.027301641572921653,0.16499519197107626,stairs up
-0.9917400292352071,-1.28820800781,-0.72985839843,0.024103107510036668,0.1550219227756902,0.24327349239192309,-0.02331542968,0.49914550781,0.00906171578389088,0.09505212240596929,0.14357924602097633,0.00427246093,0.31799316406,0.005271164277838184,0.07249530410483747,1.038111923525148,0.7838003873,1.34339626225,0.024062373897663577,0.15489087591703085,stairs up
-0.9838518907758474,-1.31164550781,-0.60205078125,0.034252598424957724,0.18481298567023055,0.21709618864420907,0.00183105468,0.49084472656,0.015242157242543478,0.12328463124485696,0.17747816527279658,0.03649902343,0.3984375,0.006575886383369268,0.08097722169310183,1.034132286146017,0.68372729495,1.34632244724,0.034682442397812915,0.18596900117140264,stairs up
-0.9811677559758939,-1.11767578125,-0.81823730468,0.0023576399847884486,0.048487672642010364,0.21780105675681566,0.02185058593,0.56323242187,0.013445554271839806,0.11579290504030312,0.08507652921782123,-0.5302734375,0.33679199218,0.014133509633933334,0.11871828231887276,1.0223388211675979,0.92368173548,1.22155210955,0.002047617663773169,0.045187366169764695,Null
-0.5987747896609845,-1.72998046875,0.47180175781,0.31149879108519896,0.557261458622858,0.3097517277618461,-0.61401367187,0.87841796875,0.1260464626123572,0.35448360659243566,0.0009840745201538407,-1.00610351562,0.91162109375,0.23369073880294747,0.48267141035684047,1.0374588896545847,0.28834211952,1.77738139353,0.04747412748818673,0.2175501166392736,Null
-0.905371837665651,-2.37805175781,0.20642089843,0.21566582563861827,0.4637546909511876,0.22897550207545708,-0.38024902343,0.966796875,0.06983378572698194,0.26389456291700386,-0.21243751081872578,-1.18908691406,0.63671875,0.13977367074963706,0.3733449960373382,1.1083216014839057,0.30263429033,2.42521236647,0.11328993098209285,0.3361191878762603,Null
-0.9014783910152522,-1.84484863281,-0.09387207031,0.13814475889911004,0.3711264390992903,0.054120253384094964,-0.48803710937,0.52941894531,0.039763143771806085,0.19911090439064524,-0.38606819129869435,-1.39196777343,0.05981445312,0.08640528871304722,0.29351131698382305,1.0692497987812166,0.50464434129,2.01926561301,0.08512728991115744,0.29133260489859303,stairs down
-1.14110313786851,-1.77124023437,-0.55017089843,0.081316177383935,0.2847510838276144,0.2408321347795702,-0.12915039062,0.658203125,0.03736434150159525,0.19302145049491487,0.004373195178194841,-0.52600097656,0.65368652343,0.04112832318045448,0.20251043672420857,1.1999207729283954,0.62165018263,1.80679263738,0.07693101804094687,0.2769667585189551,stairs down
-0.9644785794306533,-1.55065917968,-0.32995605468,0.07827456584080815,0.27937822913592253,0.24356287175704547,-0.41882324218,0.83093261718,0.06207868392612705,0.24880177657848354,-0.1426849365219318,-0.75170898437,0.16906738281,0.054627750439253955,0.23339356881974097,1.068424398657301,0.49989751421,1.59597394085,0.06262615468378181,0.24989645750112582,stairs down
-1.1484488473775776,-1.9443359375,-0.47448730468,0.11270687160567566,0.33524526463517357,0.2520174268248732,-0.50427246093,0.84973144531,0.06704128590284955,0.2585583825950446,0.03700690470870422,-0.15087890625,0.37841796875,0.01197853414341265,0.10929223116815255,1.2132282410512958,0.541025141,1.96341902799,0.10337209002723645,0.3210621451389812,stairs down
-0.8686856665611979,-1.62341308593,0.16735839843,0.13646879281226057,0.3689019610941835,-0.04036719022022285,-0.91748046875,0.62377929687,0.08389361448379881,0.28924025918840546,-0.3767939915540947,-0.99108886718,0.15295410156,0.10605795539448601,0.3252115147636863,1.0790535931203342,0.48689801939,1.63367024848,0.059538311228251,0.2436646596250221,stairs down
-0.9489984540097959,-1.68041992187,-0.0888671875,0.11391925523826886,0.33702689674520414,0.07902077544163263,-0.63830566406,0.72155761718,0.0862483179504688,0.2932522210119742,-0.30437324901842566,-1.23193359375,0.20556640625,0.09104515210520064,0.30129672142916025,1.1070673957148687,0.45690006427,1.70329767191,0.06443878149764347,0.25347763871791895,stairs down
-1.0889662191860283,-1.87316894531,-0.39099121093,0.11993690451153198,0.34583096170859,0.23211343254566202,-0.24645996093,0.65356445312,0.04303762141924276,0.20716271064757413,-0.001989574163126757,-0.24328613281,0.26928710937,0.013473054208094078,0.11590988716550096,1.1419178682384508,0.48990673347,1.88349332806,0.11201770021954417,0.3342187268870856,stairs down
-1.0382200091040168,-1.65588378906,-0.77868652343,0.02521882726927867,0.15858117122419318,0.24559689639317417,-0.13403320312,0.54772949218,0.016143753463038063,0.12687949338230697,0.09745154219910113,-0.25390625,0.61315917968,0.030581372549552184,0.17462952160981093,1.092889781318511,0.80032471459,1.74726247397,0.025713125610344688,0.1601277544007183,Null
-0.5289030320969628,-1.46264648437,0.39514160156,0.2162811098902291,0.46439357579856677,0.4943179592325501,-0.267578125,1.21911621093,0.09244304546312249,0.30360857312779427,-0.272755095473066,-1.09606933593,0.27075195312,0.16769365924964455,0.4089170596327223,1.0255358343546133,0.48338915883,1.48978920883,0.021875658290421547,0.14769217081859154,Null
-0.8459233302660504,-1.79565429687,0.0517578125,0.13062454936998788,0.36091363824842276,0.16204748500759106,-1.03051757812,1.28344726562,0.2412157185615129,0.49044881922564354,-0.01471921776434173,-0.51696777343,0.45202636718,0.039321845123008556,0.1980194432336743,1.0587413112184874,0.55757140925,1.85896649801,0.03114342791763662,0.17622766929421194,Null
-0.8782849297970144,-1.01745605468,-0.7705078125,0.002320439325760036,0.04810107498456637,0.5092900815187826,0.26403808593,0.68701171875,0.0076696907470515914,0.08744975562789743,0.051690939196521735,-0.12390136718,0.17553710937,0.0036238293944615843,0.06011094360550585,1.022813390005478,0.93778510526,1.12325444169,0.0008625262537151917,0.029326202918507308,Null
-0.868372785537831,-0.92053222656,-0.83776855468,0.00046990513448431296,0.021646742435044258,0.532230688817155,0.49145507812,0.58520507812,0.00043932712996800765,0.02093058978521222,0.1549766862858028,0.12243652343,0.18994140625,0.00028074280433523834,0.016731765583293774,1.030550820822507,0.99676062008,1.09089015644,0.0005116440532137354,0.022587669254697622,lift up
-0.8363158465788304,-0.85546875,-0.79455566406,0.0003094426094380248,0.017565244276310295,0.5423059296153507,0.51318359375,0.57397460937,0.0001791213883629833,0.013364042861850748,0.16124310409426898,0.13720703125,0.18542480468,9.538682569143642e-05,0.009752328790826601,1.0097849570046784,0.95941793271,1.03920670992,0.0004371172477233709,0.020876760455491954,lift up
-0.8331062231133707,-0.89294433593,-0.76281738281,0.0006108790059661951,0.024681228772130553,0.5704582300040169,0.47961425781,0.7607421875,0.0022602353140647926,0.0474751128325514,0.1461017051402809,0.01196289062,0.20910644531,0.0011532304794123608,0.03391151821952738,1.0219606534658707,0.95523251804,1.10257883059,0.00044499262214482644,0.021065199806057828,lift up
-0.8518608159181267,-1.16003417968,-0.650390625,0.0071595244692224695,0.08449196313179426,0.5297454042422478,0.18347167968,0.74340820312,0.01216081931252679,0.11011709097015723,0.012467354106051869,-0.38635253906,0.21105957031,0.019868760520738948,0.14075333688721797,1.0179533137389625,0.69804669824,1.35516148363,0.009250234393127013,0.09603945364861133,Null
-0.8458286533914448,-1.12329101562,-0.57568359375,0.012199565078827978,0.11029508331917477,0.5565548645503682,0.24548339843,0.80139160156,0.015571995543907173,0.12461092344607302,0.026096765446912175,-0.4267578125,0.52404785156,0.03051130573578077,0.17442726691062868,1.0328806590807365,0.63781990598,1.31274431656,0.017593533730900283,0.13245260923063218,Null
-0.8807857840370285,-1.0673828125,-0.697265625,0.006191894275328068,0.07857609782132943,0.4750823102636286,0.142578125,0.77697753906,0.01870824505350562,0.1365825498545891,0.0812301199748,-0.16784667968,0.31481933593,0.012026974247489906,0.10951078240943057,1.0213476037875715,0.8987987041,1.17046684856,0.0017608420302650557,0.04190239913221828,Null
-0.8734866768934285,-0.92346191406,-0.84191894531,0.0005067685868677834,0.022479338883063037,0.5343575613799428,0.51489257812,0.57116699218,0.0001736481781158821,0.013158724879870484,0.1297293526750571,0.10595703125,0.154296875,0.00013993380990747975,0.011812451016703933,1.0323772908548572,1.01290144703,1.08236585876,0.00036285583649975025,0.019021543195501315,lift up
-0.8407615379012819,-0.86413574218,-0.79553222656,0.0002962298746390713,0.017186794782107127,0.5415567686035613,0.51306152343,0.55895996093,9.897973608661586e-05,0.009934673750884401,0.15106149004729344,0.13098144531,0.16857910156,7.814287046708705e-05,0.008827244258912124,1.011504338114017,0.96360265006,1.0324730484,0.0003151467405995195,0.017727066498371847,lift up
-0.8426489736482073,-0.85412597656,-0.82971191406,3.0154712362913042e-05,0.005483634322372738,0.5528352454224928,0.53796386718,0.56640625,3.136373104103648e-05,0.005592484014522191,0.16683626575266108,0.14453125,0.18542480468,5.50547487535894e-05,0.0074094894406488195,1.021571782142633,1.00125361632,1.03332767565,2.4179201319427752e-05,0.004910343416115747,lift up
-0.8720589103240385,-1.09228515625,-0.62365722656,0.006777420796959285,0.08221193045450004,0.504420353812445,0.19104003906,0.72631835937,0.013158207619109784,0.11455155475627235,0.045409485533296705,-0.35083007812,0.27954101562,0.023936786269431107,0.15450251087795308,1.0269953739940385,0.65705480499,1.27065353085,0.006609109213079314,0.08118468032601217,Null
-0.9170617544480645,-1.16162109375,-0.63244628906,0.008428665794061565,0.09168428486013341,0.4170263146808065,0.17883300781,0.76452636718,0.017745456482063347,0.1330329043585,-0.08217071204776881,-0.36303710937,0.18994140625,0.013508779398341627,0.11607095017801744,1.0252517826901881,0.69512017408,1.30666718505,0.010127468202720263,0.10049996928273774,Null
-0.869738527461558,-1.13537597656,-0.71130371093,0.007131477323919982,0.08432837505005714,0.500324713943286,0.18090820312,0.78088378906,0.019432109154392748,0.1392015110784839,-0.06472527609144477,-0.28356933593,0.16040039062,0.011243457668786578,0.1058848738674108,1.0209460511984985,0.82359487415,1.29221389955,0.0063463678596300584,0.07955117522968663,Null
-0.7804208235273581,-0.81396484375,-0.72985839843,0.0004070652456887124,0.020147178718908566,0.6224035783212215,0.56066894531,0.65002441406,0.0002771969772386324,0.016625567233211104,-0.1316406943543466,-0.16247558593,-0.08557128906,0.0003273831184573715,0.018068011865723793,1.0071919579368183,0.95784520938,1.02848920313,0.0003694212807900862,0.019193014054991842,lift down
-0.7985434051399183,-0.84155273437,-0.7578125,0.00029028599719861236,0.017014553393462833,0.6214213774019891,0.55212402343,0.67810058593,0.0005044303360292314,0.022428906938341205,-0.12948467036043598,-0.24975585937,-0.08203125,0.0012201265757744257,0.03488268883271627,1.0210642860856678,1.00656543135,1.03368402549,3.9562397332997814e-05,0.006281289508152285,lift down
-0.8027701542258046,-0.84619140625,-0.76159667968,0.00038006240865405436,0.019467158891216075,0.6358877598517528,0.56848144531,0.69787597656,0.000658329097465628,0.025621033296601335,-0.12875155744448274,-0.1787109375,-0.05456542968,0.0006529664850242132,0.025516468104931876,1.0327619739139942,0.97756129495,1.09033041175,0.00046065391396235485,0.021431990010700938,lift down
-0.7716047776810656,-0.78674316406,-0.75854492187,2.0437164330007644e-05,0.004514568094868472,0.6488704160225409,0.63586425781,0.66552734375,3.8102094044867755e-05,0.006164250965265606,-0.16675905321073772,-0.17846679687,-0.15124511718,3.3864339111213515e-05,0.0058113521313474205,1.021899967985164,1.01154307456,1.04195392541,2.8014663698580655e-05,0.005285652362915102,lift down
-0.8777239830044608,-1.09729003906,-0.55102539062,0.00905255145477189,0.0950061007329429,0.4827766974495626,0.15808105468,0.73950195312,0.018893173869224063,0.1372519279633756,-0.06164123713072886,-0.45263671875,0.19860839843,0.01592569896542397,0.12601296900000145,1.0203472861359766,0.59589065351,1.25071387767,0.009936275728151598,0.09953545596545124,Null
-0.9006417505709808,-1.13049316406,-0.69641113281,0.0062388456013222635,0.07887867913465024,0.45174264517659396,0.21154785156,0.73059082031,0.012181532122886451,0.11021950797052901,-0.006971977711171657,-0.37524414062,0.28845214843,0.014939963621077447,0.1220625055999429,1.0215892192783649,0.84956286072,1.22870401657,0.00491388643945764,0.0700035506464518,Null
-0.8787614445251288,-1.09448242187,-0.70690917968,0.006891231636750739,0.08289442675694048,0.5143931041774498,0.24926757812,0.90686035156,0.014754309782128085,0.12129317302662576,-0.021687592339627516,-0.43029785156,0.17272949218,0.012081622981466417,0.1097588499874792,1.0310876635902007,0.77859320935,1.30213807626,0.007803407960086262,0.08821025238007811,Null
-0.8389534728126575,-0.90405273437,-0.80688476562,0.00028425322589769404,0.016836699496526348,0.5691543370039177,0.43786621093,0.62512207031,0.001106160076556684,0.03321339339791214,0.12346024186271233,-0.11328125,0.21472167968,0.0027848827040136987,0.05269964789622663,1.0232992764954247,0.97998507602,1.05878616357,8.257675065208433e-05,0.00907471834158311,Null
-0.8404942053497694,-0.89733886718,-0.79357910156,0.0005546432934995231,0.023516906638438292,0.5859005622935446,0.50830078125,0.62731933593,0.00033376892297297053,0.018243000106285906,0.14149286011403459,0.10900878906,0.185546875,0.00036602315867729455,0.019104144495223095,1.0346722698069741,0.97845154969,1.08761989162,0.0004355772344718038,0.0208403927186224,lift up
-0.819818564262779,-0.85656738281,-0.76818847656,0.0003990095419063415,0.01994799043628471,0.5777614499919619,0.52990722656,0.6162109375,0.00029316258828607266,0.01709864848880179,0.1391880960452861,0.01867675781,0.20788574218,0.002334235013059386,0.04824805384336557,1.0138775439402452,0.96170761294,1.04620693725,0.00035555299506322266,0.01883040588549193,lift up
-0.8121501104375208,-0.83923339843,-0.76806640625,0.00020178210062024736,0.014185204739008896,0.5998725572305013,0.56994628906,0.62036132812,9.328523430899591e-05,0.009644966918536696,0.1491301385106685,0.11169433593,0.20239257812,0.0006306964287780332,0.025078668509575863,1.0210565767142061,0.99821034117,1.03371944398,4.145266537165436e-05,0.006429401086974815,lift up
-0.859473994003315,-1.06945800781,-0.67346191406,0.008255753705257097,0.09073662547149867,0.5187697319095342,0.20739746093,0.77880859375,0.018560756459016326,0.1360511119817011,0.03601943760580822,-0.51184082031,0.22680664062,0.028377394350626608,0.16822499239035346,1.027489092655233,0.7106353411,1.30342663583,0.008446976213977232,0.09178144591033087,Null
-0.8725668696994633,-1.26684570312,-0.43127441406,0.017795928408253635,0.13321282755068872,0.48944815942406783,0.11279296875,0.80676269531,0.02376574291598244,0.1539435222703058,0.030929996468983055,-0.49328613281,0.50598144531,0.032990988154112395,0.18137748832840617,1.0293291032316383,0.51562851124,1.37347349048,0.01676010846904784,0.12927785398075628,Null
-0.8904364991547513,-1.83642578125,-0.306640625,0.07873933548862178,0.2802174575434833,-0.06399114619146408,-0.45153808593,0.62231445312,0.07090245055837856,0.265907103017744,-0.4122803408760497,-0.88146972656,0.23510742187,0.04908522414190044,0.2212456318214486,1.054334301902514,0.50947985184,1.94646285028,0.053652537099257644,0.23131002068826734,stairs down
-1.1699834288648159,-2.11169433593,-0.23974609375,0.1699479073390939,0.4116630521532203,0.1842749922519547,-0.3623046875,0.59521484375,0.043218687427605214,0.20759637493298716,-0.0026734435858923543,-0.78295898437,0.54333496093,0.03853930437691426,0.19603603719026497,1.2216994765050708,0.35107814484,2.12781862946,0.16172703450470968,0.4015829730769465,stairs down
-0.718173124781385,-2.03063964843,1.0830078125,0.6707145372099304,0.8178365375818133,0.3221002721357895,-0.06579589843,1.18078613281,0.043599566842564705,0.20851568866437387,-0.08832209790418281,-0.68542480468,0.41284179687,0.044816190161225594,0.21140493274789468,1.1181104806616897,0.33896061821,2.08583644736,0.13475363923675096,0.36657926899608195,stairs down
-1.0275435014166192,-1.93896484375,-0.14624023437,0.15318447281239572,0.3908315361520829,0.25220385464474426,-0.1806640625,0.88452148437,0.03867396797038549,0.19637743949648823,-0.06832365556065341,-0.453125,0.26879882812,0.022675981499715798,0.15037141050654532,1.0943077016961646,0.42185318855,2.02802023139,0.1409365449217,0.37488152396455954,stairs down
-1.15865970843,-1.91027832031,-0.42065429687,0.14382736230467177,0.3787215984719303,0.22909360432273476,-0.28527832031,0.83337402343,0.0621964411603335,0.249047440836003,0.08908502568035913,-0.27258300781,0.55102539062,0.027140900252040186,0.16451724951951235,1.2228641709295855,0.49125677239,1.97307746091,0.1404240748737226,0.3742140604850106,stairs down
-1.0645280084652942,-2.20727539062,-0.37915039062,0.11657018100031452,0.3409452358996479,0.21752929687179273,-0.30749511718,0.78149414062,0.04216778981475056,0.20506016862483542,-0.018120773699747905,-0.5546875,0.36828613281,0.030457038397399615,0.17427485350547187,1.121811986022661,0.48500629017,2.27984923964,0.11138215228621058,0.33327189719788775,stairs down
-0.9912347308618927,-2.28601074218,-0.7109375,0.05506007569853822,0.234317175558124,0.3707502979306214,-0.11572265625,1.99780273437,0.059008714568999185,0.2425737481363265,-0.16574010471610168,-1.19946289062,0.43627929687,0.04929908078303973,0.22172013404960464,1.1055781726238416,0.71369850681,3.26431801527,0.08826586103111479,0.29667578674477535,Null
-1.0018167335862291,-1.92126464843,-0.33203125,0.08016164367401638,0.28273260948858203,0.36197121049754183,-0.14697265625,0.73583984375,0.02596876577244604,0.16092304782276434,-0.09265136718536311,-0.41540527343,0.47106933593,0.0435935991808283,0.208498991246275,1.1050708914501397,0.46194765964,2.00496187346,0.07114973295448714,0.26636627167054117,Null
-1.125305342996493,-1.451171875,-0.81665039062,0.026519362467051572,0.16262443444781172,0.22732100812997263,-0.18737792968,0.57202148437,0.0196554714558766,0.1400057886272856,0.08792340003989042,-0.18933105468,0.24096679687,0.008299182063991193,0.09097496677044936,1.162761599615945,0.84461077298,1.51104696758,0.02810471377011014,0.16741479789523273,stairs up
-1.1513789783788637,-1.51904296875,-0.68933105468,0.03040575958697503,0.17412460936969362,0.2174363569741193,0.01977539062,0.48510742187,0.014697024708329945,0.1210589600039036,0.09980427134883522,-0.21960449218,0.357421875,0.016259831186053293,0.1273327863663565,1.189030748227642,0.7227735785,1.5777359379,0.03039352865642255,0.17408958442295655,stairs up
-1.1631724311673262,-1.65148925781,-0.73840332031,0.05950623292185636,0.24361265432485027,0.2373321043584492,-0.083984375,0.54443359375,0.02792195009492719,0.16687508044747879,0.03481974066197862,-0.19372558593,0.4091796875,0.01524317211989672,0.12329807368807963,1.2055390437125668,0.73897734629,1.73312719237,0.06104634563781881,0.24674505084139586,stairs up
-0.9990325315593981,-1.52294921875,-0.05346679687,0.10763630245551054,0.3276093542337062,0.31645766643100287,-0.01147460937,1.11499023437,0.051596462515759674,0.22682288607843862,0.06380814604100286,-0.23962402343,0.28747558593,0.010401795346502317,0.10184297116300614,1.1059265263245845,0.59204839013,1.56283468476,0.048496912671457816,0.21990441795538362,stairs up
-1.1450487219731793,-1.50769042968,-0.79577636718,0.02056891403967581,0.14322367210599132,0.232942995815,-0.33093261718,0.75573730468,0.03448731049671096,0.18545510232683501,0.0931432972758152,-0.46105957031,0.48254394531,0.029340808278402093,0.17105869700522047,1.1982816753121739,0.80675392186,1.57677688237,0.022424344199319005,0.149544001823497,stairs up
-1.1559462436373256,-1.64147949218,-0.55041503906,0.06301524426921777,0.25066324106178384,0.21671703249575583,-0.06030273437,0.60266113281,0.02286223167180292,0.15098268674259574,0.025355494298982553,-0.32055664062,0.287109375,0.01792342906512074,0.13368367915962054,1.193219853769186,0.57760000878,1.6464630388,0.06373169676387179,0.25208417285405227,stairs up
-1.200003440460271,-1.62463378906,-0.791015625,0.023212359827184365,0.1521494452930784,0.2500082703434146,-0.09936523437,0.67150878906,0.0251620320078943,0.15841036020177157,0.14171569327723574,-0.3056640625,0.44763183593,0.017408526722274702,0.13176247243840541,1.2489645883118972,0.80158830307,1.58926284918,0.026471402289121124,0.16247973434104154,stairs up
-1.1863988759531194,-1.68041992187,-0.77087402343,0.055330453423387486,0.23488111918181215,0.23993008894107873,-0.09655761718,0.56298828125,0.027969317117655962,0.16699632905864192,0.07748653311586007,-0.23461914062,0.36938476562,0.018708461679524117,0.13657934711905456,1.2320179040463557,0.77897566674,1.71642080187,0.05511630843703864,0.23442614933312808,stairs up
-1.1726803986885057,-1.65417480468,-0.74792480468,0.04587527023344597,0.2138939203741635,0.26555832572233695,-0.01611328125,0.572265625,0.02211600490156511,0.14851231283014443,0.11358974290695652,-0.13549804687,0.42456054687,0.021589970625758955,0.14673548387257732,1.2247698443247554,0.75066967709,1.7053315716,0.04801028113753291,0.21881457542186372,stairs up
-1.1707472160643582,-1.60290527343,-0.76049804687,0.033992006165444476,0.18409382795282342,0.2407365030289254,-0.09533691406,0.66955566406,0.029876836923966494,0.17259099726270127,0.13244264517011942,-0.20751953125,0.32238769531,0.010566675096141575,0.10264079492298249,1.2180310627748658,0.79014702661,1.62120231356,0.036223291637008014,0.190039896885472,stairs up
-1.010936375229973,-1.88916015625,0.21545410156,0.25267501876657134,0.5019863171622833,0.2865747798075068,-0.79370117187,0.98852539062,0.09774681961653152,0.3122209523501032,0.09988990514715447,-0.72766113281,0.66320800781,0.06458524765107829,0.25379168599397844,1.1969020005533062,0.5377794698,1.92588974142,0.09566270752008958,0.3088745036260275,stairs up
-0.39940980423218025,-1.58508300781,0.29040527343,0.333764432884261,0.5768831661955738,0.6564072010094767,-0.45727539062,1.28100585937,0.14298462070545565,0.37758306071418063,0.2180704516010756,-0.38830566406,0.71228027343,0.057989676407315546,0.2404601874876517,1.0562179378638372,0.57286663848,1.7173622511,0.05570317964232017,0.23567191558291947,stairs up
-1.162981989667563,-1.62170410156,-0.5625,0.025082447100598034,0.15815242061104906,0.24891777999918765,-0.00842285156,0.54675292968,0.020528266082731367,0.14307607744427914,0.05905433462319329,-0.37268066406,0.3193359375,0.016458842970646325,0.12811221553406948,1.2056168531137255,0.56859782876,1.63198793845,0.02633548091466123,0.1620546576330299,stairs up
-1.20060952861309,-1.66918945312,-0.75378417968,0.054810459972384554,0.23378729222558267,0.2554424157269382,-0.12072753906,0.53601074218,0.027987459866954282,0.16705940083291884,0.08566969967856741,-0.16931152343,0.46081542968,0.018322025286026014,0.135168631430754,1.2489231163139045,0.7983279166,1.71324111066,0.05523547108082342,0.2346919582413949,stairs up
-1.1739091632715686,-1.66101074218,-0.72839355468,0.03687641123626122,0.19176317677461402,0.2449513496767227,-0.08752441406,0.49133300781,0.019502645802349082,0.13945614558849145,0.12354780779280113,-0.16125488281,0.52453613281,0.022806363709722725,0.150806101792954,1.2220973191555462,0.74169008752,1.69977243983,0.03887860715068249,0.1969002374025892,stairs up
-1.1379298789787955,-2.07250976562,-0.45227050781,0.1091303858779534,0.3298858871224305,0.20627933790383754,-0.83215332031,0.65881347656,0.040656777742883426,0.20135265881381045,0.06365710346535014,-1.2958984375,0.50830078125,0.06421421656914479,0.2530500836080659,1.1991595559397479,0.46133526918,2.58207835617,0.11723448540173192,0.34191533672451924,Null
-0.8866834775539376,-1.18347167968,-0.64978027343,0.010499890407958916,0.10232372977919169,0.4402090618327479,0.12670898437,0.71020507812,0.010728991374576025,0.10343402550082478,-0.17128297627116149,-0.40625,0.10205078125,0.013581816489657162,0.11637586128075102,1.0189978743571673,0.68645491061,1.27380300904,0.005701032132803611,0.07539815581387106,Null
-0.8569427745217828,-1.12243652343,-0.64770507812,0.010838384941750398,0.10396246656581148,0.47677807820777157,0.16784667968,0.73315429687,0.01739220622314633,0.1316957097488652,-0.18304800389206127,-0.41552734375,0.09680175781,0.01291422468652494,0.11348238592755436,1.0152753926724234,0.76467199764,1.18353325465,0.005530589891555021,0.07426428716874355,Null
