avg_accX,min_accX,max_accX,var_accX,std_accX,avg_accY,min_accY,max_accY,var_accY,std_accY,avg_accZ,min_accZ,max_accZ,var_accZ,std_accZ,avg_magnitude,min_magnitude,max_magnitude,var_magnitude,std_magnitude,Label
-0.8744272324229772,-0.8974609375,-0.85534667968,4.7851116136386715e-05,0.0069086436853520086,0.4748656294692112,0.44140625,0.51477050781,0.00015399654945942264,0.012393736350796833,0.21173142294486003,0.17761230468,0.23461914062,0.00013807812227090429,0.011735705281248843,1.0174681588945294,0.98941090821,1.03738352282,4.827562920677453e-05,0.006939221170679909,Null
-0.8721105956994001,-0.96923828125,-0.78967285156,0.0015167945174785048,0.03889733321430672,0.4895825195275,0.33544921875,0.62866210937,0.004125384824289083,0.06414882198628717,0.1818676757777,-0.01794433593,0.33068847656,0.00536277450118515,0.07313937082674547,1.0215102114329,0.91939633334,1.10670480269,0.0008402159889489385,0.028950223642945597,Null
-0.7513879394490999,-1.63122558593,0.03686523437,0.11836079985061818,0.3436057302359663,0.5690734863244,0.18615722656,1.21350097656,0.043267980068608325,0.20774939258259412,0.03213500976430001,-0.78283691406,0.72900390625,0.08671040593801531,0.2940979937421714,1.0502757347155,0.44138877969,1.76171112904,0.034185810729723376,0.18466279052071932,Null
-0.8942140521389143,-1.0068359375,-0.80139160156,0.0008948848654759616,0.029876831411808184,0.4510010998621717,0.38610839843,0.6064453125,0.000996071664581777,0.03152072860984434,0.17990697995164143,0.11450195312,0.23205566406,0.0003364236233486213,0.018318680868015733,1.018357864071389,0.95240925664,1.10393072102,0.0007582299794217037,0.02750118646988611,Null
-0.9127653840259999,-0.9775390625,-0.84252929687,0.0006109037646018113,0.02468434729898426,0.4461489194366753,0.39379882812,0.47998046875,0.0003561688183832167,0.01884790981963874,0.17512841162389609,0.08911132812,0.2177734375,0.00046934472090076856,0.021636211399032497,1.0312525321208312,0.95809097006,1.10931750941,0.0008124768239124509,0.028466936865417944,lift up
-0.8969104756583646,-0.93371582031,-0.85754394531,0.0003002458689508137,0.01730436130692173,0.4414949391508579,0.40283203125,0.48608398437,0.00020788714558809342,0.014398951607536162,0.18200650866723858,0.15502929687,0.21020507812,9.641872447449329e-05,0.00980613222604179,1.016283068635228,0.98682918851,1.05556783316,0.00026491743635736564,0.016254451757704378,lift up
-0.9044357594015151,-0.95080566406,-0.86242675781,0.00033070176318557656,0.01816014149296666,0.43410187187523414,0.40161132812,0.46740722656,0.00016681814598610014,0.012898007282713337,0.18394482825074382,0.15576171875,0.20812988281,0.00012604865174364156,0.011211664028090703,1.0200654207480166,0.97681128575,1.06913381956,0.0003735952139734109,0.0193019694864573,lift up
-0.8437744830248869,-1.24548339843,-0.26293945312,0.02801041346255467,0.16712656282229954,0.5621320649014123,0.34155273437,1.08557128906,0.02894782348542095,0.16990011763606955,0.1617269569842938,-0.33764648437,0.45397949218,0.02369497175035107,0.1537141398892885,1.0549397132626555,0.5708052453,1.48866922723,0.02169229904979139,0.14707488354188752,lift up
-0.8915133614038149,-0.92224121093,-0.84252929687,0.00019013567955700477,0.013769028813666557,0.4351760776015607,0.40063476562,0.45922851562,0.0001205846240351003,0.01096522291433286,0.2116028890403468,0.18981933593,0.23583984375,9.784826613841849e-05,0.009877523357672764,1.014453214307948,0.95305634079,1.04512156779,0.00024318008630663915,0.015571681145183258,lift up
-0.8884122047155326,-1.26782226562,-0.60119628906,0.008297726712121388,0.09095700756295481,0.44475776626819524,0.20874023437,0.78234863281,0.008973789932912316,0.09458985283081155,0.20840616620822486,-0.09509277343,0.36926269531,0.009287868548998683,0.09623091835769906,1.0230188160120415,0.65877224233,1.49016308895,0.010463111427586031,0.10213792379237421,Null
-0.29383155657272453,-1.44677734375,0.96716308593,0.414786708485301,0.6430416309300554,0.4295484229847058,-0.13171386718,0.86181640625,0.04855954391257715,0.22002091893121659,-0.2898678617210216,-1.19165039062,0.43566894531,0.21712334850300624,0.465243097738923,0.9801408517532817,0.19621381693,1.67225496484,0.07278434169869316,0.26936778422725716,stairs down 
-0.9079732323255205,-1.89892578125,-0.14001464843,0.14003841016341395,0.37362634893320507,0.45743019272107255,-0.02172851562,1.27416992187,0.07568741213507565,0.27467917755556037,-0.015733977596529967,-0.82373046875,0.90185546875,0.08090120800723666,0.28398239232242845,1.0986009372173817,0.2230977817,2.35175985794,0.1228367570790784,0.34992750595327243,stairs down 
-0.8481893031165202,-1.25158691406,-0.50073242187,0.02064479147539741,0.14345756954842429,0.5739149135444513,0.30456542968,0.93005371093,0.021959401513177722,0.14795459865756153,0.18611704667576803,-0.09680175781,0.44580078125,0.018004134598742203,0.13396900874952095,1.0568008268645142,0.67920667807,1.53162163486,0.027118332590883986,0.16441813204111833,stairs down 
-0.8561273076695859,-1.54968261718,-0.17712402343,0.06767479199535964,0.25972921895714346,0.5064432909499681,-0.52551269531,1.0126953125,0.059975405435834864,0.24450848852325058,0.09500297011757962,-0.29467773437,0.48669433593,0.037126061874096346,0.19237418228092684,1.056153775190637,0.60671703498,1.58697627018,0.047406010070369535,0.21738223367148773,stairs down 
-0.7942498957033333,-1.30187988281,-0.35522460937,0.040728909398676544,0.20148722200277625,0.5853192474433333,0.17822265625,1.04736328125,0.028970719675630287,0.16993223149619233,0.047672210001423944,-0.87414550781,0.36352539062,0.027280552672678815,0.16490077651257462,1.0081050092499677,0.40374816294,1.53745736008,0.05845892686605051,0.2413912579205481,stairs down 
-0.8756282927289913,-1.49169921875,-0.47729492187,0.041763907804774306,0.20406751510655347,0.5204462496583285,0.10974121093,1.35034179687,0.03148774762825702,0.17719199993143867,0.13785150621181558,-0.138671875,0.50695800781,0.016805003052537452,0.1294471847856408,1.0464863431453026,0.63800174658,1.71821833103,0.050592810594177126,0.22460411836668862,stairs down 
-0.8999270283250416,-1.2392578125,-0.56689453125,0.021490673482397325,0.14639379266527164,0.4719187559475347,0.10400390625,0.99377441406,0.025678467434973918,0.16002292318988046,0.1683210969934903,-0.19323730468,0.40283203125,0.02069625201842422,0.14366252705706886,1.0471474181163711,0.6590316154,1.57532344611,0.03215672190091459,0.1790744122116426,stairs down 
-0.8369175702636206,-1.35571289062,-0.482421875,0.03580143471054974,0.18894061772048878,0.5598803991522701,0.240234375,1.14501953125,0.023931995095985304,0.15447726368347794,0.10540736406574712,-0.23767089843,0.51049804687,0.02186706872494671,0.14766256235269887,1.0291511210371553,0.67088466669,1.70923533749,0.04735786339382252,0.21730572376141513,stairs down 
-0.5095904221523416,-1.51428222656,1.13684082031,0.3442631599803805,0.5859306926758087,0.6393420847287603,0.14770507812,1.14904785156,0.04555381351738852,0.21313920549295257,0.14254920475782368,-0.18481445312,0.62145996093,0.025834104946230528,0.16050836929283568,1.0146770760936088,0.6018355852,1.90620580997,0.07390102492384575,0.27147272576291426,stairs down 
-0.8347568955499128,-1.35803222656,-0.45910644531,0.028469843779351932,0.16848466578764593,0.5484072663028778,0.32873535156,1.05725097656,0.01580535562059422,0.1255364879999897,0.20645283543555235,-0.10754394531,0.47033691406,0.021423666037748507,0.14615535549134545,1.0358517057711338,0.63351436827,1.52344367197,0.03280687048543483,0.18086321261075772,stairs down 
-0.8298184726740057,-1.52197265625,-0.45812988281,0.035902396717803674,0.1892173851059094,0.5501371773527348,0.23986816406,0.94409179687,0.022750496219446036,0.1506241997316722,0.1702722370267127,-0.13549804687,0.44116210937,0.020631273734164086,0.14343737750420976,1.0269649337855247,0.64334123744,1.80867233682,0.044774105987538074,0.2113064613585725,stairs down 
-0.7900264220789643,-1.26831054687,-0.45922851562,0.032470070262289465,0.17992777708195995,0.5798198993348225,0.33935546875,0.93115234375,0.021100967614030828,0.1450466777136397,0.12414334088038462,-0.08984375,0.48010253906,0.014169291320191324,0.11885861491685856,1.0016441214569525,0.70839552162,1.55343945886,0.04011207508526403,0.1999835000866453,stairs down 
-0.8235902177488563,-1.27465820312,-0.49780273437,0.025737058228593127,0.16021425843427525,0.5576178368063032,0.28735351562,0.91711425781,0.021512402136669277,0.146475896656069,0.14746321008284574,-0.15307617187,0.44860839843,0.015787406955550438,0.1254807521936898,1.0203193568037499,0.67979995849,1.54228870519,0.03288899396445522,0.18111190804534735,stairs down 
-0.7126182868438597,-1.2373046875,0.86474609375,0.1976885312598554,0.4439712767947322,0.5487885056841229,0.21350097656,0.96484375,0.026490507804606517,0.1625209222821691,0.05279005619447366,-1.0322265625,0.40209960937,0.07895076811502572,0.2805707003873693,1.0384097939777484,0.43851117377,1.59238854861,0.03583377635918954,0.1890211608136302,stairs down 
-0.8043385851248773,-1.26037597656,-0.46325683593,0.03280690437109661,0.1808798282316014,0.6052788258860218,0.27978515625,1.01293945312,0.02551722056735529,0.15952332542923026,0.11552641242092643,-0.10949707031,0.49780273437,0.01596876854631892,0.1261953125730212,1.0275084625396185,0.67150507213,1.62734849116,0.045109101579830016,0.2120994778317623,stairs down 
-0.8212931192137464,-1.53552246093,-0.416015625,0.05317779818432276,0.2302545117555048,0.6212372102725378,0.24731445312,1.15673828125,0.0367190074666707,0.1913323650336492,0.10451652780256798,-0.13513183593,0.44152832031,0.016407781154399923,0.1278992213369027,1.0486401700177341,0.65924091196,1.87936299456,0.07650673789630306,0.27618037532624845,stairs down 
-0.7321257744137025,-1.34191894531,0.05041503906,0.07734787777172329,0.2777091531708959,0.4665303132929447,-0.09204101562,1.06115722656,0.039172206942298345,0.19763097494404913,0.06422357586804672,-1.09094238281,0.44812011718,0.1607282356059015,0.4003244186491966,1.0068169435167638,0.19778121948,1.72911874626,0.020603076184544055,0.14332832555722577,Null
-0.3885930093473876,-1.49267578125,0.24157714843,0.24245252967487968,0.4917026370106313,0.4663291673941854,0.05700683593,1.99780273437,0.1368347842042753,0.3693919555606415,-0.423931336133764,-1.01342773437,0.44165039062,0.28753820936540675,0.5354722380908891,1.0717130491091293,0.60232684882,2.45706204939,0.06475063906264707,0.2541038276867457,Null
-0.8014060031120225,-1.29296875,-0.30236816406,0.020827554441079237,0.14411471151368174,0.5620850980909831,0.17565917968,0.83837890625,0.017275232133746744,0.13125054743042705,0.24269052569477526,-0.22119140625,0.47827148437,0.017118253665853175,0.13065285562759707,1.0259792276008988,0.35278476595,1.35687769129,0.019577472976885262,0.13972286883422055,Null
-0.8961936007687078,-0.98522949218,-0.83081054687,0.0007045072587588414,0.026505250532390744,0.4275913881412641,0.26586914062,0.62255859375,0.002047973558448876,0.045190937407118825,0.21421762530297755,0.095703125,0.44348144531,0.0019907862391455567,0.04455551753675611,1.017802955005028,0.94056585797,1.11541614287,0.0006955982476003886,0.02633712816422075,Null
-0.8885396883593372,-1.07165527343,-0.78784179687,0.0028191677550516592,0.05302244806515666,0.40739415626773484,0.16772460937,0.48840332031,0.004250581436805226,0.06510637064938035,0.19813023350792822,-0.05419921875,0.30676269531,0.00376638099390138,0.061286023092666994,1.0020500534229004,0.89723474186,1.10091311339,0.0014342142595237721,0.03781867715401722,lift up
-0.916831886372033,-1.16333007812,-0.71569824218,0.0038197357586168693,0.061719056854914994,0.3857656625563462,0.2041015625,0.61340332031,0.004624293056524667,0.06790868099676968,0.20818253401546707,-0.03881835937,0.369140625,0.007654223366485307,0.08736815941928526,1.0216162161424176,0.76418357545,1.31534512141,0.005104177341099343,0.07134532133137073,Null
-0.9123000896218832,-1.16687011718,-0.78247070312,0.003174661194424318,0.05626935526954007,0.3765493539622281,0.12377929687,0.61694335937,0.00764830126356357,0.08733850234751815,0.23299045714145888,-0.07385253906,0.31286621093,0.006995126004853407,0.08352587200362054,1.022186056636976,0.87247751432,1.17573865388,0.0012752966096336016,0.03566390135705748,Null
-0.6755652533607779,-1.24621582031,0.77563476562,0.22442267871755553,0.47307428844504384,0.5180172390364166,0.24133300781,1.51879882812,0.06807338280745848,0.2605461380973392,0.07581685383919444,-0.68859863281,0.365234375,0.0782928669328234,0.27941973220747834,1.0360754769354446,0.63326822754,1.62483013622,0.026628625136456464,0.1629559963097389,Null
-0.9319749199757144,-1.07604980468,-0.78527832031,0.0006647936250135611,0.02574881994286694,0.41041355184110506,0.34326171875,0.54797363281,0.0007037632242701495,0.02649275916841571,0.08149723350867925,-0.09948730468,0.38256835937,0.003998450851223993,0.06314802732998183,1.0236823314920485,0.95829735132,1.21070094105,0.001088293037448184,0.032944796752060516,Null
-0.926522852647326,-0.98107910156,-0.89086914062,0.00048554297307084514,0.022004328794141294,0.40012914290626733,0.37634277343,0.4326171875,0.00021850836989948028,0.014761426471974313,0.06531679795977716,0.04357910156,0.0810546875,5.575410853360498e-05,0.0074564605953570924,1.0114253315997213,0.97304445202,1.07292414943,0.0005923491732305604,0.024304303642226396,lift up
-0.8786415357230898,-1.06396484375,-0.73474121093,0.005012796625651723,0.07070159641941492,0.4463603844764045,0.20349121093,0.6455078125,0.00855335998167596,0.09235439182622882,0.18804691614410113,-0.13232421875,0.40087890625,0.017841061607861166,0.13338270602392968,1.0164239010066292,0.81761952644,1.227579321,0.004825186850527983,0.0693659351186188,Null
-0.890251370421022,-1.54675292968,-0.080078125,0.04180436924646516,0.2041785678357645,0.4741258146974033,-0.32458496093,1.76635742187,0.054058625321964204,0.23218374642261838,0.21806310158107736,-0.34155273437,0.74035644531,0.02669878467621649,0.16317178410309535,1.0644346485452487,0.53886882785,2.3969871721,0.05424624825680467,0.2325863210558246,Null
-0.641852903898764,-1.32421875,0.5283203125,0.1924648592893285,0.43809157451623204,0.46240062927581455,-0.78039550781,0.88720703125,0.06739460586302676,0.25923984102062764,0.01203729865171349,-0.92822265625,0.70495605468,0.0936068346251118,0.305522329917818,0.9648165748744664,0.2738945275,1.50094450083,0.04794751990895572,0.21866146405863937,stairs down 
-0.8844748507688202,-1.39440917968,-0.49731445312,0.04904065997032006,0.2211400129046801,0.5126507362581741,0.2578125,0.95581054687,0.02559132636974155,0.159748053576599,0.05953842334497191,-0.16003417968,0.36218261718,0.012897459918764188,0.11340736792099383,1.034284245072809,0.63928930086,1.72723940702,0.06637749393970609,0.25727619459453294,stairs down 
-0.8972892229892757,-1.45959472656,-0.58447265625,0.034499008505052484,0.18548021724250088,0.44571645412197763,0.15307617187,0.84460449218,0.01941797381500428,0.13915417619120432,0.141762056055961,-0.10546875,0.49304199218,0.017259964372744,0.13119407943026737,1.0273072657250417,0.67809144433,1.67330502912,0.037959748569623204,0.19456107295249603,stairs down 
-0.9150557558721366,-1.09204101562,-0.80639648437,0.001829759113967936,0.04271470619165316,0.38656885739056973,0.1669921875,0.58483886718,0.00688193669343256,0.08283918176917437,0.2007761028725356,-0.01477050781,0.36437988281,0.010001997795055487,0.09986742249022777,1.0221850952341311,0.92143999763,1.13622295408,0.0008740608634869705,0.029522375608963012,Null
-0.9112181304564785,-1.16137695312,-0.77453613281,0.007280258006099435,0.0852096674096404,0.38745379703892474,0.06701660156,0.59497070312,0.011716378419057668,0.10809663629431872,0.1932514149617742,-0.14916992187,0.44958496093,0.016195901482192722,0.12709195140769905,1.0228182407802957,0.83801924778,1.28754414811,0.0068625444474205675,0.08272905624563291,Null
-0.7143511603825882,-1.81652832031,-0.24621582031,0.1081519909127695,0.32838071932110996,0.5643109489852941,0.14196777343,0.97607421875,0.06912123738383084,0.26252226501159776,0.01118307674570589,-0.48059082031,0.50903320312,0.07542048665947261,0.27422374386385556,1.030232112728941,0.64492472573,2.00034669761,0.019499131125453557,0.1394337862205228,Null
-0.9148184096551218,-0.94165039062,-0.88330078125,0.00011353750828816565,0.01064095007806199,0.38008560138951214,0.34753417968,0.42102050781,0.00011989711806969689,0.010934907115768456,0.22293380282056913,0.19677734375,0.24389648437,8.625720809360257e-05,0.009274882679693322,1.0154996507994851,0.98620515566,1.04632259854,0.0001369232203034547,0.011685553246028874,Null
-0.9289397748463264,-0.97705078125,-0.90087890625,0.0003669436044584221,0.019127827844045167,0.38998510955329435,0.37231445312,0.41271972656,6.947439471207216e-05,0.008322970951310106,0.21729049459723035,0.19567871093,0.24084472656,9.098755093507947e-05,0.009524824465956337,1.030682472900379,1.00023187243,1.08465913271,0.0004534800882820279,0.021264006887209228,lift up
-0.916377744191257,-0.94750976562,-0.89453125,8.85669756699328e-05,0.009397849854256306,0.3869441368024581,0.36828613281,0.40808105468,6.38067951993253e-05,0.007976751464588752,0.210918405198743,0.1943359375,0.23388671875,6.751491743933188e-05,0.00820526223130458,1.0168890444469274,0.992520802,1.0509483318,0.0001167806689870978,0.010791407044547079,lift up
-0.9061030897945348,-0.94470214843,-0.86083984375,0.00046080106531069635,0.02143505370485789,0.37981042196258724,0.36279296875,0.40112304687,7.552364752658094e-05,0.008677793615867173,0.20795280988456397,0.18933105468,0.23046875,7.71976229653856e-05,0.008773437825089934,1.0043184237961629,0.95565801696,1.04329152059,0.0004807771782675323,0.02189473841339908,lift up
-0.9219572945891854,-1.22119140625,-0.72973632812,0.005729426976829832,0.07558659326115644,0.35974704013404496,0.037109375,0.61120605468,0.007582980066378155,0.08695791833164891,0.23039228460376404,-0.12072753906,0.42065429687,0.008895802300961375,0.09418499929527424,1.0237179336893818,0.79904599005,1.32583803854,0.006669945516287048,0.08155494904832573,Null
-0.8838235013272067,-1.38159179687,-0.29577636718,0.0369452255822914,0.19194276914786587,0.4013279749656144,0.04956054687,1.07751464843,0.036272375859899474,0.19018689853472373,0.22024007615801677,-0.19250488281,0.50048828125,0.019588108018408323,0.13976191409995087,1.0333665409456145,0.63543302223,1.42352102183,0.015457059970391438,0.1241526633835245,Null
-0.9253905597185561,-0.98278808593,-0.86450195312,0.0007356029716919409,0.02708571798617224,0.3506202085732085,0.27331542968,0.41882324218,0.0005989231916901952,0.024440167609530272,0.22872614732697863,0.06091308593,0.35290527343,0.001578948558232512,0.03968282715033866,1.0166903726034224,0.96889893094,1.07954116773,0.0006961626503049047,0.02634959682507868,Null
-0.8769806571588316,-1.21215820312,0.31457519531,0.056842285713840084,0.23809204728617467,0.4106571363330435,-0.00854492187,1.51647949218,0.05105483654049914,0.22564596289683334,0.16412353515377714,-0.48071289062,0.37670898437,0.02739817066408757,0.16529887813705796,1.0287049385333695,0.31712384736,1.83622379911,0.041629146999630204,0.2037548142193602,lift down 
-0.5756384347880058,-1.375,0.48974609375,0.24925155279413538,0.49852900876854467,0.5553341904090173,0.18469238281,1.42834472656,0.08926474056123399,0.29833999058385924,0.24918325787789017,-0.51965332031,1.17822265625,0.0987849946421275,0.3138462822422242,1.0523163418466186,0.55828418023,1.5165493054,0.03088937359599097,0.1754995668078978,lift down 
-0.7532975660616668,-1.50903320312,0.38061523437,0.1372506346158986,0.3699670699967436,0.461127943025519,-0.53820800781,1.5224609375,0.09852458737355647,0.3134571653541837,0.2868182072838525,-0.65710449218,1.50939941406,0.11867288370053211,0.34401837283623576,1.0626987005695627,0.47364879463,2.62170843259,0.08674904620560338,0.29412926912103715,Null
-0.9018799548265781,-1.09533691406,-0.74475097656,0.002642582346356449,0.05133017746117877,0.36308968242601763,0.16967773437,0.47778320312,0.0027598340624393133,0.05245658165578738,0.2944804053703835,0.08129882812,0.43395996093,0.005269497815743679,0.07248416085186682,1.01951332123,0.83215293531,1.27136186516,0.0031826895012781213,0.05633206046890688,Null
-0.866219419723444,-1.22387695312,-0.64904785156,0.016230175413856643,0.12720511645086063,0.3908783604336556,0.07177734375,0.60803222656,0.011293840187610446,0.10611182697751406,0.2505572454422356,-0.29895019531,0.60205078125,0.03959123471199066,0.1986746680656285,1.006543955531994,0.71852022105,1.32326662385,0.01869980033260381,0.13654049021279593,stairs up
-0.8760576145586827,-1.21325683593,-0.65161132812,0.022762792892715933,0.15067051001851986,0.42888518302284945,0.13049316406,0.92199707031,0.023942890234933744,0.15452678611417284,0.17959266580349464,-0.4150390625,0.55590820312,0.052391755229532405,0.22858459523301242,1.0263183977935213,0.71660384819,1.5463089437,0.029994290647006205,0.17295566146685973,stairs up
-0.8791768809532551,-1.18884277343,-0.68444824218,0.013990406338768925,0.11810748813770343,0.4162053530479472,0.16040039062,0.69006347656,0.0127575327476407,0.11278351221763823,0.22821635584451613,-0.28466796875,0.55187988281,0.03884848033819171,0.19681096304807214,1.0222012964095895,0.78256805814,1.30402174541,0.018825359494287198,0.1370042085538228,stairs up
-0.8774591802201923,-1.09069824218,-0.71765136718,0.007863181323872185,0.08855269153096382,0.42817738291579666,0.13122558593,0.64807128906,0.00911718479413309,0.0953527009746457,0.25488851358217035,-0.0478515625,0.47814941406,0.01581700734052424,0.12559281039794704,1.019281166001511,0.76585098746,1.26085150589,0.012044904366884823,0.10959842138585985,stairs up
-0.8961732360098276,-1.18408203125,-0.62939453125,0.013790442215701141,0.11726386701872303,0.37857406440497127,0.17724609375,0.65612792968,0.012113507094653012,0.10990313082992723,0.2558327159631897,-0.20971679687,0.58715820312,0.029385970519466086,0.17117689118407495,1.0239873195472124,0.68484350132,1.34355994477,0.01852942537027567,0.13592711243557604,stairs up
-0.8831745846132394,-1.39929199218,-0.3798828125,0.037411720132835544,0.19314847917004369,0.3578575456611267,-0.29211425781,0.9775390625,0.03763003778055688,0.1937112223752996,0.28184487785805634,-0.17517089843,0.84680175781,0.049001898607235854,0.2210517249198304,1.0338017188107886,0.45313330346,1.42965979106,0.04344547206061665,0.20814199588064464,stairs up
-0.8474960112194085,-1.19604492187,-0.63195800781,0.02037630867030674,0.1425444162979186,0.41958076584138027,0.173828125,0.77197265625,0.019432469949293443,0.139203917320324,0.27322808923594366,-0.18676757812,0.61254882812,0.03684085069777686,0.1916691776305146,1.0104440072957748,0.71547088837,1.3593680831,0.024456611700513897,0.15616568072585216,stairs up
-0.9002895893987288,-1.16284179687,-0.71862792968,0.011855511696047932,0.10872912006456181,0.36192640746005644,0.1552734375,0.61572265625,0.00843333706390218,0.09170340276045355,0.295307051660113,-0.03735351562,0.60913085937,0.02356402227501735,0.15328880337566134,1.0285061776566666,0.79341625871,1.33187641575,0.014663782463087324,0.12092294798252654,stairs up
-0.901241366419944,-1.16540527343,-0.64086914062,0.012258204202556564,0.11056203421018751,0.3697247212123743,0.10107421875,0.64465332031,0.009365364802227796,0.0966395600432352,0.2815166452042179,-0.25134277343,0.62487792968,0.025314617800880332,0.15888331120030463,1.0305931100910612,0.77092460895,1.32534142674,0.0129049548953853,0.11344120739547127,stairs up
-0.8730276729245504,-1.19311523437,-0.61889648437,0.015607499538663028,0.1247543916975434,0.367648006821264,0.14233398437,0.65246582031,0.01538510685954988,0.12386238439190396,0.2948426664512359,-0.15209960937,0.64001464843,0.02996132529544525,0.17285012082533943,1.0119493948150564,0.6740732604,1.37011611623,0.02107490686825814,0.14496795401626494,stairs up
-0.8750700007687571,-1.22082519531,-0.65881347656,0.017850357082576932,0.13341638709339843,0.3975843871342938,0.11486816406,0.77038574218,0.01674293737054011,0.129211613012492,0.26878744868624294,-0.10607910156,0.65600585937,0.030600386195647665,0.1746824101812584,1.0192474121346047,0.74081895035,1.35576077923,0.022274697149939574,0.14903615090519032,stairs up
-0.8789098889487805,-1.18444824218,-0.640625,0.013981162961993802,0.11808163968828302,0.4181166237893496,0.17565917968,0.68859863281,0.00913860695486837,0.09546643956051756,0.24922126418157178,-0.11120605468,0.50903320312,0.019432017534110523,0.13920975626722482,1.0170936537058266,0.70652951304,1.32423293969,0.017419520420725376,0.1318040706818704,stairs up
-0.8840514065886258,-1.1826171875,-0.68469238281,0.010212596883723396,0.10090954112137536,0.43614901715216364,0.18774414062,0.75244140625,0.011064427315578761,0.10503368597228711,0.24665270353283628,-0.08264160156,0.47131347656,0.014922563253872525,0.1219792196563989,1.0258293474808773,0.76339445416,1.35724967028,0.01578636852372422,0.12545999183577458,stairs up
-0.8758357635879452,-1.16784667968,-0.65405273437,0.019259176469216717,0.1385871985508682,0.4365642390800822,0.10913085937,0.84069824218,0.022859365616805443,0.1509858841675449,0.24222328499315068,-0.20861816406,0.54907226562,0.03478868533331617,0.18626157377905286,1.034020117963644,0.74602291509,1.42398160988,0.024172697689748383,0.15526258764021478,stairs up
-0.8630593360463873,-1.16333007812,-0.6552734375,0.020232799672153606,0.14203634525192171,0.44052212224153176,0.20874023437,0.91638183593,0.016902949741245725,0.12982333105164948,0.22881303908236994,-0.14672851562,0.49011230468,0.03199855776286165,0.17862272078894145,1.0181659102784104,0.74358608579,1.40910496186,0.02328253535305688,0.15236549736883567,stairs up
-0.8874947194269943,-1.177734375,-0.66809082031,0.014204675114219786,0.11901585752086583,0.4126003993994944,0.19812011718,0.71716308593,0.009398290045641222,0.09680852418305828,0.2440614164511517,-0.14013671875,0.50427246093,0.020974087845362886,0.14462078643220402,1.022345295828483,0.72680840381,1.33185078357,0.01676095559412792,0.12928214980494934,stairs up
-0.8854397548684269,-1.08349609375,-0.71020507812,0.00769129617198323,0.08757677436087256,0.41959612556702247,0.17602539062,0.7021484375,0.01004119116191797,0.10006490677938253,0.2489517726225,-0.05114746093,0.49475097656,0.017733722014049862,0.1329808564725303,1.022433261000225,0.79937375747,1.26385575715,0.012072175755819614,0.10971902820278687,stairs up
-0.9878985337768449,-1.57995605468,-0.28442382812,0.05804932511094296,0.24059469213862208,0.26964644310850705,-0.39001464843,1.31311035156,0.061008617065822605,0.24665109326026158,0.17347429302123943,-0.37756347656,0.7734375,0.03739100039398545,0.19309498603617922,1.0823476598320845,0.54011074369,1.77940625839,0.06345658317751363,0.2515508541805919,stairs up
-0.9936163398621348,-1.46826171875,-0.57043457031,0.05352640202496359,0.23103256688851403,0.24736863039530899,-0.01379394531,0.61499023437,0.015454151675635158,0.12414000619147904,0.08503157368955057,-0.27001953125,0.54040527343,0.015323168492058963,0.12361280631041106,1.0416984143463484,0.65054535958,1.57293305062,0.054780243287812176,0.233722840561048,stairs up
-0.9008302152791573,-1.36303710937,-0.54064941406,0.01172900390279179,0.10814831141823439,0.3872879542625843,0.10327148437,0.62231445312,0.009215924166806364,0.09586467931084688,0.2161189732896629,-0.39831542968,0.62939453125,0.03456196163632193,0.18564718547401185,1.0265384404745226,0.72102332303,1.49054922675,0.009791753524618951,0.09881421253538378,Null
-0.8747753764266569,-0.97277832031,-0.81945800781,0.000898089779278861,0.02992455602304412,0.4423537143403779,0.36254882812,0.5458984375,0.0013781212706437463,0.03706905858204814,0.2749176025350291,0.05163574218,0.37536621093,0.003257017859586011,0.05698727739077202,1.0205834021805813,0.93336463255,1.07651258914,0.00025975314175809045,0.01609341621333924,Null
-0.8823852539025414,-0.9013671875,-0.86669921875,5.349403355817673e-05,0.0073038524071076085,0.4241026145935912,0.39880371093,0.45153808593,9.450273600278004e-05,0.009707815342341674,0.2786278487531215,0.24462890625,0.29870605468,0.00013922763186619287,0.011783167025393913,1.018016792168011,1.00167186871,1.03110686667,2.8562842282775426e-05,0.005337034701361913,Null
-0.7340544262893313,-0.97412109375,0.46655273437,0.12168927576945149,0.3483093446224308,0.5165184507937387,0.39587402343,1.23327636718,0.03878305395789392,0.1966346163190032,0.2354235431681763,-0.19262695312,0.62451171875,0.02047915418669151,0.14288774446197633,1.0157720605357752,0.49310346174,1.33514185965,0.009689507271662881,0.09828558328554299,Null
0.1570832625641576,-0.00915527343,0.322265625,0.0053857460523875226,0.0732878630667953,0.7461030379546739,0.22802734375,1.21704101562,0.0390806594347707,0.19741950762438468,0.6074092699098641,0.20495605468,1.06945800781,0.04783756653676229,0.2184206335249354,1.0109467710500817,0.4276426905,1.40484195789,0.020386084882323713,0.14258572127858662,Null
-0.4526306331302345,-1.02368164062,0.14331054687,0.16054283065494884,0.4000900280749967,0.6686413896356597,0.34289550781,1.09655761718,0.05614990413263263,0.23661200657863996,0.4072236986767156,0.07763671875,0.67065429687,0.021958550714863728,0.14796673997215487,1.0259937633330498,0.89570268613,1.2083601195,0.00308420931177819,0.05545416764942797,Null
-0.821112922996549,-1.07690429687,0.16333007812,0.03593998728395567,0.18932069161882936,0.44312584918100545,0.24853515625,1.06433105468,0.02531852592310286,0.1589016223357097,0.3282056062082065,0.02099609375,0.7177734375,0.013439369808348338,0.11577067755565404,1.022117246224076,0.72906041165,1.37643425546,0.00809911354141667,0.08987271599716067,Null
-0.9256469355492705,-1.05993652343,-0.83679199218,0.001370517931784727,0.03696420192274387,0.31544675507790276,0.15368652343,0.44702148437,0.0041046336823823155,0.06396997414539347,0.2621944160769605,0.05432128906,0.38354492187,0.010187995710332442,0.10078208748592878,1.0196936750447416,0.95930295418,1.11590933876,0.0009179545865337274,0.03025168509376541,Null
-0.9003807274033783,-0.91223144531,-0.88232421875,1.9966892414469686e-05,0.004462390372925314,0.3502523886152432,0.32250976562,0.388671875,0.00014949226568959853,0.012210169226472093,0.3167711412544324,0.29870605468,0.34240722656,8.014070458232325e-05,0.008940028416255292,1.0168219910467566,0.99671055265,1.0352735201,2.8185914027718048e-05,0.0053018615487107155,Null
-0.8519005134057309,-2.13500976562,0.16162109375,0.08931218602215135,0.29841420756960707,0.4099649351202923,0.03295898437,1.17004394531,0.038020687541642485,0.1947036618573044,0.15368759422716374,-0.79956054687,0.67944335937,0.08113968236595225,0.28443352796869514,1.0297747928642689,0.23827974913,2.16238506664,0.06504265562637204,0.2546614859431755,Null
-0.8330523887338764,-1.31384277343,-0.45397949218,0.03198930295949169,0.1786041583135982,0.5103759765583427,0.12585449218,0.91577148437,0.02041211304533508,0.142670163836523,0.2283849823308708,-0.06762695312,0.51196289062,0.01924390118070831,0.13852741706433175,1.0202470621574156,0.68251189591,1.53871246656,0.037264293414767696,0.19276830245988458,stairs down
-0.8933619809917978,-1.70178222656,-0.15698242187,0.160129344581072,0.39959922804148396,0.345987041341264,0.01196289062,1.41870117187,0.09773189736908919,0.3121816291319696,0.13083811556210673,-0.1201171875,0.70227050781,0.03659508820924306,0.19102956058590528,1.0607037925199156,0.45491504612,1.71032235657,0.1037493753413757,0.3216487906269276,stairs down
-0.40329282213316353,-1.93542480468,0.99328613281,0.7257598190283093,0.8507726383988101,0.3794302032683914,-0.06237792968,1.50219726562,0.09952863767051044,0.3150584149990956,-0.01578045147064343,-0.66967773437,0.6669921875,0.11801174307311248,0.34306757017086775,1.064667252143512,0.39966351616,2.20465810338,0.11442305342913173,0.3378110258869936,stairs down
-1.0138008419371187,-1.38598632812,-0.77258300781,0.021309970917542484,0.14577301965584485,0.22307832361884178,0.09191894531,0.36218261718,0.004628375462418262,0.06793600632552872,0.02237197100019774,-0.09289550781,0.13610839843,0.003672924661325171,0.06051899840489429,1.042178941355,0.78440006337,1.40676925926,0.021508025379263943,0.14644885880546907,stairs down
-1.0189354542431166,-1.62377929687,-0.63415527343,0.05690137874965391,0.23821665447906779,0.2218662665107046,0.06896972656,0.43139648437,0.005622936167784856,0.07488456355209039,0.011497104716964772,-0.17138671875,0.18090820312,0.006484254363004455,0.08041568166692155,1.0488230686385636,0.65423590532,1.66269816404,0.05653120953539161,0.2374405366097786,stairs down
-1.0170394766262751,-1.64404296875,-0.65771484375,0.0715672386012143,0.26713699646491107,0.2320836457918625,0.05456542968,0.39807128906,0.005580290195527226,0.07459424123442418,0.011250405734584527,-0.19177246093,0.18054199218,0.00660012155764718,0.08112465737714622,1.049982805605215,0.66844762401,1.68935723887,0.06960191337887982,0.26344350620639984,stairs down
-1.0081847308392877,-1.48168945312,-0.59594726562,0.03129730296296017,0.1766679284065028,0.19718937285572602,-0.11315917968,0.33374023437,0.004997215083330497,0.07059407966042333,0.008380043342958903,-0.15405273437,0.15637207031,0.005504944457976329,0.07409360578596128,1.0327904900892604,0.62105696947,1.50412015508,0.030502641282783717,0.17441064303120069,stairs down
-1.0037906946719664,-1.37829589843,-0.72961425781,0.01903060128920016,0.1377575571212185,0.1369848358472753,-0.35925292968,0.30737304687,0.019979110170312734,0.14114881889101555,0.0907980243791854,-0.13134765625,0.72314453125,0.02381109851857318,0.1540915747546729,1.0393814589335675,0.76427003113,1.40587214055,0.016983120442162172,0.13013614043632044,stairs down
-0.9358725076155219,-1.458984375,-0.58581542968,0.04653421375937571,0.21542138360149862,-0.045510763650494515,-1.23376464843,0.45190429687,0.07296064351154748,0.2697409909213263,0.29141738388271976,-0.53381347656,0.79748535156,0.08711000944897215,0.29473835216374583,1.0586267134700276,0.66775414438,1.73748857662,0.048332204990687216,0.21954367266615946,stairs down
-0.8359824916258858,-1.65588378906,-0.01513671875,0.16379127860431636,0.40413277956952437,0.3634319196392286,-0.294921875,1.2255859375,0.08623472209578537,0.2932376803473791,0.2302462332563714,-0.26721191406,1.10571289062,0.07858149451118186,0.2799231608056676,1.0700635649413142,0.62580012127,1.67007305063,0.06678621584478932,0.2580608418284974,stairs down
-0.23672460130074383,-0.64013671875,0.00537109375,0.012917369838072203,0.11349795062993857,0.8288917226204683,0.52209472656,1.41418457031,0.040555722613839336,0.20110693389359355,0.5292830874403306,0.15759277343,1.03845214843,0.03320148802794417,0.18196159999735442,1.0270950009425621,0.65949902746,1.6287737136,0.054903527297284926,0.23399204668276874,stairs down
-0.4909197927850862,-1.47790527343,-0.08776855468,0.11623854176764002,0.34044753335786876,0.6749583277172988,0.10888671875,1.22131347656,0.05099998181432928,0.22550705120339148,0.5015613073554023,-0.123046875,0.97021484375,0.05733699249281839,0.23910715384558837,1.0720013643620978,0.84117934019,1.56187707881,0.022943921890301117,0.15125472250568414,stairs down
-0.6850464205290582,-1.43151855468,-0.17687988281,0.09403784748619823,0.30623088484651884,0.5803361295628255,-0.29699707031,1.22900390625,0.10829157888654031,0.3286207574297832,0.21563737610182826,-0.1669921875,0.7421875,0.04207547225230654,0.20483876512416055,1.0208510135002768,0.60384200816,1.75627121641,0.05431965446654605,0.23274274319422938,stairs down
-0.8711364568110496,-1.45544433593,-0.55249023437,0.04211979790837798,0.20493169511753698,0.4629881388900874,0.01806640625,1.08874511718,0.04023992131316652,0.20030627488503108,0.1975378809411954,-0.00952148437,0.54077148437,0.013040002797271895,0.11402624827821536,1.0202263760268224,0.6337021943,1.67091296048,0.0667121840881604,0.25791023229922083,stairs down
-0.8981595810110959,-1.44311523437,-0.5712890625,0.044092513172664,0.20969432936231608,0.4480579114904109,-0.02954101562,0.92321777343,0.032258038796540066,0.17935902711616272,0.16646845569049315,-0.087890625,0.45153808593,0.010086449833949613,0.10029364747986536,1.0301108477303562,0.6841245171,1.63643181682,0.06039556855012154,0.2454182170072656,stairs down
-0.2006426819008174,-1.30529785156,0.51184082031,0.24119255450341742,0.4904440376663042,0.5458219356661852,-0.18835449218,1.20690917968,0.125954513415918,0.35441686346290413,0.5280349274073842,-0.45446777343,1.322265625,0.19807356286853028,0.4444478067084616,1.0743460127767575,0.82380353041,1.77463055278,0.026533418869969638,0.16266874538739695,Null
-0.913524800553142,-1.15771484375,-0.54272460937,0.015573916008585183,0.1246068413162739,0.28453630982912387,0.03137207031,0.9794921875,0.04066098287065359,0.20134085532276297,0.20131570406667676,-0.23400878906,0.59936523437,0.03236958738815537,0.17964351942884912,1.0180755366839576,0.68818069485,1.22073068206,0.007783954133485271,0.08809334626259013,Null
-0.9618363212408131,-1.27978515625,-0.69897460937,0.016125821198195157,0.12681529791682833,0.19087496294523038,0.04968261718,0.37927246093,0.00520203749294923,0.07202735473670202,0.23815653317314364,-0.01171875,0.39831542968,0.0063728244661592605,0.07972172814954966,1.0140748780022766,0.74274499935,1.35984259817,0.017606363712863664,0.13250905625678788,stairs up
-0.9507022332250299,-1.23413085937,-0.66088867187,0.021051834170792965,0.14487513495133605,0.24215789611742516,0.07312011718,0.50219726562,0.009358297478811763,0.09659336739178721,0.2501867602650299,0.05493164062,0.41003417968,0.007638930433128094,0.08727003714865206,1.0194812504317965,0.74324498381,1.36383365162,0.023732776895950596,0.15382366748228066,stairs up
-0.9586604588433522,-1.25061035156,-0.72497558593,0.019866674312645702,0.14075053054888703,0.184218199819831,0.02917480468,0.33776855468,0.004238449090343501,0.06501161278672654,0.27091116031769014,0.13171386718,0.40490722656,0.005408088161858509,0.07343605456925327,1.017129023776141,0.74594790845,1.32580897403,0.021481798963190506,0.14636012726639397,stairs up
-0.9497751155329576,-1.26086425781,-0.65612792968,0.014471046313635116,0.12012611207765146,0.22551785320940845,0.0361328125,0.53894042968,0.011166160286941734,0.10552111785942406,0.22060546874571832,-0.0322265625,0.53991699218,0.009555816599832153,0.09761607862741255,1.0119324385794648,0.74397109696,1.30782899857,0.012447228028168712,0.11140989818685257,stairs up
-0.969100746500566,-1.18908691406,-0.65173339843,0.007909427423951709,0.08881502244871864,0.2244919111113477,-0.16186523437,0.54650878906,0.012425643345298358,0.11132003883028545,0.21013302044374668,-0.00817871093,0.48388671875,0.006265978624828622,0.07905118085501961,1.025351587813504,0.83266587746,1.20957800322,0.007889086545448395,0.08870074498688756,stairs up
-0.985684734460598,-1.28649902343,-0.72680664062,0.02088677335164896,0.1443165509387736,0.16437376190441594,-0.01196289062,0.3349609375,0.004857378213563921,0.06959554245204784,0.21253658631253558,-0.0693359375,0.34448242187,0.00538958922069026,0.07330916904211614,1.0263665164365243,0.75502852678,1.35237827378,0.021442835177771066,0.14622497898532555,stairs up
-0.982290566930027,-1.26965332031,-0.75964355468,0.020222553387888264,0.1420137241191543,0.14354083086605407,-0.02172851562,0.28247070312,0.0054417666554642,0.07366857659828238,0.20256941511456758,0.09020996093,0.32971191406,0.004114764069711672,0.06405968377801656,1.0170910094878107,0.78130670341,1.31211587416,0.021816538083854635,0.14750448965171123,stairs up
-0.9744962804421177,-1.2958984375,-0.73205566406,0.012985013630226788,0.1137841043980542,0.2049797506857353,-0.00854492187,0.3447265625,0.005142105240547926,0.07160294268816847,0.1939934225607353,-0.04858398437,0.36743164062,0.00736111522022926,0.0856706769049144,1.0205609592727058,0.76779153395,1.35217452662,0.013200569091033915,0.11472464376856871,stairs up
-0.9893645824428337,-1.236328125,-0.86596679687,0.00815174049670048,0.09016389892708718,0.183480992950436,-0.06530761718,0.46948242187,0.008388463829608471,0.09146369214030513,0.1672589460541962,-0.06005859375,0.33666992187,0.00853552157916435,0.09226193162500732,1.0286767245705994,0.90230049921,1.24632539061,0.007485226579299005,0.08639925269670376,stairs up
-0.9848501239668265,-1.310546875,-0.70300292968,0.015454838768150025,0.12413124826485188,0.1828043132448503,0.01184082031,0.28955078125,0.0035324692340087437,0.05934553882826493,0.16730028711721556,-0.01623535156,0.32080078125,0.005244252350069841,0.07230872005317418,1.019843041131976,0.7341221922,1.34828377639,0.015462045462940204,0.12416018650779308,stairs up
-0.9867227090335134,-1.33020019531,-0.72985839843,0.022710783856760917,0.15049718721574418,0.1362278293877027,0.02111816406,0.26892089843,0.0030836331257371036,0.05545537829781734,0.1887408282265135,0.03747558593,0.31567382812,0.005134378221903853,0.07155767969971369,1.0172938806636487,0.74100562909,1.36352629221,0.023825583960519307,0.15414665254346505,stairs up
-0.9964000028686764,-1.3212890625,-0.76477050781,0.022809793330918388,0.1508068489939184,0.16169325884261765,-0.01831054687,0.35986328125,0.0045143303517309824,0.06708988679018626,0.1691521139667353,0.04516601562,0.32275390625,0.0037103871235361773,0.06082330326636049,1.0266820520940587,0.78459144318,1.35022208276,0.02404455204039347,0.15483485644287734,stairs up
-0.9970327016427297,-1.25512695312,-0.75659179687,0.015687319598963877,0.1250796603684452,0.17225440772418918,-0.0556640625,0.31579589843,0.006726460634311015,0.08190409642365294,0.09393343538627028,-0.16845703125,0.30590820312,0.010149919021086435,0.10061057005859737,1.0240447111987028,0.77263520755,1.29370549696,0.01537298611230671,0.12382018212388629,stairs up
-0.9952242667174853,-1.26708984375,-0.7666015625,0.013188526901285857,0.11467329225730834,0.16115315754947368,-0.07995605468,0.31909179687,0.005665298321703286,0.07515805427186247,0.10848517166619884,-0.15209960937,0.30554199218,0.006161903370972802,0.07838294527289828,1.020139175426813,0.79848020293,1.2972877489,0.01250592670841587,0.11166628708458412,stairs up
-0.9848092886082143,-1.28002929687,-0.75024414062,0.02252031857765435,0.1498614345673125,0.13388296273631867,0.04235839843,0.23449707031,0.0028691077781103427,0.05349042544123915,0.1771967961196429,0.06323242187,0.29321289062,0.004033219372379554,0.06342033663879837,1.0125141526536265,0.76004780135,1.30709211249,0.02339386100403987,0.15274027679406527,stairs up
-0.9876847240773756,-1.27258300781,-0.75915527343,0.02138117353502944,0.14602092151379986,0.14262263682290055,0.05773925781,0.25671386718,0.0024671321705544372,0.049601581510223404,0.199510437345221,0.08752441406,0.32385253906,0.003556006753874079,0.05954984072856181,1.0199093707513538,0.77819619331,1.30867632704,0.022204050541244975,0.14880427878610777,stairs up
-0.9978182957426912,-1.06237792968,-0.91027832031,0.0005493253496275166,0.023404469384371494,0.17938595520130313,0.09741210937,0.25280761718,0.0013167815764660105,0.03623604996467736,0.0786737976909915,-0.09155273437,0.17712402343,0.0026831349289797154,0.0517255640875226,1.0188212964745043,0.93538435796,1.09005764602,0.0005513208342639532,0.023446940501255974,Null
-0.9886615459699725,-1.06811523437,-0.88757324218,0.001589534169135082,0.03981415975531913,0.1678775326201923,0.04516601562,0.49841308593,0.004522659017798841,0.06715827670799263,0.15375527182478022,-0.02136230468,0.32141113281,0.005567048270198394,0.074510094494263,1.0194447875708792,0.91425689032,1.15884652367,0.001659241129176501,0.040677792152795315,Null
-0.9630904715365715,-1.14086914062,-0.74182128906,0.005116826437457921,0.07142973423827711,0.23609967912585708,-0.11096191406,0.615234375,0.01629745000468573,0.12747896242837561,0.18637451171514288,-0.07470703125,0.46875,0.011901984415418777,0.1089402531007728,1.0233539203168571,0.87722001124,1.23926678857,0.004001030293916756,0.06316327080504365,Null
-0.9958650358390109,-1.19372558593,-0.86633300781,0.0015410967350527297,0.039202843682742884,0.1464907467982143,0.06164550781,0.32336425781,0.0013641999119236646,0.03688430709621411,0.12219741317914835,-0.17785644531,0.33557128906,0.007768342990038102,0.08801705169123264,1.0183032982498628,0.88789080155,1.21165207729,0.0015376054326310543,0.03915841214709897,Null
-0.9960782266036126,-1.03662109375,-0.97204589843,0.00010554412157393072,0.010258610079349601,0.16340698947439306,0.0771484375,0.23449707031,0.000929799315195654,0.030448514478342997,0.065804012934711,0.03186035156,0.09582519531,0.00017210182378442322,0.013099787008552442,1.0120602233328613,0.98879221949,1.0519222177,0.00014231704266572063,0.011912418802794028,Null
-0.9973985235842974,-1.0087890625,-0.98620605468,1.4204010107337508e-05,0.003763625991369172,0.14569142238782368,0.12902832031,0.16186523437,5.5312482354182057e-05,0.007426985012085003,0.061646180372451786,0.05163574218,0.07641601562,3.76915400273335e-05,0.006130881387185046,1.009928528324215,0.99776568249,1.02097963806,1.5469245210795524e-05,0.003927674911473049,Null
-0.995132490772245,-1.00402832031,-0.98791503906,1.3055317292356808e-05,0.003607943339745846,0.15055540212352772,0.13073730468,0.17053222656,7.97542397047139e-05,0.008917495167109935,0.07153747380230321,0.05358886718,0.0908203125,6.440585033711308e-05,0.008013618295045993,1.009066773742245,1.0002953421,1.01905012653,1.4258207070551462e-05,0.0037704957172403335,Null
-0.9942452086530579,-1.01184082031,-0.98596191406,2.6887974312699458e-05,0.0051782142441307915,0.15956372137146005,0.13549804687,0.18237304687,0.00010548825346365634,0.010256590672072527,0.07772078920991736,0.05627441406,0.10302734375,8.413680613079426e-05,0.009159968575040157,1.010052933376887,0.99885985824,1.02721857533,3.37184259599671e-05,0.005798753118919796,Null
-0.9968494762035152,-1.22741699218,-0.83117675781,0.003941531373959631,0.06268642069454188,0.1728970614310909,0.04516601562,0.3466796875,0.0029562313666871326,0.05428879340912251,0.0814042524829394,-0.10546875,0.27673339843,0.004158623985769395,0.06438961170020695,1.018367329272788,0.89346785827,1.26770901702,0.004192494102002095,0.06465129213264241,Null
-0.9801353236564,-1.54553222656,-0.67895507812,0.052312314628088497,0.2283918800483245,0.24589704240700003,-0.04919433593,0.52478027343,0.008804609370317578,0.09369873715021586,0.12023402622422856,-0.01232910156,0.3515625,0.007058239442414271,0.08389322406492299,1.0239341235053427,0.68701265141,1.55879463966,0.054454543205449533,0.23302136982751412,stairs down
-0.9851976477545924,-1.43933105468,-0.65063476562,0.041774040304463196,0.2041090980103346,0.2023249087091848,-0.02062988281,0.37158203125,0.006840444508906915,0.08259452974913373,0.1528154456061685,-0.05126953125,0.38037109375,0.007963644029241095,0.08911792015192631,1.0243395915203262,0.69532750145,1.4645534482,0.042169711017210586,0.20507344882062511,stairs down
-0.9186596537712499,-1.14453125,-0.50158691406,0.02251950702271398,0.14984673282894231,0.26915084483688956,-0.02587890625,0.70886230468,0.028794730167717168,0.16944327828735048,0.271277494204593,0.0810546875,0.64501953125,0.021049437428627256,0.14487321078634255,1.0268387622589243,0.77178558071,1.20521262112,0.007747207981136073,0.08789019870100725,stairs down
-0.9770954736562021,-1.33154296875,-0.60095214843,0.021955856923445493,0.14797252529887697,0.1909673305121858,-0.00573730468,0.39318847656,0.008297175746772608,0.09096431095590767,0.18587906633896173,0.0537109375,0.45568847656,0.00521157235208658,0.07209253139795434,1.0185366268374043,0.65621654107,1.42503505672,0.0237508532904279,0.15390243743570398,stairs down
-0.9756253033664498,-1.46166992187,-0.61608886718,0.047912254967323535,0.2185646420025261,0.21736424914147928,-0.05908203125,0.38623046875,0.0063328995507031015,0.0794617087753582,0.1812787479162722,-0.0517578125,0.4345703125,0.008852841131345265,0.09395024903468092,1.0232616342995267,0.65924366958,1.50763505178,0.0494284738638493,0.2219960264858241,stairs down
-0.9889432980028415,-1.48901367187,-0.64953613281,0.05430122537808773,0.232707673647266,0.18373116247994536,-0.07763671875,0.38989257812,0.01123724645995339,0.10586096353601354,0.13990124978352458,-0.07641601562,0.35510253906,0.008372709283544786,0.09137742078145844,1.0258140437177048,0.67337583759,1.5098792227,0.05289766126479221,0.22968050012060978,stairs down
-0.9991618565111011,-1.46984863281,-0.73181152343,0.01644298038262918,0.12803922422841454,0.17315455845065475,-0.06066894531,0.34313964843,0.005589745911762744,0.07465326358047471,0.11171068463684525,-0.04577636718,0.28271484375,0.0041639736771106346,0.06443276261584405,1.024961308959494,0.77056588653,1.48055894118,0.01640807597817503,0.12790325413653938,stairs down
-0.9909617387087845,-1.17541503906,-0.85363769531,0.00676834609612255,0.08215624752542698,0.17625503118162983,0.0634765625,0.29821777343,0.003748631869214544,0.06114144692889804,0.11786866582872928,-0.06079101562,0.28869628906,0.005093070120620804,0.07126710928713155,1.0174955360501106,0.88177228932,1.20202267916,0.00725382470087718,0.08505166965495593,stairs down
-0.9628464271241667,-1.48706054687,-0.64575195312,0.03597637497294235,0.18940167524361834,0.23364082423787355,0.06030273437,0.41174316406,0.006789404262464473,0.0822793684960031,0.13522198556091955,-0.06604003906,0.37646484375,0.008310824770047248,0.09103264848214375,1.0067714765794828,0.68454111121,1.51580646745,0.037394744618905795,0.19309916741458982,stairs down
-0.9680614835201635,-1.47192382812,-0.638671875,0.050177572469053536,0.2236981198811194,0.23276014613490462,-0.03430175781,0.44006347656,0.009740134600161201,0.09855757060655708,0.18312476051280652,0.00256347656,0.37084960937,0.006670540018959543,0.08156202646205682,1.0202725179593732,0.70524495864,1.54249039007,0.05044324376631913,0.22428953661644743,stairs down
-0.9921374113622011,-1.11999511718,-0.88623046875,0.0008743757383448612,0.02952964133403503,0.12498938518682065,0.05322265625,0.26708984375,0.0018337758432414007,0.042764386546644786,0.12633779774184783,-0.01806640625,0.23303222656,0.0029574942193403672,0.0543089085718547,1.0102408685024458,0.9074256194,1.14660408005,0.0009865470377969077,0.031366641571183046,Null
-0.9963051224842477,-1.18273925781,-0.88159179687,0.002499189010563799,0.04991810064089563,0.12820875679489677,0.00341796875,0.24047851562,0.0027361905982100617,0.05223140089556546,0.13577459554386428,-0.03125,0.25207519531,0.0040579173738563915,0.06360775987343369,1.0168879392005308,0.88733917747,1.20200674304,0.0027089163404856007,0.05197042848415194,Null
-0.9811419661067302,-1.30358886718,-0.48181152343,0.014551776829508246,0.12046628661764332,0.19966246061498635,0.02978515625,0.59509277343,0.022306120748742615,0.14914872151035635,0.09852970133376023,-0.09228515625,0.2890625,0.006163132571016764,0.0783985924252247,1.0225091881171935,0.7063414333,1.37725431786,0.009617731080947257,0.09793632997630682,Null
-0.9208310149397965,-1.14807128906,-0.70166015625,0.005660429251868696,0.07512639027446616,0.30023690156781974,-0.00512695312,0.57299804687,0.01334072494938422,0.11533405296011139,0.24104344567218025,-0.10571289062,0.45434570312,0.015618764292797647,0.12479327268817643,1.0120457149068605,0.76059959554,1.28625259478,0.0064754720216079606,0.08035326984655645,Null
-0.8649062253078932,-1.35522460937,-0.34460449218,0.04623285609176246,0.21471606488213915,0.3751433297455057,-0.31555175781,0.93359375,0.04908816953754673,0.22124710488697524,0.22099835684792135,-0.04553222656,0.46875,0.01817623211621385,0.1346297711668067,1.0175741880748312,0.72961973124,1.44604643152,0.015400045702135035,0.12392250460183557,Null
-0.7672246368794929,-1.06970214843,-0.48583984375,0.018974327230457604,0.13755318397390054,0.6402697925793521,0.13220214843,0.92419433593,0.04495629159389137,0.21173014464828058,-0.02626162246723943,-0.14990234375,0.26306152343,0.00541993619955253,0.07351645240106665,1.0316470586039437,0.66941939212,1.19758157466,0.004139933147811221,0.06425162538252445,Null
-0.69608332601441,-0.71472167968,-0.65161132812,0.000256520541805063,0.015993748106225315,0.7296615771996628,0.65844726562,0.76525878906,0.0005064616113416605,0.022473072027784313,-0.09265239586601125,-0.13354492187,-0.03393554687,0.00029797734400792035,0.017237758815944203,1.0128923703913484,0.95811878615,1.04290798453,0.0006037316549881819,0.02453641741479024,lift down
-0.8310022275285124,-1.6171875,0.35388183593,0.25411110963734707,0.5033995222805496,0.1186358659369146,-1.02368164062,1.57177734375,0.16850587825846042,0.4099288654597127,0.2271284623553995,-0.13171386718,1.28149414062,0.09180120991973942,0.3025695193251358,1.0883541640690357,0.63344182404,2.32128968517,0.08555595079305983,0.2920963188206264,stairs up
-1.0205664791239404,-1.40551757812,-0.71704101562,0.03143478544628583,0.17703375459456638,0.18210704290701493,0.00476074218,0.43725585937,0.005389263139783814,0.07330194940878274,0.06319853369620895,-0.12023925781,0.2294921875,0.007595620075606543,0.0870226785547511,1.0442471451986268,0.72778112493,1.48016757468,0.03264538935200195,0.18041047760194845,stairs up
-0.4756983797301127,-1.37231445312,0.84521484375,0.5843579018885683,0.7633556335625612,0.43393692231152114,-0.14245605468,1.25158691406,0.11028016650527213,0.3316165227320847,0.048654475681661966,-0.45788574218,0.82653808593,0.05980831942768452,0.24421270501030778,1.0647265634418874,0.69033002336,1.66507229142,0.03573665749896469,0.1887749741309015,stairs up
-0.7337370965151098,-1.763671875,0.84106445312,0.48404750929256446,0.6946438792513057,0.363648226264953,0.02136230468,0.90466308593,0.04118379781783141,0.20261958198396188,0.07268502644846395,-0.23669433593,0.5537109375,0.015716575902440855,0.1251691161565975,1.0743659406416615,0.53190149301,1.94068045068,0.06107467621607218,0.24674525233693564,stairs up
-0.381432245818169,-1.46704101562,0.65808105468,0.6152272432952478,0.7832587112870767,-0.09507007867636623,-0.80700683593,0.85229492187,0.20877931800115102,0.45627974669737226,0.29297631491833803,-0.19299316406,1.26647949218,0.07705517974515065,0.27719690276191417,1.0541706991629016,0.64091757164,1.7532884066,0.02768967417639439,0.16616761144762046,stairs up
-0.48857085376046916,-1.421875,0.51684570312,0.4199930636147803,0.6471177732081184,-0.07465047081304982,-0.85168457031,0.76171875,0.23904079859373445,0.48820057269975486,0.30662451601173013,-0.3037109375,0.86022949218,0.0942932749954974,0.30662151771765045,1.028138150674311,0.68880267705,1.61618954739,0.03205514021615277,0.17877677945530396,stairs up
-1.0006311070300864,-1.46923828125,-0.69567871093,0.033941686022797506,0.18396703880225743,0.25166254840250724,0.09362792968,0.57043457031,0.00813755090642987,0.09007829789177818,0.035782080215734875,-0.39855957031,0.26745605468,0.010527354978806207,0.1024549500025256,1.0411335693254178,0.71672553557,1.52086655752,0.03447223021223919,0.18539926269897106,stairs up
-1.0032931002606305,-1.76318359375,-0.64428710937,0.04162447898817372,0.20372827771340452,0.2750985656529227,-0.13256835937,1.55932617187,0.045908766197789004,0.2139561227333818,0.00985166882808023,-1.43676757812,0.17419433593,0.04395737081851607,0.20935954352883115,1.0649308829824642,0.65211562776,2.7576467448,0.07978921531528915,0.28206487360505494,stairs up
-1.0053388018906977,-1.39294433593,-0.69714355468,0.024800738289414207,0.15725343595600141,0.21238034270171513,0.03295898437,0.46936035156,0.007069398763634836,0.08395741888501321,0.02734836312136628,-0.38403320312,0.20837402343,0.01383506984523715,0.1174514862355639,1.0375611462459882,0.7012361481,1.44528949306,0.025673291905322793,0.15999581320399395,stairs up
-1.0488361239053847,-1.34155273437,-0.76147460937,0.016841689581913857,0.12959053808173251,0.22396702779623934,-0.05383300781,0.36926269531,0.008258513377550788,0.09074681729630861,0.009505834334757837,-0.22570800781,0.24084472656,0.011758632115528614,0.10828264745161663,1.081930918262849,0.79611986508,1.36801901463,0.016535226397884725,0.12840606485196968,stairs up
-0.9990150314568265,-1.36853027343,-0.66455078125,0.027967866987230895,0.16698542109575498,0.2400286097691018,-0.68615722656,0.61791992187,0.026738559339917766,0.16327432061727215,0.020349925148892216,-0.25268554687,0.25732421875,0.012112492431674315,0.10989188998408432,1.0476831400387128,0.75464551386,1.39275840994,0.025112974779696633,0.1582333284502732,stairs up
-0.9766399610446176,-1.33020019531,-0.74291992187,0.016328578978194303,0.12760220366640368,0.3096235669671955,0.08581542968,0.7080078125,0.016146251119752916,0.1268877891351054,-0.0101826697509915,-0.474609375,0.25561523437,0.020141045299023688,0.1417179893784626,1.0420426797684137,0.79752115157,1.34720881124,0.01645654807654552,0.12810124495952946,stairs up
-0.8598131916049544,-1.35437011718,0.32592773437,0.15199890458246018,0.3892774098672686,0.3704440687891489,-0.20263671875,0.99182128906,0.06031141120509952,0.24521030534178923,0.06626080451972645,-0.53820800781,0.69665527343,0.05477728744265658,0.23368951865293663,1.0522831755341944,0.47922440022,1.40668695336,0.04028695983320676,0.20041084568395065,stairs up
-0.36744129590234464,-1.43444824218,0.43542480468,0.31293929221453487,0.5586190857055403,0.5711011293884463,-0.08483886718,1.09582519531,0.09151614049748273,0.3020887623308518,0.5304351634188701,-0.05627441406,1.21923828125,0.08831795288657378,0.2967633183935581,1.0784020862104238,0.26129885339,1.53310893553,0.07129866864215025,0.266640694519178,stairs up
-1.0377958805151377,-1.49279785156,-0.77001953125,0.023157857620427658,0.15194419529542336,0.21964667550314992,-0.10375976562,0.75695800781,0.014097486717419082,0.11855114987735668,0.09565534212327219,-0.22961425781,0.54528808593,0.013909353886517626,0.11775745257137717,1.077464255150887,0.80852085282,1.6190995325,0.024805277572634166,0.15725590753505905,stairs up
-0.9487851781300559,-1.36328125,-0.30200195312,0.04516153114114584,0.2122145806790742,0.3533183292806163,0.04321289062,1.49230957031,0.04139243143436243,0.20316615428823714,0.13553805310949582,-0.12353515625,0.72021484375,0.026353718049133276,0.16211075877504336,1.0542545046031653,0.57997890869,1.82525293821,0.04466167475228345,0.21103689729970182,stairs up
-0.978198460166101,-1.54858398437,-0.50122070312,0.054535450097334834,0.23318049277360314,0.26672980898547616,-0.04821777343,0.8251953125,0.026590645052620487,0.1628235432241269,0.15097372872241072,-0.18957519531,1.22045898437,0.05457640914107933,0.2332680418573641,1.0647573826746726,0.5900950749,1.58507058451,0.05255684825951135,0.22891140003997792,stairs up
-0.9919546431816526,-1.39050292968,-0.65515136718,0.03061554689545115,0.17472775698500256,0.22920735676728293,-0.33544921875,0.5703125,0.015952903791248717,0.12612778356187512,0.031039026937170866,-0.60192871093,0.24731445312,0.019130321224778517,0.13811855375298263,1.0339345627568628,0.66476575974,1.47751815085,0.03406292374694366,0.1843027655644682,stairs up
-1.051176771602034,-1.62573242187,-0.08227539062,0.08355522656371417,0.2886506449850015,0.3193300753629943,-0.03747558593,1.07604980468,0.05104381370186813,0.22560944602950153,0.1094967254798305,-0.22448730468,0.72583007812,0.037043841507059486,0.19219572806642465,1.1370994135505648,0.12210631793,1.84898290528,0.09737183533839353,0.31160355206038115,stairs up
-0.6601102575005099,-1.84936523437,0.49670410156,0.33812288257735307,0.5806591318371871,0.35893616932645894,-0.41198730468,1.04150390625,0.1012036468093557,0.31767428433230643,0.3349789195256374,-0.34545898437,1.48388671875,0.1500763705305674,0.38684780599737806,1.086731144173966,0.35497866371,1.85623454302,0.08377755602063058,0.28903326077391733,stairs up
-1.0097044188728852,-1.55358886718,-0.6123046875,0.04191461612535071,0.20444365540912343,0.18477273721655466,-0.36059570312,0.5126953125,0.01523215006843545,0.12324562053642726,0.1166055289279552,-0.23278808593,0.30822753906,0.01330249186023315,0.11517478013120629,1.0468087136695519,0.6663518823,1.62361535813,0.04260907124278487,0.20613034250698944,stairs up
-0.9899706471575643,-1.333984375,-0.7099609375,0.02924216525873617,0.1707582408541368,0.2388793595508596,0.0498046875,0.7041015625,0.015822965586974574,0.12560902665293092,0.0785461250877937,-0.35083007812,0.27416992187,0.011595413618053305,0.10752761941566122,1.033838325829083,0.71180019854,1.40081866757,0.031040174128221836,0.17592962741166387,stairs up
-0.9938362992866574,-1.40100097656,-0.7236328125,0.01613539972340006,0.12684815457968165,0.2018169094890529,-0.16979980468,0.64465332031,0.013287843065187545,0.11511224771828264,0.09125112889311977,-0.10815429687,0.65966796875,0.018086609204004466,0.13429902708870906,1.0335923549153203,0.76034864792,1.42284057654,0.015876002540860697,0.12582440022729083,stairs up
-0.9504527826381322,-1.37365722656,-0.65991210937,0.018132397517507514,0.13446297976372518,0.09892571109353447,-0.380859375,0.83715820312,0.048742596949005665,0.22045981950288393,0.24385158494701148,-0.14855957031,0.72998046875,0.06341890715484688,0.2514690217818015,1.046117155155201,0.83896583092,1.4043183146,0.008192316509481181,0.09038127776307503,stairs up
-0.8192585442144668,-2.08361816406,-0.08386230468,0.1678176434625214,0.40906481042712095,0.2881165430222478,-1.26904296875,1.03564453125,0.15944223507151736,0.3987264066529549,0.16572082695302592,-1.36279296875,0.99035644531,0.14768527888355018,0.3837442805991137,1.0903020600805187,0.7717724033,2.79254610825,0.06684040100941843,0.25816230820045266,Null
-1.0048248122375967,-1.64050292968,-0.1123046875,0.12754313322792785,0.35663819780081485,0.359068475372431,-0.08044433593,1.02355957031,0.07289862197039834,0.2696242655282353,0.07892486403381216,-0.39990234375,0.29858398437,0.013724005019756742,0.11698757798877651,1.1405416343215744,0.62868749474,1.72480488983,0.05773060674482043,0.23993984648367228,Null
-0.9708402303616714,-2.10656738281,-0.72143554687,0.034141498840480976,0.1845030545627946,0.29853136168577715,-1.26293945312,0.58764648437,0.06253038397664074,0.24969383335715747,0.11510800895495603,-1.45495605468,0.40563964843,0.06479641661729243,0.254177886135346,1.071752930626833,0.84866498879,2.85473979929,0.05741038046439409,0.2392530492541354,Null
-0.9239809664954294,-0.93493652343,-0.91442871093,1.9198658606975585e-05,0.004375554447973179,0.38553186136227147,0.37524414062,0.40002441406,2.9766985904564896e-05,0.005448351023924442,0.16675954379800553,0.15258789062,0.18298339843,4.791008092645656e-05,0.006912117332687801,1.0150026708675344,1.00460953328,1.02452118843,1.8195077374509846e-05,0.004259656734776426,Null
-0.9324746584723463,-0.96057128906,-0.91564941406,4.1192984721492344e-05,0.006409205919484853,0.368597787182067,0.33666992187,0.40295410156,6.742915234249708e-05,0.008200048948326358,0.1539190707894972,0.12170410156,0.17248535156,8.305092364794223e-05,0.009100491076183558,1.014512493138408,1.00571248731,1.02927229994,1.999253401924463e-05,0.004465051954026041,Null
-0.9222094253122991,-1.0517578125,-0.82312011718,0.0015226268736679798,0.038966768799758474,0.3247492993603601,0.18823242187,0.42529296875,0.0019071598730992264,0.04361051343152247,0.1878523469928532,-0.07019042968,0.35888671875,0.009781370822711695,0.09876373632399942,1.0016444444854293,0.88145998928,1.08865895012,0.0011605927308711542,0.034020255621592436,lift down
-0.9476259571931445,-1.00610351562,-0.90539550781,0.0004954278884314341,0.022226659892884297,0.3278708309322946,0.2880859375,0.35986328125,0.0001433411535813867,0.011955546327562978,0.22376767771359773,0.19494628906,0.25305175781,0.0001398293268416306,0.011808184016538057,1.0274997789012466,0.980278369,1.09095412264,0.0005884742448738424,0.024224103265638987,lift down
-0.9084003155015383,-1.16418457031,-0.52770996093,0.010234934307702321,0.10102363560425015,0.339692814054188,0.15368652343,0.51489257812,0.003011364484426774,0.054797674206404565,0.24033314413754986,0.06616210937,0.31823730468,0.0024256124756820256,0.04918029990583862,1.003789177352792,0.64105087174,1.22417030798,0.006395130417588514,0.07985556131421943,Null
-0.9289225260382779,-1.01123046875,-0.88549804687,0.0006644640460377946,0.02574137355652527,0.3604376898839444,0.32995605468,0.40637207031,0.00019643477696646707,0.013996039611555365,0.26172315809080554,0.22106933593,0.30200195312,0.00015102208700553925,0.01227202433212637,1.0303829964839446,0.99136494158,1.10386139845,0.0006331484731052001,0.025127469577069923,lift up
-0.6314232069285672,-1.41174316406,0.53588867187,0.31190243047489985,0.5576815643678001,0.18602116538174784,-0.83337402343,1.12353515625,0.1873491345362788,0.43221790514956326,0.36555371653025787,0.18872070312,1.0458984375,0.03421053044372191,0.18469571191879294,1.0342401202904872,0.66546360754,1.90858386954,0.02929351982589939,0.17090811636375172,lift up
-0.8944733900792196,-1.20178222656,-0.64953613281,0.013090653707412048,0.11424893631076864,0.41979204298731215,0.23217773437,0.77001953125,0.0092926511126792,0.0962589930319301,0.22423751918973986,-0.16552734375,0.44384765625,0.016580311165997612,0.12857834651110353,1.0239264516742774,0.7485465032,1.43310239619,0.017260766451558444,0.1311902429425182,Null
-0.8066010620412742,-1.52856445312,0.00451660156,0.13249943981085457,0.36350021368844443,0.26287080970562327,-0.11291503906,0.72973632812,0.03199945906951284,0.17863599275805384,-0.11364746093789474,-1.09338378906,0.43334960937,0.17431868952005303,0.4169362208584963,1.0197221506819112,0.42085619933,1.57773111167,0.03206612329610598,0.1788219714403154,Null
-1.0406297828678068,-1.38317871093,-0.68725585937,0.02930857709407326,0.17094700787153583,0.21089823761511695,0.0693359375,0.37109375,0.00616667717349454,0.07841330214758846,0.05055067274125731,-0.07470703125,0.22106933593,0.004787452749169386,0.0690901899644082,1.0682136972148537,0.69115042398,1.41725362394,0.02909332722868572,0.17031811125190036,Null
-0.7839652214225414,-1.36071777343,0.20068359375,0.15604092344156867,0.39447417046857225,0.4818975121898342,-0.27856445312,1.76000976562,0.1682617349537135,0.4096302278045279,0.2352352247686188,-0.2529296875,0.86950683593,0.073690884751612,0.27108544551789415,1.0953369584471824,0.2393841157,1.9574677405,0.09956840339496632,0.3151084774436554,Null
-1.0566557042700881,-1.48168945312,-0.62536621093,0.04304061495137509,0.2071570054509392,0.23314065371829412,-0.04760742187,0.54821777343,0.015957458873332657,0.12613693024155942,0.08188404756270588,-0.22717285156,0.46215820312,0.017726826086459018,0.13294618596513144,1.1001468983625,0.63123924227,1.53140702221,0.04388595583317414,0.2091814511195683,Null
-0.9160303403216165,-1.20373535156,-0.57263183593,0.022912236716474757,0.15116038986849942,0.3608732876673973,0.07080078125,0.89575195312,0.05250839776895794,0.22883299400421564,0.059531183110219175,-0.16760253906,0.26208496093,0.008253412238628341,0.09072375736433833,1.0250152666471781,0.84016812292,1.23292720971,0.005689168567601773,0.07532318238366502,Null
-0.620602119256189,-0.72009277343,-0.50109863281,0.0015379243648619826,0.03915655208348497,0.7834844821797561,0.46691894531,0.85192871093,0.0029815222834374657,0.05452001720905603,-0.1752025325092073,-0.50061035156,0.14721679687,0.009458287455389017,0.0971053614026897,1.0211043375623476,0.83550225272,1.11263417629,0.0009748746923286219,0.031175351054777162,Null
-0.8831900198998637,-1.17211914062,-0.63720703125,0.0226853570832992,0.15041124998223826,0.4338458734207356,0.13879394531,0.78674316406,0.04427686473833603,0.21013381291531752,-0.037395757939209816,-0.32214355468,0.2724609375,0.03299958169385375,0.18141021078627775,1.0307760117790463,0.81753597852,1.30993247375,0.006854213750020369,0.08267730896852198,Null
-0.958953315686006,-1.12548828125,-0.59851074218,0.010779594106910808,0.10367112335001331,0.2887984958587574,0.02856445312,0.71411132812,0.018186502448411676,0.13465770021855453,0.13698239297973372,-0.0693359375,0.51025390625,0.01829675641934691,0.13506525831576768,1.0317678528650591,0.80369890465,1.20535916802,0.004351202083409726,0.06586599049938235,Null
-0.8595008421442134,-1.13562011718,-0.7197265625,0.005601442643473163,0.07473759598773033,0.4456667096389606,0.2490234375,0.61364746093,0.008524434984451733,0.0921981016201558,0.27214958962132024,-0.03210449218,0.46411132812,0.013488034298974353,0.11597476692013432,1.017811415289719,0.86647433949,1.20646010777,0.003659179857472055,0.060406135966197975,Null
-0.8351517798157182,-0.958984375,-0.61083984375,0.0037603633098477933,0.06123537161758714,0.48907728597788724,0.32861328125,0.67980957031,0.007107557406437182,0.0841875057117643,0.28489010232878875,0.01208496093,0.47741699218,0.012528199448215881,0.11177168132199163,1.0195812641050424,0.88738224228,1.13199847998,0.001626300009479187,0.04027057092582525,Null
-0.4032518424636827,-1.12072753906,0.20715332031,0.1549976804596638,0.3931394072669138,0.28950098485937675,-0.21948242187,1.08984375,0.08100121304185283,0.2842037083661994,-0.6300408468676204,-1.02368164062,0.33764648437,0.16170973581895592,0.4015614953955886,1.0175357443331727,0.82500338156,1.21015750621,0.0045903261480308355,0.0676559117242355,Null
-0.008404438721759775,-0.24060058593,0.24963378906,0.013895028021418853,0.11771242540184415,0.6223134301856983,0.31604003906,1.1796875,0.0417652123854953,0.20407976328158198,-0.6974204292480167,-1.04760742187,0.21118164062,0.10608139818771226,0.32524618588539667,1.0160830049270948,0.87863946892,1.22930529857,0.0026123656295129532,0.051039871853444045,Null
0.13004452957695156,0.04443359375,0.25695800781,0.0007538107877988808,0.027416476409575914,1.0035494290825355,0.66162109375,1.18981933593,0.004196152300579311,0.06468537277252186,0.0644492994322507,-0.22900390625,0.60717773437,0.027141683214260973,0.16451248123305662,1.0279542427823647,0.71412123974,1.2192233829,0.0031682007594029944,0.05620653473052081,Null
0.06806797037888579,-0.09814453125,0.10388183593,0.0008651241734578869,0.0293719995372928,0.9264052027078551,0.86743164062,0.9814453125,0.0004145632719058867,0.02033244942353835,0.4284446950040668,0.37377929687,0.5185546875,0.0007461020246716691,0.027276798676740162,1.0237752402704736,0.98448969914,1.10473069669,0.0003563308135438048,0.018850417730214133,Null
0.07818795889842407,-0.14599609375,0.22766113281,0.008274554998786916,0.09083416577556502,0.946542996727937,0.75952148437,1.12658691406,0.004576728251152316,0.06755452920879394,0.3509808297109455,0.10900878906,0.55969238281,0.012079472974075656,0.10974908338415784,1.0230155282358453,0.84191011344,1.15154728924,0.003135131986475063,0.055911973675299625,Null
