avg_accX,min_accX,max_accX,var_accX,avg_accY,min_accY,max_accY,var_accY,avg_accZ,min_accZ,max_accZ,var_accZ,avg_magnitude,min_magnitude,max_magnitude,var_magnitude,avg_pressure,min_pressure,max_pressure,var_pressure,slope_pressure,Label
-0.5958671979965592,-1.01135253906,-0.4990234375,0.02409972849576927,0.739585958498387,0.45361328125,0.919921875,0.018692243027482205,-0.2671147828431183,-0.4873046875,0.01989746093,0.033514790094182664,1.0223364557847312,0.83703963985,1.15388508533,0.003750169247555611,970.4948574950337,970.48075851004,970.50678331345,5.1193905210469525e-05,-0.00011486661977479631,Null
-0.9576721191383999,-1.02978515625,-0.87255859375,0.0018546937617094229,0.36233886718389996,0.24536132812,0.46105957031,0.003852154293484838,-0.14891235351159998,-0.21948242187,-0.08020019531,0.0009647854335138134,1.0369535374399999,0.95490346766,1.12472309572,0.001952030117976638,970.5066877769437,970.48718338022,970.51962076182,8.757013420892542e-05,0.0002980740330169558,Null
-0.4941589355428,-1.15893554687,-0.01782226562,0.2065530763652,0.11410034179800002,-0.28845214843,0.8173828125,0.11997344767402823,-0.6440502929652,-1.01330566406,-0.21948242187,0.09461923434908012,1.0293022065865,0.71485402667,1.46123671909,0.029781807842800836,970.586293691696,970.51484142976,970.67510190343,0.0028174446108635283,0.0006761373166560598,Null
-0.3181982421838,-1.02014160156,-0.04064941406,0.08383555932531739,0.3056030273409,-0.29272460937,0.50817871093,0.0564297532480054,-0.8297912597616,-1.083984375,-0.32946777343,0.03925069455378646,1.0247973898453,0.80926407565,1.16615403214,0.010816185097668372,970.4718946804994,970.39308862383,970.55440017628,0.0014621809479784503,-0.000609870521128762,Null
-0.9655712890587,-1.12243652343,-0.79943847656,0.008812687589680176,0.3018395996058,0.22412109375,0.37878417968,0.001837814713647989,-0.22617187499590002,-0.32946777343,-0.04455566406,0.006470270229243319,1.04094587716,0.88986217724,1.20789868317,0.00805052607738209,970.4652369741862,970.39308862383,970.49099296962,0.0007207134047061472,0.0008121029870403826,Null
-0.9469665527291999,-1.0146484375,-0.88269042968,0.0012477956562866501,0.3119055175737,0.21862792968,0.41125488281,0.003268377845727243,-0.1558154296843,-0.21826171875,-0.07727050781,0.0019436696322930125,1.0116348698825002,0.93518914887,1.07013250494,0.001312410861254708,970.5086803902786,970.48680853964,970.51727409591,4.855861036574219e-05,0.0002196681885346347,Null
-0.9222961425738998,-1.10754394531,-0.66723632812,0.014161269585021632,0.3620434570281999,0.23327636718,0.53332519531,0.005596651880416274,-0.26026245116880004,-0.38159179687,-0.18115234375,0.0028380216537440294,1.0301480503282001,0.82036370617,1.18093851841,0.010714304006611152,970.5175976175192,970.50724383596,970.54020034828,6.680227871513749e-05,-0.00013468142281718057,Null
-0.2176904296866,-1.02551269531,0.17407226562,0.15550599461571601,0.5738049316368999,0.26159667968,0.79638671875,0.017100804952509034,-0.7092297363236,-1.38598632812,-0.18395996093,0.08781609797015819,1.0394536513330002,0.66055451743,1.56285063147,0.05757860296160342,970.5364941721564,970.43970155636,970.63153944358,0.004132867751977761,-0.0018079937593902873,Lift Up
-0.8194445800746999,-1.62622070312,0.05065917968,0.23701179867174046,0.6256481933551999,0.18981933593,1.03369140625,0.0673119153931305,-0.12813720702829998,-0.36791992187,0.16162109375,0.02297678153256644,1.1446521974411998,0.71955053695,1.76943353463,0.09408390204191927,970.4534364209421,970.40647721146,970.50629146354,0.000673263154864246,-0.0003227060249868333,Lift Up
-0.863702392574,-1.57446289062,-0.5048828125,0.10080802120747803,0.5758532714810001,0.17004394531,0.91723632812,0.043371296258754154,-0.32911010741789987,-0.63842773437,-0.1416015625,0.018030819644417276,1.1387064312491,0.79086182594,1.78160712777,0.050341389080913596,970.5457720757281,970.46228119997,970.66862962714,0.004852468131819907,0.002038701301987654,Lift Up
-0.7115063476519998,-0.91162109375,-0.48327636718,0.010402767411371305,0.6101867675745,0.21081542968,1.02136230468,0.02907133896410614,-0.2457324218712,-0.5732421875,0.0087890625,0.018458127349333928,0.9868368449754001,0.59481388697,1.33491326269,0.02268641416036172,970.5326335040211,970.42028163043,970.63776463522,0.0056949004155064185,-0.0005409898059473091,Lift Up
-0.6709069824183999,-1.02966308593,-0.57409667968,0.012925313354432479,0.7767602539024999,0.60095214843,0.85510253906,0.0034294091030304674,-0.0789318847631,-0.18786621093,0.09509277343,0.004345836029499496,1.0377727932375003,0.96815694837,1.24972382117,0.003256662679730146,970.4779923325917,970.41525659429,970.5122643382,0.0007374103428108068,0.000828426964766132,Lift Up
-0.5905212402308999,-0.61730957031,-0.56201171875,0.00019019853435539057,0.8355847167921999,0.81091308593,0.85974121093,0.0001498610970350073,-0.09514648437020001,-0.12683105468,-0.06970214843,0.00015100545352712596,1.0277962608695999,0.99544456869,1.04148625083,9.192744370759595e-05,970.5113376624076,970.49858408524,970.52665897734,8.768171091495604e-05,5.99559935592723e-05,Lift Up
-0.5776574706994999,-0.59252929687,-0.57153320312,2.4681156027144763e-05,0.8357641601516,0.82202148437,0.85107421875,6.685087778257045e-05,-0.11886230468359997,-0.15307617187,-0.08276367187,0.0004613718842274572,1.0233145018334002,1.00494953968,1.0349269181,5.1338222255596355e-05,970.5019048298851,970.4952350039,970.50944233604,1.583466208795995e-05,-2.1028611643089376e-05,Lift Up
-0.579956054684,-0.59948730468,-0.56726074218,5.3176976211480034e-05,0.8357226562468,0.8046875,0.85229492187,0.00016826485141092757,-0.116718749996,-0.13757324218,-0.08581542968,0.00013194382793842722,1.0240402132531998,0.99902084961,1.0421458652,9.711471492823081e-05,970.5155145300638,970.50419972246,970.54338128937,0.00010196569502158144,0.00014119233832391454,Lift Up
-0.5789257812468,-0.60009765625,-0.54931640625,0.00017946426314245778,0.8333593749959999,0.81750488281,0.845703125,7.201604169685626e-05,-0.11749999999720004,-0.14233398437,-0.08911132812,0.00020300629164690553,1.0216863523320001,0.99796697964,1.03716078952,5.6663915535878124e-05,970.5008122016902,970.48497661764,970.52390789755,0.00010463866311107085,-0.0001961685982052701,Lift Up
-0.6065673828088,-0.68237304687,-0.55212402343,0.0011385233715203794,0.8135595703083999,0.74938964843,0.87585449218,0.0011814745026592064,-0.1314501953088,-0.18237304687,-0.09826660156,0.00035564547837437074,1.0242589873324004,0.94659958853,1.074264782,0.0006310423902771953,970.4943023094733,970.47941861513,970.51808839952,0.00012062581820577863,-4.769582346651027e-05,Lift Up
-0.6281356040851515,-0.6904296875,-0.5615234375,0.0016771161575248456,0.8028860381123233,0.73779296875,0.84680175781,0.0014144139906733493,-0.07890551017585858,-0.1240234375,-0.04443359375,0.0006679229037607342,1.0241999418522225,0.99983769828,1.05551118828,0.0001438174406372532,970.505858932249,970.48603775306,970.53405631379,0.00015812395542240485,0.00011830605417610614,Lift Up
-0.6203687263219191,-0.63073730468,-0.60192871093,4.7993239750492665e-05,0.8668582800624242,0.82604980468,0.87878417968,0.0001751103737493001,-0.06353204900131314,-0.07543945312,-0.05249023437,3.275618039549535e-05,1.0678864067098992,1.02380739327,1.0836137155,0.00021098443373030013,970.4990089018788,970.47561280185,970.51091349797,9.112175676598334e-05,-0.00022221339446235682,Lift Up
-0.5977260044612245,-0.837890625,-0.21740722656,0.016983958863704674,0.5879441864596938,0.04028320312,0.98571777343,0.1219583946608035,-0.3624379683468367,-0.79821777343,-0.06359863281,0.09353623902880201,1.0252327129736736,0.69364156219,1.18178204407,0.013457592340292337,970.376785755714,970.21517511324,970.48082349455,0.008612881049400547,-0.0027822184091118064,Lift Up
-0.6309915129626805,-0.8955078125,-0.55749511718,0.006886117057978304,0.3806970340646392,0.00012207031,0.62585449218,0.044920846112405266,-0.539859103170103,-0.79406738281,-0.24084472656,0.029697689566924923,0.9520620198524741,0.82614797643,1.19103849394,0.00886204265898106,970.1829307639559,970.10344084461,970.29948514981,0.002517134234549422,0.0005633984929439697,Lift Up
-0.7463517336458765,-0.92419433593,-0.634765625,0.005330040701971333,0.7069934962895875,0.50854492187,0.96618652343,0.00904097357179419,-0.023359475675773195,-0.25708007812,0.14501953125,0.012416248887495047,1.0382058252623712,0.86241272781,1.26217271769,0.006129338478842031,970.0375755514424,969.99370251371,970.10344084461,0.000933522780779915,0.00014848545836884113,Lift Up
-0.8188602408153607,-0.99035644531,-0.3720703125,0.039948441238086614,0.42553459245845365,0.27880859375,0.76428222656,0.012176389489010548,-0.31551400410484537,-0.58203125,-0.08374023437,0.017838828377824998,1.0017640191085566,0.7250635929,1.15265573707,0.01704785553255411,969.9987077766795,969.95803458457,970.09591207239,0.00044055372657941387,0.0004238320400161668,Lift Up
-0.9220860799117708,-0.99560546875,-0.83203125,0.0023238908237531194,0.42135747273395835,0.30395507812,0.63488769531,0.011925823357295456,-0.07037099202156251,-0.18041992187,0.04125976562,0.004229970975328329,1.0244397051658334,0.92104280216,1.08127276143,0.0015637025972958878,970.0391122660361,970.02381608809,970.06247616608,9.975345413676538e-05,0.0002502736347562306,Lift Up
-0.9431204288530849,-1.09204101562,-0.70690917968,0.007785120611222823,0.32777826836351065,0.251953125,0.47204589843,0.004538558600662022,-0.1709088264590425,-0.22692871093,-0.12817382812,0.0005768725499194629,1.0169459087576596,0.85513743425,1.18159677093,0.005032870328469884,970.0569394372544,970.05151484062,970.0665797366,1.8080300593121083e-05,8.386026548411752e-05,Lift Up
-0.9433892432654253,-1.14807128906,-0.71166992187,0.012553361694971172,0.409358897103617,0.16979980468,0.71618652343,0.02452427107212754,-0.08402073636702127,-0.21911621093,0.19201660156,0.014416368042193239,1.0518570995335108,0.91359631966,1.26657286812,0.0092587872729487,970.0591921220123,970.03475719845,970.13148304623,0.0005942438340369748,0.0002467966668220121,Lift Up
-0.9782688592035483,-1.18798828125,-0.78271484375,0.013481749457876408,0.3278217930906452,0.05395507812,0.50146484375,0.01574574722323906,-0.1878557102618279,-0.51452636718,-0.01916503906,0.01622856202827825,1.0636879684111828,0.84681491145,1.26258448374,0.01344663399294848,970.0489848191514,970.00414000073,970.14110376441,0.001833338961530275,-0.001057290767959844,Null
-0.9760505922340859,-1.2626953125,-0.64270019531,0.02343587229391569,0.3252596291130107,0.21655273437,0.39270019531,0.0019321488918050411,-0.19573383946139788,-0.29150390625,-0.01306152343,0.0035582627020468776,1.0504085074399998,0.72387952627,1.31752546144,0.022277075360917904,970.0434243898709,970.02276543259,970.05425305852,5.868980449062705e-05,3.91988578118687e-06,Null
-0.9952856976020652,-1.07592773437,-0.90283203125,0.0023177216480609678,0.3232076893643478,0.01403808593,0.50012207031,0.011422674186369422,-0.10866115404021744,-0.36486816406,0.14221191406,0.01807682819832527,1.0654291201648916,0.96365348665,1.16560690152,0.0032313748991036613,970.0495828245512,970.02276543259,970.08765212775,0.00031055875500236147,9.289820521670953e-05,Null
-0.9216456151238461,-1.11547851562,-0.68139648437,0.01285642346930737,0.3899489182654944,0.23608398437,0.91687011718,0.032227672903848335,-0.2214355468710989,-0.27368164062,-0.15942382812,0.0012457897266449454,1.0417705501009886,0.82265999368,1.25337237582,0.011182269649066842,970.0584628090048,970.03094649984,970.15434800478,0.0009250359424383423,-0.0004222682013256064,Null
-0.9790039062457142,-1.25024414062,-0.64868164062,0.030591202444452,0.3430189195535165,0.2412109375,0.40112304687,0.0018881431865724386,-0.19471422132219784,-0.33642578125,-0.07922363281,0.003741458076496277,1.0589732007217583,0.73476896472,1.32068836347,0.028738597418064737,970.052706470915,970.04074705494,970.06542261757,5.158022728849296e-05,6.505928042848318e-05,Null
-1.0331695891958244,-1.40563964843,-0.67712402343,0.0376355144931051,0.39310128347835155,0.25854492187,0.89233398437,0.025913359816166198,-0.19235464242505493,-0.27429199218,0.03625488281,0.005868215387595214,1.1328372393095603,0.74259273107,1.59401587063,0.0447946300248535,970.0678795580621,970.04214360299,970.11949522783,0.00039744436017829,0.000540361316931342,Null
0.5350857204825555,-0.50695800781,0.83630371093,0.07166624202344099,0.7886990017337777,0.36791992187,1.32788085937,0.050937224297504746,-0.058569335935888894,-0.39575195312,0.39892578125,0.03348707188272274,1.0001487197296668,0.56743851353,1.5562397765,0.06659185755601617,970.0490433688267,970.00983921765,970.23887300197,0.002505687409730302,-0.0005724619370887828,Stairs Down
-0.005765047940795442,-1.43505859375,0.7197265625,0.5707443256194974,0.6353898481852273,0.26879882812,0.86181640625,0.027927328605739044,-0.14731251109625,-0.67932128906,0.0751953125,0.04266070889542561,1.0097951381192045,0.70884629683,1.55081847408,0.04027036303126106,970.1039859037274,970.04932221148,970.24465089109,0.0026002483196712885,0.0008118204305066638,Stairs Down
-0.9632979832303371,-1.74060058593,-0.54846191406,0.08832635288293635,0.34931174288584266,0.11315917968,0.55432128906,0.013412790527162809,-0.24277042002752808,-0.46520996093,-0.01904296875,0.009478178130094215,1.0646588419220224,0.61830736521,1.84132336287,0.08633850970402622,970.1992056165233,970.1151764829,970.27927507427,0.0015232047036880616,0.0008317362509493055,Stairs Down
-1.0096657492863637,-1.640625,-0.5419921875,0.05635409538268779,0.331452803175,0.10021972656,0.6123046875,0.0156311391050814,-0.15918801047295456,-0.34887695312,0.1181640625,0.013333711060623202,1.0867739997418182,0.59244742061,1.67263421975,0.05856389304076147,970.3030171674135,970.21481474623,970.4186137432,0.0028744763640039463,0.0018513040569953232,Stairs Down
-0.8906513560867046,-1.25561523437,-0.43493652343,0.04077759948542301,0.35643976384511367,0.24353027343,0.57336425781,0.0064848280875681045,-0.23873762650420458,-0.47290039062,-0.05883789062,0.010672495794732229,0.9992781408613635,0.61899184596,1.40940468116,0.03643864230277813,970.381543006431,970.33282911828,970.45332627573,0.0006161625357086314,0.0007896180722124271,Stairs Down
-0.9630842537677011,-1.29724121093,-0.59350585937,0.031367372479226496,0.36908309760758623,0.09106445312,0.82177734375,0.025261266577929056,-0.3004725664465517,-0.57092285156,-0.16162109375,0.01172907436981924,1.0862256547519538,0.66101006589,1.42392434212,0.04220834896244996,970.4433538159395,970.40391866676,970.4840713447,0.0005044523102472381,0.0003264675959241703,Stairs Down
-1.015554028884186,-1.23303222656,-0.66430664062,0.02522257477552235,0.36006767804825585,0.28649902343,0.46850585937,0.002092702753983495,-0.257373898525,-0.33630371093,-0.16125488281,0.0028525550146410914,1.1098487657341858,0.75041831788,1.31771313687,0.02559036538128327,970.4655063525445,970.45242877799,970.4840713447,6.677838821034622e-05,0.00014019690674545315,Stairs Down
-0.9622059087597701,-1.23706054687,-0.63879394531,0.03320324086724074,0.33700666756034486,0.24877929687,0.39929199218,0.0015415032815808984,-0.22647410425275866,-0.30773925781,-0.11511230468,0.0029583499493529594,1.0464235840548277,0.71965983067,1.32150105582,0.033355023745276303,970.4709519444185,970.46085644142,970.48359293062,3.6192252513737644e-05,-3.0056818801263006e-05,Stairs Down
-0.987431066172,-1.4052734375,-0.38293457031,0.08044148713566435,0.3630040785807059,0.18981933593,0.57751464843,0.008487449298426573,-0.21953268611800003,-0.31628417968,-0.07604980468,0.004602247510029293,1.0783045213816467,0.43411270222,1.50908698439,0.08568490574059076,970.4648985881257,970.43637779918,970.50435098969,0.00028770904140517576,-0.00021656227610754953,Stairs Down
-0.9161118451259999,-1.4580078125,-0.33642578125,0.07776714722796661,0.4861141429197646,0.17419433593,0.81652832031,0.029164256406229702,-0.26827177159482346,-0.57800292968,-0.04895019531,0.029491448761534263,1.1029825855810589,0.61977031948,1.6832908349,0.06656806341207985,970.4738570872047,970.43937549569,970.53751716342,0.0011126712454289777,0.0008183841435387862,Stairs Down
-0.8151668772941176,-1.52087402343,-0.11767578125,0.12220306357609094,0.5249511718710588,0.1591796875,0.97387695312,0.04689089464261624,-0.2968520220554117,-0.54553222656,-0.06970214843,0.018274138546667717,1.0457762120536473,0.21799775617,1.61850689771,0.12113286675363719,970.5156742853916,970.47219243621,970.5578385014,0.0004701040388108361,-4.529367624208178e-05,Stairs Down
-0.9522036597801191,-1.39099121093,-0.55041503906,0.04729475759782672,0.36198788597071424,0.18957519531,0.54187011718,0.006131607049552539,-0.16678437732107143,-0.33715820312,-0.03479003906,0.005904304973990371,1.0384867868875,0.65813527196,1.44207664344,0.04626437982108098,970.5994319383889,970.51852223711,970.66811764079,0.001346905676712903,0.000653664121477745,Stairs Down
-0.9369793627599999,-1.44116210937,-0.61560058593,0.044145648466575656,0.31867999340855424,-0.02331542968,0.48461914062,0.010122541505410594,-0.18836478727000003,-0.3779296875,-0.02319335937,0.007914400393204492,1.019157181092048,0.73346543291,1.4678817374,0.03818060759792721,970.7158122970891,970.64630814452,970.78921956389,0.0015011971232911164,0.0014167936280833219,Stairs Down
-0.2570219494035715,-1.41845703125,0.71826171875,0.3956361052011486,0.8224850609148808,0.32849121093,1.47692871093,0.08558026666345298,-0.19288417270964284,-0.55895996093,0.03796386718,0.02534307091241017,1.0714719096436904,0.47673066095,1.83018544634,0.1338162324400536,970.8181663426733,970.76732366578,970.87976866379,0.0008817605506421823,-0.00015826603091806152,Stairs Down
0.44049072265402445,-0.27978515625,0.90466308593,0.09013688683741328,0.8340349895160974,0.54321289062,1.1865234375,0.04161360931684476,-0.08964724656914634,-0.48754882812,0.21862792968,0.027144432345287395,1.0134953526591464,0.73116657767,1.31762379223,0.02780652892019447,970.9026968401307,970.80844383549,971.0168740039,0.0030343526756091465,0.0009757035339509761,Stairs Down
-0.3019275200045122,-0.66955566406,0.02526855468,0.038074767793919925,0.7883032821993902,0.455078125,1.16101074218,0.0459087928960015,-0.553719869470122,-0.91467285156,-0.16247558593,0.036394584613251374,1.0562052608220733,0.79636570606,1.34535779245,0.022806682333390987,970.8845573979754,970.82243778262,971.02281034881,0.0033585566059465702,0.0010915279822977435,Stairs Down
0.1606165874425301,-0.94873046875,0.84606933593,0.33699833413332303,0.778833596099518,0.39416503906,1.09643554687,0.03545167560942088,-0.1441870999608434,-0.78674316406,0.34582519531,0.08889841856813867,1.014908509146988,0.61175098358,1.59229998916,0.07988255030988474,970.8937289489401,970.82274668316,970.98068567858,0.0018851186722561,-6.528481755521888e-05,Stairs Down
-0.9874779971990124,-1.42858886718,-0.45397949218,0.06762938717909643,0.3807825159097531,0.20886230468,0.52990722656,0.007743720503404624,-0.22724518952111114,-0.30712890625,-0.10534667968,0.002535927585563203,1.0923332926814817,0.65633619968,1.48503355676,0.05619746442248661,970.8820922266559,970.84458564873,970.90698936066,0.0002580875348015489,0.0005101178160566983,Stairs Down
-0.9551926601040741,-1.59509277343,-0.44982910156,0.07090590162018434,0.3472945601817284,0.16552734375,0.85717773437,0.020849956364924763,-0.17114860628493825,-0.44262695312,-0.05603027343,0.007687315680571916,1.0484648289295062,0.48477127416,1.61995788674,0.06200079951435424,970.9106807308376,970.88123005054,970.98603284273,0.0007573483583121039,0.0007292191265322042,Stairs Down
-1.0212417414123458,-1.56140136718,-0.72912597656,0.040109480728805005,0.3634967568451852,0.2060546875,0.51635742187,0.008476724576760906,-0.199417679394321,-0.37963867187,-0.01635742187,0.012253979759094733,1.1128052205192591,0.82684401637,1.58248829774,0.037042930479148854,970.9606151806897,970.91486550193,970.98373482471,0.0003511576391137227,0.0005593328444649316,Stairs Down
-0.963639831539125,-1.59020996093,-0.60339355468,0.0781467329639456,0.41159973144275,0.16796875,1.01037597656,0.035764609249113066,-0.14781188964475,-0.38342285156,0.04321289062,0.009563494473560344,1.0692615466965,0.62650766917,1.88654319862,0.09972209069166897,971.0427156457263,970.96831944927,971.15365723754,0.002737420594051797,0.0015526567633045187,Stairs Down
-0.7504699707004999,-1.61499023437,0.56311035156,0.2056845268477363,0.58822174071925,0.16906738281,1.55944824218,0.10840008801799025,-0.19361724853112502,-0.43725585937,0.04443359375,0.022409012043222532,1.061739860553125,0.40851785308,1.89458165445,0.15361372880142238,971.1727995204617,971.06318274618,971.36270813146,0.006335601542374842,0.0028413731598533436,Stairs Down
0.704110717769,0.439453125,1.18176269531,0.029136471271447355,0.76171417235975,0.38208007812,1.623046875,0.08994496564534818,-0.003013610839,-0.26245117187,0.38122558593,0.018523033884183228,1.04967019155225,0.6389928472,2.04356971348,0.11145961416373107,971.2209996517234,971.18269429605,971.2884291338,0.0009337999265389158,0.0010184851462468644,Stairs Down
-0.21260167375354425,-1.66101074218,0.75024414062,0.6896596761685047,0.6298287307121517,0.2275390625,1.23876953125,0.09949956710044427,-0.12579113923936708,-0.427734375,0.16870117187,0.025957049031525906,1.0891234872715192,0.59143125614,1.72470847219,0.0772939103798647,971.314279421889,971.27986831949,971.35717449591,0.0006458573429446513,0.0006191698789063829,Stairs Down
-0.9745027566215189,-1.21557617187,-0.69677734375,0.017442578064735866,0.32525248466797474,0.234375,0.39099121093,0.0015986312793373684,-0.2199954262225316,-0.30676269531,-0.0615234375,0.0031839480689532618,1.052466898216456,0.78732344222,1.27966967676,0.016325460624096174,971.3625322534936,971.34327078355,971.37578855971,7.041744080108784e-05,0.00022026075047593417,Stairs Down
-1.0129488431447435,-1.34777832031,-0.65942382812,0.033400796748365165,0.3377888997366666,0.19250488281,0.50537109375,0.008123483524964111,-0.25002034504794884,-0.31518554687,-0.16809082031,0.0016113710931778989,1.0997634203929487,0.72106145205,1.46176692041,0.03624459622450041,971.3646745637831,971.34816495001,971.38861601196,0.00013328950395036362,-0.00011868209538231107,Stairs Down
-0.9740209334905126,-1.1953125,-0.6904296875,0.019614703757421612,0.33232390574487186,0.25854492187,0.43054199218,0.0019076119536777178,-0.19508557441551289,-0.27893066406,-0.07263183593,0.0028278950454467943,1.0498342684228208,0.74283857398,1.26523811408,0.019348432794453686,971.3615212990951,971.3519152123,971.38141688014,9.390299755332142e-05,-0.0001515462435574121,Stairs Down
-0.9184085161212818,-1.28491210937,-0.45715332031,0.0491686480156011,0.3085311498361539,0.11669921875,0.60290527343,0.016138585644535113,-0.2012532552048718,-0.47436523437,0.03857421875,0.020072849797900052,1.00552907093859,0.63928787901,1.43809504217,0.05304536896930288,971.3850274831153,971.34423655099,971.46343046119,0.0012697627004549805,0.0012552334080371149,Stairs Down
-0.9317944018836363,-1.82788085937,-0.45373535156,0.10096418873404707,0.5022400694971427,0.29553222656,0.89294433593,0.0237450163481518,-0.2779636135300001,-0.58923339843,-0.15051269531,0.01380692726913456,1.1067328462684414,0.63760228084,1.94506608022,0.11105152131966907,971.4462499318373,971.39064562011,971.57217399579,0.002117389452519977,0.0015921854474947972,Stairs Down
-1.0431177708983117,-1.59338378906,-0.64025878906,0.05344254234205016,0.3811922940297403,0.09228515625,0.85339355468,0.04011230509369973,-0.1559313489203896,-0.27221679687,-0.01525878906,0.0035452172770916476,1.1348049127766235,0.65259229756,1.81440484729,0.06663911243601231,971.5735180862296,971.4936665724,971.62943797037,0.0018952715016192906,0.0016600695840145463,Stairs Down
-0.6202103464205265,-1.39440917968,0.78552246093,0.3067701819975291,0.5905617161764473,0.15307617187,1.29113769531,0.1109298423799406,-0.2395983244214473,-0.4326171875,-0.06494140625,0.008103696233324043,1.0590874062826316,0.57827140913,1.62986875588,0.0905578277835939,971.7062490027395,971.61462076739,971.78294227205,0.002276822468163795,0.0016497202679974482,Stairs Down
0.6422895951664933,0.26318359375,0.84033203125,0.027905022591872154,0.6728816837415583,0.21240234375,0.98266601562,0.035144041304336675,-0.12493183086129869,-0.50085449218,0.21398925781,0.025093554859181348,0.9651914931572726,0.41654426048,1.26661803882,0.041956254785949124,971.7823155275312,971.73847415513,971.8192655129,0.0007459549580524689,0.0008997375047562966,Stairs Down
-0.08793081888439024,-1.19506835937,0.70837402343,0.6155737072004762,0.725529368327439,0.3759765625,1.27075195312,0.04997288746404133,-0.1194785513514634,-0.32385253906,0.10144042968,0.014876505216435403,1.087472262557561,0.6396596893,1.40305748524,0.04483008060131401,971.8453806010474,971.79468610252,971.89995716706,0.0008432462228491235,0.0008662848745757295,Stairs Down
-1.003849283849238,-1.29382324218,-0.65759277343,0.02543334406886196,0.362763904386,0.22106933593,0.52062988281,0.0065158028224869555,-0.18842192150028575,-0.28686523437,-0.10815429687,0.003267645830369432,1.0876250137650476,0.70318317172,1.34823046627,0.02702445540925657,971.8895255493843,971.86367619393,971.91416861806,0.00019310558803616157,0.0003897466700638096,Stairs Down
-0.9768530804136957,-1.19592285156,-0.65026855468,0.03222057742154258,0.32942796789804346,0.2392578125,0.412109375,0.0027704101698857748,-0.22384643554347824,-0.32727050781,-0.14501953125,0.002039873870136497,1.057039459734565,0.7361042178,1.28236464536,0.0325213793692573,971.9085689539485,971.89474541741,971.92512296105,7.643360751528174e-05,0.00016739732785479963,Stairs Down
-0.977345784502262,-1.32092285156,-0.62475585937,0.03116466848548478,0.30040777296809523,0.14587402343,0.41052246093,0.004606224094238778,-0.19689941405821423,-0.28100585937,-0.05383300781,0.0034483570650480334,1.0450132123095235,0.68711140877,1.35147837007,0.031291246551766065,971.9078633954795,971.89239678283,971.92311567006,9.177000180208688e-05,-2.088826659192763e-05,Stairs Down
-1.020144092789796,-1.55224609375,-0.64538574218,0.04934217173419341,0.2588314134220408,0.01000976562,0.50817871093,0.012224846925307974,-0.13113714723734693,-0.27514648437,0.06652832031,0.007117954351267935,1.0689260746818368,0.65642494185,1.59796701034,0.050783978680286994,971.9687765704872,971.90954606704,972.0361580748,0.0011872854851713772,0.0011417270012823635,Stairs Down
-1.031775272249899,-1.8994140625,-0.28540039062,0.1514089029830926,0.36457346906131316,0.04260253906,0.73010253906,0.04004752545052136,-0.24556107954373738,-0.71337890625,0.08605957031,0.044996372732813525,1.1483303903771716,0.30579568387,2.01945963645,0.17494307590101207,972.0643043825992,972.00350141678,972.15008592934,0.0015391023824238913,0.0009770596179989725,Stairs Down
-0.8512503884011363,-1.21728515625,-0.45788574218,0.0392471404112219,0.53945784135,0.19445800781,1.06811523437,0.06435924734023125,-0.2749619917404545,-0.67700195312,0.00537109375,0.026467180112909695,1.071932473892159,0.50670088363,1.5642838833,0.07161613350404551,972.1877772802471,972.08688893981,972.28035035843,0.0032852192577812835,0.0017634755063167618,Stairs Down
-0.8333489833703848,-1.90832519531,0.29968261718,0.3371346509118711,0.6018066406202564,0.13073730468,1.02355957031,0.058432853841175234,-0.1569401667642308,-0.37561035156,0.04553222656,0.013660240028710243,1.1499291004503844,0.53759196015,2.16953751106,0.16503207168741765,972.4071680350156,972.24453032203,972.65311504323,0.009834764962154104,0.004049010252658577,Stairs Down
0.281190490720875,-1.33947753906,0.99340820312,0.6065997175705445,0.663261413571,0.185546875,1.3154296875,0.10315415596807787,-0.056211853026875,-0.45666503906,0.35290527343,0.043760904779134205,1.08378820990325,0.61539848197,1.68575124286,0.0928025588749936,972.5518380863123,972.45885167809,972.65065661416,0.002663305311730799,0.001196020322689858,Null
-1.040163436022453,-1.31213378906,-0.73217773437,0.02873925793182371,0.33976083431283016,0.19873046875,0.46276855468,0.005927015073893157,-0.23037086342518867,-0.45690917968,-0.0546875,0.00864275109765355,1.1230246402366981,0.78039496362,1.45861927759,0.03247056479638551,972.6267856674758,972.57539371043,972.65813794858,0.0008148349391040257,0.000820430554453466,Null
-0.9961318149318279,-1.2919921875,-0.75134277343,0.014703504734430235,0.3286198441672043,0.15966796875,0.62670898437,0.015595334173956229,-0.18087276335376337,-0.34094238281,0.0791015625,0.0135073569742414,1.0764595169179572,0.78017208123,1.35119670261,0.017745432277704067,972.6469581598953,972.62909100598,972.68402220251,0.0002361372354409709,-0.00023871552908023762,Null
-0.9672328403990478,-1.01330566406,-0.90515136718,0.0009876217776512892,0.28970336913630956,0.26123046875,0.31970214843,0.0002666546188753105,-0.1919889904157143,-0.25927734375,-0.15356445312,0.0008131342304687644,1.0281450939910712,0.95996762774,1.08436414234,0.001303160183995068,972.6168857520645,972.58491708676,972.63759456004,0.00021040648931191857,-0.0005645636785532869,Null
-0.9668815768442858,-0.98596191406,-0.95788574218,3.787273235886086e-05,0.272685148274898,0.25317382812,0.29455566406,0.0001470694510920734,-0.15083530970632655,-0.17761230468,-0.11999511718,0.00019414070035274748,1.016010369947245,1.00411550218,1.03562262483,6.729390715920781e-05,972.5460393012526,972.49532168656,972.58669675533,0.0006781076681264903,-0.000905778395387943,Null
-0.9621843610454083,-0.96911621093,-0.95568847656,1.52631672369405e-05,0.27799022440591836,0.26330566406,0.29357910156,7.412151246891482e-05,-0.16798494299744898,-0.19421386718,-0.1474609375,0.00017459203217361558,1.0156524747841837,1.01116974121,1.0214502245,7.662304604989199e-06,972.4859170676028,972.47755053386,972.49668772601,2.7188965470892677e-05,-0.0001666970762054454,Null
-0.959067158311494,-1.04321289062,-0.77661132812,0.002661061666215399,0.31971056707609197,0.21545410156,0.55419921875,0.008729752341373163,-0.2121848621548276,-0.43408203125,-0.12170410156,0.008170064599522181,1.041040965596437,0.99503119399,1.17880555842,0.002647253658201141,972.4828344766934,972.47499893402,972.4970169385,4.071845086653609e-05,0.0001842909472587372,Null
-0.85026855468375,-1.04284667968,-0.50610351562,0.02367700036562511,0.39115447997700004,0.2119140625,0.59057617187,0.012124313562532806,-0.297566223140875,-0.49865722656,-0.06433105468,0.026211655571792638,1.010000021678625,0.8089731957,1.11820736597,0.005713279024479316,972.4808391292441,972.46690768041,972.49967474838,0.00012218468692224097,-0.0002863428371993584,Null
-0.10189700436220778,-1.17749023437,0.76379394531,0.4402280592570435,0.6659094079711687,0.25439453125,1.03747558593,0.04600958108486899,0.07132869571805196,-0.45581054687,0.68591308593,0.10668340303258644,1.009550964190909,0.73621146899,1.3078467728,0.025261818306016693,972.505179436057,972.40881788957,972.60951863859,0.003385900012539187,-0.0011091983048936856,Null
-0.6045388614406862,-1.27233886718,0.17138671875,0.2688843017859083,0.5711382697570586,0.29028320312,0.97338867187,0.044056411773962106,0.075457404642451,-0.24035644531,0.68920898437,0.116565586135823,1.0435497669344116,0.66201868251,1.40627349198,0.033992576193763745,972.4354188469127,972.39950139272,972.48117150585,0.00031480817051681933,2.8441817061160237e-05,Null
-0.9607311130768043,-1.18115234375,-0.61901855468,0.024547443526735383,0.3341769188907216,0.21081542968,0.41906738281,0.0026785805309549175,-0.17817105951618553,-0.27355957031,-0.05883789062,0.005785109734417357,1.037374938094536,0.73180399963,1.26157419658,0.02318649790174283,972.4637213687504,972.44132147362,972.48207366872,7.91379542254789e-05,0.00017977378743010646,Null
-0.9322972790909193,-1.7265625,-0.14013671875,0.22016673422179914,0.6195826037137929,0.29089355468,0.95092773437,0.043747864920507265,-0.27543412131413797,-0.58935546875,-0.0087890625,0.021636920604850285,1.2001294776450577,0.49249392764,1.96929367445,0.17287034533205062,972.4621345602529,972.40330246305,972.50238976208,0.0008085950230210797,-0.0005398065086723929,Null
-0.6061421488628571,-0.97192382812,-0.181640625,0.06107769554262387,0.6488962697424175,0.36779785156,0.83544921875,0.021703185750404832,-0.4399561619978022,-0.68225097656,-0.19580078125,0.021779818612604623,1.040709517614945,0.90700009971,1.14958692626,0.003643511704130608,972.4474530347647,972.43171416664,972.47527786452,0.0002015463247357958,-0.000302679714168928,Null
-0.8478665493463365,-0.95593261718,-0.75732421875,0.004176780020723252,0.455516852951386,0.35803222656,0.51159667968,0.0018665907318279392,-0.33899530089415836,-0.45703125,-0.18420410156,0.009320350103306917,1.027426851922772,0.97595548456,1.08575488002,0.0009057393253549625,972.4746855375731,972.43286668321,972.49491085925,0.00031736908172421156,0.0005658956085482827,Null
-0.8289191277435164,-1.01000976562,-0.64538574218,0.010519516922894252,0.4201244312287911,0.30261230468,0.54345703125,0.00388064656661242,-0.39958844865681314,-0.5634765625,-0.15063476562,0.012013704294295649,1.023642098547802,0.95733841618,1.08327050974,0.001580210891828958,972.4855638273074,972.46900479056,972.50318131214,0.00010051693935506488,-0.00030638883773477434,Null
-0.95454463252,-1.12719726562,-0.81896972656,0.008665771202851022,0.36534740306320995,0.27258300781,0.48547363281,0.005186203411877969,-0.13477014612012347,-0.22412109375,-0.0537109375,0.0025189017670647733,1.0347274387748149,0.8817470079,1.20545835385,0.008408880262565059,972.4980182198459,972.47890683209,972.51033513069,9.053255077041871e-05,0.0003350536659234134,Lift Up
-0.6954978115550602,-1.00708007812,-0.48718261718,0.015445582155094824,0.7041721573760239,0.43078613281,0.90234375,0.015141699052773221,-0.284035556283494,-0.41748046875,-0.0869140625,0.008347649088963457,1.0418899447219279,0.85024658511,1.35549688172,0.013343776567322102,972.5373648117019,972.5097826904,972.57640313219,0.00039531682061399705,0.00018512094210119598,Lift Up
-0.5042125995306731,-0.74584960937,-0.32446289062,0.013139771314368288,0.7252948467512501,0.3984375,0.91528320312,0.016324420376696864,-0.49487304687182687,-0.69970703125,-0.33471679687,0.011479045581110936,1.0294319293291347,0.89086541059,1.17231683666,0.006060017342803702,972.4954464432903,972.37050200471,972.74384125681,0.01794023631502455,-0.003252628676232933,Lift Up
-0.43114053049021506,-0.47180175781,-0.34240722656,0.001692410417411414,0.8647355930738709,0.79406738281,0.994140625,0.0017284189411223346,-0.3799602549527957,-0.51171875,-0.33605957031,0.0021571652347857663,1.0400107380093544,0.96655445334,1.16779084908,0.001936097541036068,972.4564671207486,972.39797363244,972.4879984853,0.0007378821890635675,0.0009199514473810451,Lift Up
-0.444673426007647,-0.45532226562,-0.43371582031,1.9749944787438236e-05,0.8666202320731764,0.85327148437,0.87731933593,3.456668692779626e-05,-0.337778607533647,-0.34936523437,-0.32312011718,3.617583703264696e-05,1.0309857864370588,1.02017455431,1.03943134874,1.7410996496192065e-05,972.497219442312,972.48575494093,972.50619558754,4.356590469307037e-05,0.0002003361020257012,Lift Up
-0.44519166271848476,-0.45288085937,-0.4404296875,8.465226499526652e-06,0.8745758364863636,0.86767578125,0.88232421875,1.3606993347196533e-05,-0.3231768367230303,-0.33544921875,-0.30944824218,5.275963313238863e-05,1.033239756950909,1.02662721456,1.03807497781,1.1575673475274337e-05,972.502447859068,972.49525479572,972.50644561635,6.521030403160969e-06,-3.774531437857238e-05,Lift Up
-0.48155353978402055,-0.52368164062,-0.38110351562,0.0008078179869327956,0.7942045546030927,0.658203125,0.92602539062,0.004522966611446952,-0.44572024000927835,-0.5615234375,-0.31091308593,0.008308649648762014,1.0362022041089691,0.95864685862,1.09189705568,0.0011165430642454148,972.5057093563678,972.4879970952,972.51861021412,6.882046276358642e-05,0.000136622967065477,Lift Up
-0.39746509898375,-0.4580078125,-0.36450195312,0.0007494059269757553,0.8042144775357954,0.64660644531,0.86401367187,0.003542979494030593,-0.47979181462727266,-0.60852050781,-0.36364746093,0.005631219007898771,1.0214260629535226,0.93675509104,1.10893472477,0.0014557933963131938,972.4984587325799,972.4722216881,972.51839702841,0.00021651534440136896,-0.0004947165863060928,Lift Up
-0.4588545787139239,-0.48547363281,-0.44201660156,0.00011359473900798698,0.8539189205851898,0.82421875,0.8955078125,0.0003712320000877835,-0.3696938043872153,-0.38464355468,-0.35400390625,5.31604027895312e-05,1.037575611671646,1.01511144858,1.08391735797,0.00037128337556861595,972.4839796997221,972.47704380124,972.48917596072,1.4387806112580214e-05,2.8247193460387974e-05,Lift Up
-0.47233339113345785,-0.48815917968,-0.45629882812,8.055040642626946e-05,0.8871739467699064,0.85815429687,0.90258789062,0.00016167944616948135,-0.3729966778583177,-0.388671875,-0.34594726562,0.00014433122843232626,1.0721949803637383,1.03194422185,1.0948385884,0.0002662758337018967,972.4624233788312,972.41479588184,972.48665395941,0.0005614277165180617,-0.0007062194244118104,Lift Up
-0.2474482110198936,-0.4609375,0.19836425781,0.06551043995746005,0.9122444315119146,0.75891113281,1.12145996093,0.008401964770780626,-0.11705374210340426,-0.44958496093,0.34924316406,0.08175129982195127,1.0281775024322342,0.85857064144,1.15901906058,0.004023634309093143,972.3283240766125,972.23255619249,972.41301477507,0.0027473028348512225,-0.0018485324048085952,Lift Up
-0.08760052849317647,-0.572265625,0.22351074218,0.0906142230442221,0.9603644875881174,0.75366210937,1.20458984375,0.010419017510751057,-0.1976821001795294,-0.36145019531,-0.07983398437,0.005663765077853236,1.0326912463517646,0.85196856345,1.28179915801,0.008138295449332091,972.1091909941764,971.95679470595,972.23255619249,0.004889672940957867,-0.002598318961223662,Lift Up
-0.5902758789033,-0.60314941406,-0.572265625,4.1194160776109594e-05,0.8218591308552999,0.78369140625,0.89575195312,0.00024471712080810596,-0.16778320312079997,-0.18786621093,-0.140625,0.00016866352823064406,1.0258243353011998,0.99976323722,1.07438900378,0.0001149661500170229,971.8950045458663,971.79505593981,972.0003183469,0.00280972747937609,-0.0017949887221163769,Lift Up
-0.5904767537823711,-0.60546875,-0.56970214843,9.28194354964924e-05,0.814232895051134,0.77856445312,0.85668945312,0.0002704823511278661,-0.17393383536835053,-0.23461914062,-0.13464355468,0.00043329243514491256,1.0209946890260826,0.97804286142,1.05613209021,0.00025180605747118556,971.7089208094834,971.59247109391,971.79505593981,0.0036071006465979816,-0.0021146432128459885,Lift Up
-0.6013323904413792,-0.62756347656,-0.58227539062,0.00011864457895959397,0.7825576957567815,0.73937988281,0.82702636718,0.0004875572988843862,-0.2751689340836781,-0.349609375,-0.22827148437,0.0012415455277834226,1.0253034546544828,0.9780636503,1.06747971467,0.0002978921223409994,971.4949366290133,971.40353105966,971.58055739973,0.0030429146030182307,-0.0021353497748920628,Lift Up
-0.6011978540632049,-0.63244628906,-0.58837890625,0.00012912320379558626,0.7590394631371792,0.73034667968,0.77465820312,0.00010727283919038317,-0.3334350585907693,-0.35986328125,-0.29760742187,0.00030367627937348795,1.0243013740642308,0.99435184236,1.04514517849,9.982788240354873e-05,971.2988754667238,971.24097232713,971.39065057652,0.0022730670333389216,-0.0019765249164649763,Lift Up
-0.5878511316591175,-0.61877441406,-0.54577636718,0.00039233965500910735,0.7107747395799021,0.630859375,0.77026367187,0.0014725715020308878,-0.3327600815678431,-0.43811035156,-0.27893066406,0.002165363996341782,0.9821997154431372,0.93017887305,1.03207894445,0.0007810947326832445,971.0784998867323,971.0033041149,971.18284307489,0.0020614251994517095,-0.0014319823403226458,Lift Up
-0.6246312459266666,-0.64697265625,-0.58715820312,0.00022109212974381258,0.7290712992310416,0.66613769531,0.77746582031,0.0011086796051026976,-0.33019765217687497,-0.38854980468,-0.28881835937,0.0008798715250194101,1.0161322603286458,0.96277230021,1.03835777534,0.00040572421419809887,970.9717057300008,970.92336708362,971.02869323878,0.001345260821116464,-0.0011943896176781635,Lift Up
-0.1595164331894253,-0.63146972656,0.30590820312,0.10790917657141329,0.8610124259124136,0.66259765625,1.10620117187,0.01126559860182022,-0.24633368130149425,-0.60266113281,0.24072265625,0.07402509708889084,1.001691066242184,0.74806963335,1.20880513256,0.015237508237801609,970.9516171776185,970.91638264934,971.00805524289,0.0005299571383611365,-0.00025060041287231546,Lift Up
-0.5290474840352688,-0.60205078125,-0.37426757812,0.007201475913925128,0.8008521295330105,0.73291015625,0.85290527343,0.0006000306692049767,-0.3022014658903226,-0.54309082031,-0.15563964843,0.02388598341821064,1.0213025199080648,0.95678450069,1.08003784573,0.0007039884690330493,970.8900580341166,970.84025079304,970.93253851822,0.0008351612375270862,-0.00022082764493940358,Lift Up
-0.49563110351209994,-0.61206054687,-0.31689453125,0.007454892690354335,0.7984289550746999,0.66040039062,1.01696777343,0.009471781884303206,-0.3497729492157,-0.62902832031,-0.16687011718,0.02242194137790251,1.0193613880786998,0.86450483164,1.21041945789,0.005391508446432793,970.9355242016791,970.91151836823,970.98263469032,0.00047831637188601255,0.00028385414476550286,Lift Up
-0.5406768455892135,-0.73266601562,-0.46252441406,0.001797837544797439,0.8231091445714607,0.61462402343,0.95239257812,0.0068835435403655,-0.22829480117235956,-0.47802734375,-0.09436035156,0.011974592736015754,1.0199360827607864,0.8862961926,1.12427390031,0.0021369130481363376,970.9034434545196,970.8496370016,970.98533156907,0.0010569275378033887,-6.503801973736517e-05,Lift Up
-0.9647653838686421,-1.09655761718,-0.73266601562,0.0036722102420478583,0.333881896215679,0.19299316406,0.64929199218,0.01070045398778663,-0.15090603298382718,-0.23010253906,0.00354003906,0.003708826750549,1.0395000552059257,0.97903481146,1.17299899557,0.0023488939406404482,970.9111243077431,970.88728597404,970.93309146948,0.00015129635351705714,0.00032766533068511995,Lift Up
-0.9403914634593941,-1.02893066406,-0.74255371093,0.006235451919288841,0.34509154040070705,0.0546875,0.75476074218,0.025750803550300207,-0.10351809106515152,-0.35083007812,0.109375,0.017947242873264258,1.029770913920808,0.95519120964,1.22430032727,0.0031733090210052752,970.9328741757079,970.90914965761,970.96463695235,0.0002313556282136219,0.00043067350788135125,Lift Up
-0.6647395497705154,-0.97204589843,-0.36389160156,0.02897299609494867,0.659407468183505,0.43334960937,1.02258300781,0.020442838665392097,-0.33067966736103094,-0.65209960937,-0.07873535156,0.025558377692926817,1.013104378863093,0.71420887337,1.33839385321,0.034219498826404855,970.9258729324439,970.87720364334,970.9622700785,0.0005705620748911936,-0.0002536912713705551,Null
-0.9932320334656819,-1.24829101562,-0.61987304687,0.03240100503602855,0.3860917524815909,0.28344726562,0.50854492187,0.003025829854363893,-0.19098593971568184,-0.40808105468,-0.08056640625,0.007267381904339598,1.0872507302372727,0.69743545985,1.36774825449,0.03450907231932248,970.8882239619415,970.86229321422,970.91192983044,0.00017864887903534327,0.0002532803716099128,Null
-1.0164768670168816,-1.16723632812,-0.89050292968,0.004226597423971622,0.32565077914655904,0.228515625,0.47814941406,0.003419567754734289,-0.01963625672,-0.23889160156,0.12915039062,0.013005719103699534,1.0751549932325808,0.92176912798,1.21608921738,0.00417569519977385,970.9072396720129,970.89453515914,970.92107593998,6.408540316041402e-05,8.514288038418459e-05,Null
-1.003860322551089,-1.21887207031,-0.71398925781,0.017752403870816818,0.36220437228881175,0.19348144531,0.58129882812,0.009648393808450345,-0.14867197168435647,-0.24291992187,-0.06811523437,0.00279804160679068,1.082535375830099,0.79536214909,1.30528977478,0.019238389723930695,970.9175712873198,970.90731776496,970.936905032,6.675027303308342e-05,-8.248806044735998e-05,Null
-0.9871120876703333,-1.25634765625,-0.66369628906,0.03216730543008094,0.31134575737544445,0.04516601562,0.44348144531,0.00830122331603192,-0.1385579427057778,-0.26330566406,-0.04455566406,0.005086479495080066,1.0500334247644445,0.70171478632,1.2914761286,0.03337423089271057,970.9057512348916,970.8913284858,970.92706080813,0.00010595899380237898,2.7355412116426364e-05,Null
0.0338526596253086,-1.21264648437,0.73913574218,0.5139647572528644,0.6516701027160494,0.3095703125,1.33459472656,0.05756993297894829,-0.06024094569679013,-0.32995605468,0.40856933593,0.02755464319880685,0.9726773369970371,0.40798225085,1.50706441139,0.07597887458776116,970.9077978934334,970.79736987985,971.06490014024,0.00466355049121674,-0.000940553002182805,Null
-1.0008639865412223,-1.7314453125,-0.21069335937,0.08475348896777438,0.44518229166299994,0.24926757812,0.80737304687,0.01807283779199121,-0.11208767360822222,-0.23547363281,0.06396484375,0.005488552329871022,1.1119799839820002,0.66576191608,1.86152199599,0.08159226121169516,970.8757370805133,970.82074778636,970.93253581813,0.0004653685923530531,0.0005063367951627901,Stairs Down
-0.8243767233412744,-1.7314453125,-0.34118652343,0.0703623995893036,0.5806896733276469,-0.0009765625,1.14392089843,0.07682728781949552,-0.23877431831823523,-0.47351074218,-0.02294921875,0.01824842848446861,1.0698259068106863,0.44878135616,1.86152199599,0.0940211322904716,970.9418634505023,970.86356098923,971.02117045255,0.0018766454557715398,0.0006387579627647516,Stairs Down
-0.9108371310733332,-1.53039550781,-0.48095703125,0.08930164139500697,0.4212782118023333,0.07763671875,0.77075195312,0.024314077196503858,-0.23492296006622226,-0.38842773437,-0.05908203125,0.007921439959842205,1.0399042346955556,0.53595430497,1.65915722127,0.10221000329039855,971.0214602034083,970.95327933037,971.16971740875,0.0036851706355105745,0.0012487073575097017,Stairs Down
-1.0011354009755422,-1.67846679687,-0.515625,0.080441229130565,0.4459346173713253,0.19018554687,0.89611816406,0.03274173148347293,-0.16345361916,-0.33752441406,-0.02429199218,0.006514795485857304,1.1135446148048194,0.58710224099,1.89830390632,0.0945580753750405,971.1166216497523,971.02859965287,971.20682502738,0.002648300837428962,0.0017659750314543276,Stairs Down
-0.9959752009424039,-1.85620117187,-0.33813476562,0.07685501409285199,0.4578129694975,0.20544433593,0.9921875,0.033281740783508186,-0.19902273324403846,-0.40844726562,-0.01159667968,0.01025230804074818,1.125318215501923,0.45171454024,2.13646359288,0.09497295540950304,971.2222591440611,971.15490714745,971.29851162789,0.0010349965511885029,0.000698462420062357,Stairs Down
-0.9939748663623157,-1.681640625,-0.4814453125,0.07860242144740702,0.4008287931702105,0.12683105468,0.80065917968,0.028355840829742837,-0.20390239514368427,-0.5419921875,-0.03759765625,0.019357097926340838,1.1048097434774735,0.49928878328,1.78811262559,0.09561355718275735,971.2977981498783,971.25272446889,971.36303605199,0.0008200220862178734,0.0006585842041855989,Null
-1.0228285845560001,-1.26037597656,-0.67932128906,0.026288272899394165,0.33116814108129417,0.20385742187,0.4140625,0.0030168318991264246,-0.18690113740388237,-0.26770019531,-0.06616210937,0.0034238811842448166,1.0938634026219998,0.75986421234,1.30756049286,0.026906023154362798,971.3463443508717,971.32479880051,971.36765915138,0.0001521857310413967,0.00025005774969172047,Null
-0.9930685972514101,-1.27416992187,-0.67932128906,0.018149984597832423,0.3790236252974359,0.19384765625,0.60144042968,0.010829992279772648,-0.12553210135935897,-0.23962402343,0.00244140625,0.006330817153718208,1.0808259660726922,0.75986421234,1.32200528713,0.016328811970692185,971.3515530706705,971.3398520892,971.37450774438,4.9479569244291575e-05,-0.00011054730114338076,Null
-0.9761315170573469,-1.06506347656,-0.8681640625,0.0013210995307853858,0.30597671197061227,0.21875,0.39367675781,0.0030047362203166495,-0.136205556437449,-0.20776367187,-0.04248046875,0.002648652509012786,1.034537578805,0.91197138197,1.13726780926,0.0016586838621491077,971.3579494360162,971.34963124026,971.36332196786,2.2769576043247172e-05,0.00012087996463757013,Null
-0.9651638731627552,-0.98986816406,-0.95056152343,0.00011101042957815905,0.2821244220303061,0.26428222656,0.30236816406,0.00012812316230029701,-0.172855299342449,-0.1904296875,-0.14379882812,0.00018939604897574413,1.0204296919114286,1.00501668499,1.04460316726,0.00014340232118321806,971.3652845158783,971.35727506748,971.3728164961,1.1204737516798172e-05,7.260199601325914e-05,Null
-0.9705851694130339,-1.09777832031,-0.86804199218,0.0036275930192897145,0.26787575710674155,0.04516601562,0.37939453125,0.006468674999471257,-0.14535145277011235,-0.21508789062,-0.02136230468,0.0032899908006360124,1.0215501546146066,0.91366227672,1.17668214293,0.004643342565711106,971.3627535225532,971.34903842232,971.3728164961,2.5606165478641066e-05,-0.00013538909482851958,Null
-1.0041676240775292,-1.23400878906,-0.6591796875,0.026980182298876658,0.3517362706770588,0.17553710937,0.55419921875,0.011130340885825424,-0.13199534696388235,-0.28137207031,-0.01159667968,0.008710664306347727,1.0802487798231764,0.73009871223,1.32164328282,0.029169891854583168,971.3577357354577,971.33885622125,971.37797149513,0.0001252480861578358,-0.00026559303138259564,Null
-0.5944789341494287,-1.37036132812,0.59033203125,0.46345033423564214,0.5054327101888572,0.10949707031,1.16174316406,0.11942356455856744,-0.03718261718514286,-0.26428222656,0.46350097656,0.041627182294345894,1.0525041815498095,0.21315434072,1.66487426837,0.12220220478447923,971.3579400784503,971.29312274119,971.44100304027,0.0014257065718268238,-0.00016717270618026036,Stairs Up
0.3358910602057609,-1.37634277343,0.92163085937,0.46521564264561516,0.7132939877692389,0.44445800781,1.16174316406,0.0352484759852834,-0.05792369013173911,-0.55151367187,0.35339355468,0.046202811399324965,1.045959633091848,0.58031089042,1.5709558801,0.07244708361559968,971.2727387322424,971.2027668838,971.34944384496,0.001414337738398393,-0.0007754970862824898,Stairs Up
-1.0325118834679516,-1.34057617187,-0.79760742187,0.021695116408453837,0.40664562546698785,0.18017578125,0.66735839843,0.022434139975004843,-0.1527452583746988,-0.47094726562,0.06555175781,0.01593628944757584,1.1331532939759037,0.90814117712,1.44022179089,0.030444850504527058,971.218363659969,971.18851354226,971.2418641889,0.0002125030935049261,-0.0002817610120085317,Stairs Up
-1.0128597861812632,-1.18603515625,-0.82446289062,0.0116536023668749,0.32782560649400005,0.23193359375,0.45861816406,0.0034884483156042076,-0.1546618009830526,-0.27331542968,-0.02905273437,0.0061676329421299185,1.078313988822421,0.87082983731,1.24787465848,0.011633730116958431,971.1597188201555,971.12609740856,971.19716197508,0.0004440485988099754,-0.0007350070475725574,Stairs Up
-0.987673364501313,-1.2265625,-0.77673339843,0.010336334602085695,0.34604590829828286,0.25341796875,0.44970703125,0.00412940148103405,-0.16469258009505053,-0.35363769531,-0.02770996093,0.008023993612153706,1.0645145594084848,0.82762228804,1.27778867969,0.011558154079193519,971.0979976145182,971.05713447714,971.12807140044,0.000324020640279968,-0.0005575752257668845,Stairs Up
-0.9751881802977529,-1.2265625,-0.79675292968,0.010344656532644504,0.28754690791325843,0.09851074218,0.40942382812,0.008910289477577561,-0.20557052097606743,-0.35729980468,0.00476074218,0.010022697953059038,1.0460685578097753,0.88474000805,1.26886753632,0.01074442828604316,971.019927240613,970.98561428749,971.05713447714,0.0004867409446339512,-0.0008106990179070638,Stairs Up
-0.9828033447225001,-1.21752929687,-0.74548339843,0.01827077612551945,0.31247503106874996,0.12976074218,0.47155761718,0.010251231631816323,-0.1766829057143182,-0.29943847656,0.06335449218,0.011324871350313917,1.0566226545026136,0.83267497739,1.26910581649,0.017906025832012843,970.9556471534642,970.93078411153,970.98856506467,0.00020131339918615012,-0.0004844861456567971,Stairs Up
-0.935027779881165,-1.18725585937,-0.6103515625,0.02356066327409886,0.29096229330708745,0.13244628906,0.46508789062,0.006524152811307951,-0.20414304269854366,-0.28796386718,-0.12731933593,0.00222714787406737,1.0045589613940777,0.71977990417,1.25575745971,0.023700033222047216,970.9018026840348,970.86173252945,970.93078411153,0.00025778950553740287,-0.00044035109863778605,Stairs Up
-0.9208835177913333,-1.26342773437,-0.59020996093,0.02774081432001127,0.40330132378088884,0.19836425781,0.65588378906,0.02160165916375019,-0.18026665581244442,-0.32397460937,-0.01782226562,0.010428518914424362,1.0419601155698888,0.78408442354,1.30183952973,0.01678698821394953,970.8691734107522,970.85575830993,970.88974243727,6.42860776872302e-05,-0.0001539806930610662,Stairs Up
-0.9449859986781927,-1.12817382812,-0.59020996093,0.013990045360039996,0.3482518942912048,0.13732910156,0.49145507812,0.007568146905404128,-0.21018007576746986,-0.38635253906,-0.11999511718,0.00496878448022484,1.0341209282227712,0.78408442354,1.25140322958,0.012426253259782276,970.8665287411761,970.85176636543,970.88342010713,0.00010885338883316877,-0.00014888091968660354,Stairs Up
-0.9854897299930769,-1.29516601562,-0.61682128906,0.044434293180151,0.347487229563956,0.18615722656,0.47375488281,0.004711622585663223,-0.21125676081351652,-0.49426269531,-0.08715820312,0.0080811764695834,1.0734011122006593,0.68699138424,1.40455685518,0.04635446425536756,970.8723248848287,970.85187333066,970.89984040338,0.00024720755494196,-0.00015638943536496765,Stairs Up
-0.9857721611965345,-1.17517089843,-0.78442382812,0.014259301267742518,0.31545748568633664,0.22119140625,0.43591308593,0.0035614573600271193,-0.207478438269703,-0.31335449218,-0.05297851562,0.005924578093708892,1.0594116801060396,0.83965970174,1.27574853125,0.015619253922257438,970.8726574790604,970.85841881951,970.8942617383,7.296950230213757e-05,-7.729677754380545e-06,Stairs Up
-0.9994194878437779,-1.1904296875,-0.73376464843,0.014999272217659993,0.3052449544238889,0.17114257812,0.45068359375,0.006618080196237762,-0.1653103298581111,-0.40307617187,-0.01208496093,0.009062702996684739,1.0648463697080002,0.794271639,1.2725113268,0.015960008290631125,970.8669528686548,970.84908571681,970.88232271405,8.400469333147263e-05,-0.00014929367512678913,Stairs Up
-0.9950401669423808,-1.31237792968,-0.73388671875,0.021309578195848104,0.32404581705357144,0.04443359375,0.48291015625,0.011103647016748408,-0.17010352724690478,-0.46313476562,0.046875,0.017187174721508932,1.0729034395277377,0.76044926617,1.3736147893,0.022198228415114145,970.8203845376387,970.78736492353,970.88127984571,0.0005056662684106772,-0.0008357537267148711,Stairs Up
-1.0158299859926416,-1.2060546875,-0.84497070312,0.008240999081881755,0.38703313863150934,0.20202636718,0.63012695312,0.01422262644422411,-0.19408373562424527,-0.40173339843,-0.04626464843,0.009099102096600092,1.112626282031415,0.8926835363,1.3456416898,0.01282239584579024,970.7660281473458,970.72789232949,970.81317626699,0.000607279852062461,-0.0007483902955718644,Stairs Up
-1.0229111538095699,-1.31530761718,-0.80847167968,0.016189049760370035,0.32630969631677426,0.19396972656,0.47937011718,0.00617674356752666,-0.1907013923846237,-0.28247070312,-0.02355957031,0.004608289096981134,1.0950607317881722,0.8821628425,1.39528559736,0.0169000204304593,970.7026345204889,970.64372461396,970.7341806847,0.0006233534953474533,-0.0007846981080443345,Stairs Up
-0.9670642671092857,-1.23999023437,-0.70812988281,0.026928817104299927,0.374017624625119,0.21875,0.5322265625,0.005536888343915433,-0.18917701357511907,-0.37963867187,-0.07360839843,0.007290982740231435,1.0585098153438095,0.77423233074,1.36692569405,0.030088990081868296,970.628358249454,970.59498974949,970.66022676919,0.00033347131683992843,-0.0005479849515662764,Stairs Up
-1.019651813268395,-1.1923828125,-0.79760742187,0.012763521631741026,0.317021122681358,0.1201171875,0.53186035156,0.012371522726463108,-0.16356065537851852,-0.38793945312,-0.00024414062,0.013639564812189873,1.0906137841191357,0.84473900758,1.27306544245,0.01599930700372535,970.5576648792522,970.52498480954,970.59498974949,0.0005044536255639466,-0.0008827829390068307,Stairs Up
-0.9739583333294285,-1.41040039062,-0.57263183593,0.04374577152803213,0.38780459449095234,0.2197265625,0.638671875,0.0200248305969663,-0.22179361978780954,-0.38891601562,0.02429199218,0.014206316397832252,1.0909767813465714,0.8210330251,1.46531639611,0.0355218958863901,970.505335986478,970.47596287402,970.5366929031,0.0003344452664428936,-0.0005063116544251434,Stairs Up
-0.9362569829429032,-1.36437988281,-0.43359375,0.0579304623685422,0.3639742943511826,0.23486328125,0.46923828125,0.004303245169001963,-0.19481109290569895,-0.3681640625,-0.07702636718,0.004346404536464192,1.0301915982064518,0.56615447663,1.43428154019,0.05213585544946222,970.4561721699347,970.42500920886,970.48674288347,0.00027626007775162194,-0.00037943200842836914,Stairs Up
-0.9763872931950586,-1.18103027343,-0.59912109375,0.02347664870186881,0.36921673942552946,0.26000976562,0.53393554687,0.004302466900860726,-0.2092385684701176,-0.31127929687,-0.06982421875,0.002393501930187175,1.0683409226509415,0.70468006891,1.24420964694,0.022159949358356103,970.4163828542639,970.39770707271,970.4381833751,9.6158133602267e-05,-8.257618592998262e-05,Stairs Up
-0.9753955078091999,-1.17443847656,-0.69360351562,0.017065362292289322,0.3271899414024999,0.23608398437,0.43383789062,0.002772026958985863,-0.17631713866720006,-0.30895996093,-0.02697753906,0.007297890022231283,1.0479771128837998,0.77594141771,1.25913484735,0.018328570858389744,970.4118407686535,970.39770707271,970.42434970018,6.618866706082972e-05,0.00010243399324726884,Stairs Up
-0.9919395840001032,-1.24548339843,-0.68286132812,0.02029841127920937,0.3382392175387628,0.28771972656,0.39294433593,0.0011960004113634288,-0.16565444788515465,-0.26403808593,-0.05358886718,0.003269843110675657,1.063168429510103,0.74575876035,1.30171382683,0.020181200000458296,970.4078402522146,970.39298758665,970.41951681732,4.5055208709037196e-05,8.853139532218936e-06,Stairs Up
-0.9647778039651721,-1.15881347656,-0.71728515625,0.01507115357324816,0.3044195065519541,0.14306640625,0.38916015625,0.0053164861365535615,-0.167251762298046,-0.26672363281,-0.05358886718,0.004256649351515087,1.0299977052786204,0.8076107297,1.22231413469,0.013845568301594273,970.4081676591254,970.39598451114,970.42383725434,4.850457521272785e-05,8.319137297019736e-06,Stairs Up
-1.0064017380303796,-1.20703125,-0.73400878906,0.019296276166889902,0.32533437994126585,0.20520019531,0.41711425781,0.003801108069234592,-0.13316171380139247,-0.19177246093,-0.05688476562,0.0017958301513621578,1.069391774933924,0.81253948482,1.26514610013,0.017621356358124642,970.4014100246999,970.38565572472,970.41429440339,5.951304670537791e-05,-0.0002156803378739082,Stairs Up
-1.0040473090237778,-1.21850585937,-0.67907714843,0.01901815611040031,0.32813042534366665,0.14135742187,0.60974121093,0.010829069946179796,-0.19725206162855555,-0.3701171875,0.00219726562,0.011934509921678726,1.0856674037267777,0.7930759489,1.29172773819,0.01752748337789067,970.3553073656734,970.33169445422,970.38642571017,0.0002572266067638506,-0.0005658085661338939,Stairs Up
-1.0131249521264705,-1.298828125,-0.86926269531,0.013516115000467406,0.38438026577401957,0.2451171875,0.60974121093,0.007199661491270054,-0.18779799517186277,-0.35546875,0.02868652343,0.01637583574828546,1.1088799378169607,0.92714519865,1.39125323302,0.016715575000692852,970.2838636397954,970.23566925621,970.33169445422,0.000663624658588167,-0.0007877113206903953,Stairs Up
-1.030058808376044,-1.20385742187,-0.771484375,0.012940969513714047,0.42693622295329675,0.24011230468,0.61218261718,0.009996413624063208,-0.1799799321735165,-0.29223632812,-0.03308105468,0.005450985789110624,1.134388917317033,0.84334696751,1.34872916262,0.017114730224915598,970.2046510264453,970.17204607608,970.24456598775,0.0004291761614872554,-0.0007017397493496776,Stairs Up
-1.1071702910598782,-1.38452148437,-0.86047363281,0.022071435991345506,0.3620039777017074,0.12658691406,0.55480957031,0.019370525411445568,-0.14669129906231707,-0.28527832031,-0.01257324218,0.005550228404766523,1.181315497189878,0.87226278609,1.48329121526,0.02966585969545298,970.1284036423908,970.07891065457,970.17598655745,0.0007896698868388918,-0.0010673611641063376,Stairs Up
-0.9806547619015237,-1.365234375,-0.68933105468,0.03725562648621512,0.4284481956818095,0.29724121093,0.62524414062,0.01002616486318465,-0.1076613653252381,-0.30981445312,0.14404296875,0.017104353733199927,1.0873372956679999,0.75352154932,1.46744175232,0.03605353526171369,970.0516530569754,970.02490633617,970.09884844445,0.00045187554838894197,-0.0005959918677694925,Stairs Up
-1.0561896073157895,-1.31176757812,-0.6298828125,0.0175677477912035,0.3424008018051579,0.17895507812,0.52209472656,0.005395995926446829,-0.19632889596684217,-0.326171875,-0.03234863281,0.00789880766593846,1.1329530469094737,0.70033972406,1.41569231749,0.01846932089486875,969.994698453506,969.93567613491,970.05037442889,0.0008565979609710929,-0.0010093543650626148,Stairs Up
-0.9162655101068233,-1.18872070312,-0.4677734375,0.03851911777019,0.3676298253637647,0.21875,0.51501464843,0.005511675553605123,-0.18367130054752945,-0.30969238281,-0.07263183593,0.0038862103675047603,1.0116548570776474,0.57733286897,1.32474683961,0.03272200935729691,969.9367963469269,969.91729059163,969.98637023457,0.0002841644229957407,-0.0003310077892528765,Null
-0.9687046148798717,-1.28515625,-0.55517578125,0.03196115428335971,0.3731313852126923,0.1982421875,0.54431152343,0.0074450057464155025,-0.18249824719153845,-0.28686523437,-0.01879882812,0.003973797147271626,1.0602564187505128,0.68780790283,1.38141598739,0.029985835922531873,969.9220262926503,969.90251794204,969.95757697487,0.00021979101972961055,-0.00029149164889071336,Null
-0.9804989246805618,-1.09204101562,-0.75939941406,0.005026214935863458,0.3271717542975281,0.24755859375,0.38854980468,0.0012548043905680683,-0.06753368591910112,-0.36596679687,0.125,0.022688737654032426,1.047434609225618,0.83374815192,1.14655918481,0.0045564868128936805,969.9197213122259,969.90723669664,969.93925435587,9.734381347935422e-05,-2.191576959572136e-05,Null
-0.7588788200794117,-1.02551269531,-0.51354980468,0.02219199364928773,0.5648911419996077,0.33923339843,0.7724609375,0.01855866960749925,-0.3288825539949998,-0.55908203125,-0.17749023437,0.009137410143495209,1.0202672413180391,0.74019111365,1.18329779068,0.011731546291478344,969.9939803152918,969.9314277863,970.10646773366,0.0022966386645671385,0.0007129973687044416,Null
-0.6679185655347778,-0.73132324218,-0.63562011718,0.0007351150989466263,0.740433756507,0.59240722656,0.78381347656,0.0017822965644790003,-0.2122911241266667,-0.35778808593,-0.13317871093,0.004151024391304621,1.022479887864,0.94289250796,1.06676153755,0.0005603264303521907,969.8878150390565,969.85156380114,970.01071490202,0.0013363369090993598,-0.0005963053592173893,Null
-0.6452239622519276,-0.80651855468,-0.49194335937,0.008242162301903201,0.7813867775754216,0.57751464843,0.92565917968,0.008419239447355906,-0.15222167968566264,-0.40478515625,0.05224609375,0.02330984611286826,1.0416997932338554,0.84988597006,1.15882928657,0.004455586505432849,969.8916161826724,969.85679114587,969.91347486288,0.0001970784513288751,-0.00022058148412951994,Null
-0.8980985474780581,-1.35522460937,-0.39758300781,0.056398727418406326,0.47162043006291243,0.24377441406,0.88671875,0.026473219448626385,-0.1815375170632038,-0.40478515625,0.03405761718,0.010839366374070583,1.0538095946367958,0.62880951273,1.45680760771,0.04468335301802075,969.8901250110578,969.85679114587,969.93622697716,0.00025158495026525874,0.0003373526547245027,Null
-0.9763980263115789,-1.18298339843,-0.62243652343,0.023605300317652227,0.31957750822021047,0.11413574218,0.47802734375,0.00860264928387452,-0.21852384868105268,-0.314453125,-0.11547851562,0.002273380112349704,1.0557937069358947,0.72777344685,1.28447833631,0.022894574250130778,969.9051216125554,969.88766266456,969.93622697716,0.00013079746390746275,1.8785153167883698e-05,Null
-0.9163860942001161,-1.10668945312,-0.60852050781,0.015111787335663414,0.3458138399305814,0.19421386718,0.58386230468,0.007980934180930337,-0.1417875068101163,-0.3291015625,0.03002929687,0.007144357080718139,0.9972078357254655,0.70567015838,1.21892686318,0.015091886702057791,969.9082355717906,969.89058475309,969.96243066995,0.0003385974494256305,0.0002656816660668393,Stairs Down
-1.1062183869152562,-1.61193847656,-0.50646972656,0.07677640145634528,0.3225473257183334,-0.09716796875,0.65319824218,0.0474954035784734,-0.10391313601628205,-0.314453125,0.11743164062,0.01418572603649927,1.1816668267634618,0.5832510206,1.65985392791,0.0799244542509531,969.9491924887142,969.90525085633,969.99416770534,0.0004956980324793299,0.0005109471384882853,Stairs Down
-0.9025289601263218,-1.41223144531,-0.43383789062,0.052146833255581074,0.3964086072155173,0.02062988281,0.71154785156,0.0282559676368639,-0.17265933683183904,-0.42260742187,-0.01147460937,0.009564896181696791,1.0139098533317241,0.46821648117,1.57631262962,0.06315587890813872,970.0188930886741,969.94647272625,970.08740634082,0.0013175756266627125,0.0009959298796324671,Stairs Down
-0.9271311343237864,-1.35693359375,-0.53552246093,0.05034342607617839,0.3656136225698057,0.02575683593,0.60998535156,0.0205253508491441,-0.15691131295213595,-0.46984863281,0.0986328125,0.02492958906913886,1.0339551286082522,0.57010931811,1.38997592136,0.04409985207573085,970.1207727121329,970.0510220775,970.20804021526,0.0020943324430723765,0.0013103877859024855,Stairs Down
-0.9173020582895604,-1.40771484375,-0.41296386718,0.06986705074953309,0.4002766032751648,0.17224121093,0.60229492187,0.011836094592008581,-0.21548763735956047,-0.46154785156,0.16162109375,0.03366035622497512,1.049674278466703,0.52323878487,1.51588308948,0.06690075002440506,970.2082704609879,970.15028157018,970.25904137941,0.0007857432389899061,0.0007568381137581971,Stairs Down
-1.0359337216307143,-1.5400390625,-0.46826171875,0.08674356620725904,0.34609404063976196,-0.26953125,0.73620605468,0.04517286146186132,-0.16287231444952383,-0.39538574218,0.15576171875,0.020253991461007505,1.1347345623757146,0.67113786003,1.66946134407,0.08319389436582994,970.2772519225591,970.24577438062,970.3338364068,0.0007198610616318657,0.0008126336055625249,Stairs Down
-1.0328430175739,-1.41418457031,-0.64172363281,0.04865634241904923,0.3213037109335,-0.06115722656,0.59643554687,0.014647197626869123,-0.1950231933569,-0.49548339843,0.01208496093,0.016300245564055557,1.1111416778043002,0.7014089412,1.51138603136,0.05273407995759796,970.3380052586512,970.3051705738,970.37472951123,0.0002419187644897197,0.00027794400934546615,Stairs Down
-1.0669157067085713,-1.30871582031,-0.63037109375,0.033764829041368544,0.25477319833908163,-0.31677246093,0.59643554687,0.03134995652441383,-0.17685621611622446,-0.408203125,0.01147460937,0.012602820119234581,1.1315541464132652,0.71514829808,1.39013389423,0.031326065348167294,970.3509413895672,970.32304204073,970.45799551652,0.0011352522398515067,-0.0004075287187521384,Stairs Down
-0.9233000999224417,-1.25415039062,-0.64685058593,0.03298329200531574,0.29677705986151165,0.03234863281,0.4814453125,0.014996092747282587,-0.06297976471511628,-0.2333984375,0.43273925781,0.035986451467320255,0.9999012301077906,0.74137659445,1.34161088034,0.028039205126633854,970.3788622965908,970.28835731855,970.48956416058,0.002854756841080926,0.0010485602268412086,Stairs Down
-1.054673767086125,-1.38879394531,-0.72094726562,0.041732202222884186,0.24788360595349998,-0.05786132812,0.46032714843,0.01514247019942415,-0.1326416015585,-0.24401855468,0.02746582031,0.006685024424311854,1.1002997078187502,0.73700406849,1.41764749087,0.04403299762452876,970.2971368542687,970.24480615805,970.33853140539,0.0006042311833912577,0.000636887139610861,Stairs Down
-1.04873962401875,-1.708984375,-0.54028320312,0.09056385671628757,0.368873596187875,0.10595703125,0.86364746093,0.025122921713199128,-0.22102661132487497,-0.40783691406,-0.08227539062,0.0068275713844548796,1.1468801270181253,0.63165812518,1.75241591381,0.09156879651625932,970.3578154047111,970.31586833028,970.43030033934,0.0010078470637316134,0.0008927033524683357,Stairs Down
0.3705554780483809,-1.38110351562,1.12438964843,0.5037927188198548,0.7054013206818095,-0.33825683593,1.24536132812,0.16756746630718988,0.08791387648638095,-0.33386230468,0.33361816406,0.0194146802486788,1.0778595723868571,0.1318941341,1.78135260068,0.16663301565954364,970.3982882575599,970.34102837813,970.55281952264,0.0033302014833605856,-0.0009104606461343555,Stairs Down
-0.40520461061999996,-1.26843261718,0.92199707031,0.4955799956297325,0.5216947514927659,0.00366210937,1.29943847656,0.08099359190764194,-0.02036886012319149,-0.46496582031,0.50756835937,0.06262782651723382,0.9997373666587233,0.56969499471,1.54128078891,0.07044711477455184,970.4941119941683,970.4171626484,970.62342321056,0.0026095760687605395,0.00120805114252151,Stairs Down
-0.14783289292305887,-1.2607421875,0.83862304687,0.6214779011870577,0.6880155675510589,0.21716308593,1.48657226562,0.10646859605268506,-0.1268224379577647,-0.40942382812,0.11376953125,0.022238400644567318,1.0992403397904706,0.77108625932,1.63934421954,0.04486156792861638,970.5999636508695,970.50409354683,970.72506612646,0.0024421607347549896,0.0013583366561698183,Stairs Down
0.584673563635625,0.32666015625,0.93444824218,0.02430261404243312,0.7376492818159376,0.38659667968,1.19750976562,0.04595362606611035,-0.33961486816072917,-0.71350097656,-0.07214355468,0.026421812725858387,1.0191564286088541,0.54121750463,1.49181390249,0.058912735796019904,970.660085306819,970.60054084785,970.7216309221,0.0011152242820156488,0.000964138534847569,Stairs Down
0.3431754064037373,0.19897460937,0.52380371093,0.008021816079839745,0.6865419329986867,0.46545410156,0.92211914062,0.016387006264394224,-0.6975923788633333,-0.90234375,-0.48181152343,0.012984123104777909,1.044969719158384,0.80019723018,1.24803423091,0.021010060176569725,970.7121284286667,970.67096014468,970.76334527144,0.0006106181882825082,-0.00017462815552358598,Stairs Down
-0.32771764176426965,-1.02465820312,0.44409179687,0.24185183371168806,0.6637264637429213,0.37170410156,1.0078125,0.03721200989084888,-0.32420091950179775,-0.76989746093,0.140625,0.053116703761007834,0.9702659262649438,0.50990489358,1.3589293418,0.04052546388696815,970.7459415959415,970.70015238655,970.81853701777,0.0012039188982129647,0.00027368126202956494,Stairs Down
-0.8895828247024999,-1.04028320312,-0.70300292968,0.012348892169736577,0.448965454097625,0.30920410156,0.65808105468,0.0061437543339896705,-0.2496337890585,-0.41674804687,-0.13122558593,0.004372820446731351,1.0332431040106251,0.83086443291,1.22265411108,0.010362477214034566,970.7474231044889,970.71477864309,970.77409153228,0.0002490396788358684,0.00048460513766874797,Stairs Down
-0.8845595322611686,-1.09143066406,-0.595703125,0.024184011808844823,0.3893345424063637,0.26550292968,0.6787109375,0.00844892719422486,-0.12475585937168832,-0.30261230468,0.13903808593,0.012068191248569634,0.9847862927280518,0.74411289033,1.23345403478,0.0242221029882176,970.7560048793895,970.72730299303,970.79719585851,0.00028881202031406776,0.0003492844166742499,Stairs Down
-0.9105759393558096,-1.47924804687,-0.57336425781,0.04625330777258412,0.4201532273024761,0.23950195312,0.62768554687,0.009416669298804215,-0.22182965959457143,-0.40307617187,-0.08642578125,0.007212064087717698,1.0305319899406669,0.66311949924,1.63368508873,0.05570316221715223,970.7914261199666,970.75329384536,970.84987035136,0.0008767063398306685,0.0006458503023127962,Stairs Down
-0.8747965494754166,-1.24169921875,-0.59240722656,0.022863075189648932,0.4266141255652083,0.18493652343,0.61853027343,0.008361174870481377,-0.20663706461239584,-0.34643554687,-0.07763671875,0.0029220005333067895,0.9988883700812501,0.69624776838,1.38074184279,0.0262535506639344,970.8598394352421,970.80153409433,970.92418429573,0.0010499286306441735,0.0008767379107988651,Stairs Down
-0.887103413424186,-1.32446289062,-0.47924804687,0.041443693118209265,0.44837561318674407,0.12145996093,0.81640625,0.021302524604649955,-0.2615455804837209,-0.47863769531,-0.09045410156,0.005941142217133757,1.0369312538026745,0.57080053324,1.50839391181,0.052980858224045184,970.9524206187277,970.87736722273,971.09346755719,0.002716779000627507,0.0016258657141751116,Stairs Down
-0.9125241515421505,-1.36340332031,-0.60852050781,0.047320816549129605,0.3510676558266667,0.07763671875,0.67260742187,0.02274070011722756,-0.29561491935043016,-0.49890136718,-0.09985351562,0.01517983984707574,1.0334870726025804,0.66727528631,1.57951041586,0.06021371956010615,971.062439621709,970.96411362861,971.20689389838,0.003296721832067123,0.0010360762005269632,Stairs Down
-0.878849444999307,-1.26330566406,-0.50244140625,0.04528282510195335,0.41820201306772264,0.17431640625,0.62719726562,0.011475296348068575,-0.3357090713920791,-0.49536132812,-0.2041015625,0.00763295223230565,1.0364245048953462,0.67391468542,1.45433851556,0.05004311163120338,971.152427249041,971.09283979933,971.20901561041,0.0011232259329768742,0.0008227832314858302,Stairs Down
-0.9069001272779775,-1.232421875,-0.65148925781,0.024985844024180193,0.46377117713786514,0.296875,0.62414550781,0.008873264719122422,-0.22423493459932584,-0.31530761718,-0.09265136718,0.0046589990224233145,1.046538694271573,0.758606976,1.4169827756,0.031023511711597986,971.213297664964,971.16822235884,971.2531313743,0.0006304202080365053,0.000642958153438889,Stairs Down
-0.87187042235975,-1.08447265625,-0.65576171875,0.01998396660827487,0.441477966305375,0.33544921875,0.6201171875,0.005469454879147981,-0.24259185790612497,-0.36669921875,-0.17626953125,0.0022677868204027587,1.0095410083818752,0.78661022972,1.25841451537,0.02239319821908236,971.2405658515556,971.21395601366,971.27616785764,0.00023891755268783544,0.00031633095783633144,Stairs Down
-0.8656018066361,-1.10229492187,-0.66235351562,0.01830731813820506,0.4266748046826999,0.32214355468,0.56689453125,0.0035591203397240365,-0.2896142578083,-0.39904785156,-0.19921875,0.0029968304706350516,1.0103343146204,0.8094101714,1.24906708951,0.019225761505596618,971.2535295411523,971.23029803285,971.28511140287,0.000326225029637236,-0.00023767331076428075,Stairs Down
-0.8693046569791667,-1.03918457031,-0.62780761718,0.01518910553203069,0.47174072265322914,0.31213378906,0.62756347656,0.0074445940945653075,-0.3056170145638542,-0.43225097656,-0.18896484375,0.004428463662821818,1.0376990122731249,0.79378691872,1.25547771676,0.021819972711075455,971.2568863687079,971.22954074815,971.28370139562,0.00031079215470848767,-8.490754647042285e-05,Stairs Down
-0.881466920343793,-1.22155761718,-0.65710449218,0.021712222410285822,0.3639449196263218,0.20153808593,0.50207519531,0.006456756904139541,-0.23942758844862058,-0.33020019531,-0.15270996093,0.0020839576653070677,0.9838836770220686,0.73952144825,1.32028366373,0.022469349666048525,971.2783389594842,971.2422132797,971.34676669803,0.0005764271819004137,0.0007344583564814946,Stairs Down
-0.9420351774753261,-1.48034667968,-0.63208007812,0.042956390529528994,0.39067409349195653,-0.03674316406,0.81225585937,0.032681086580709985,-0.2747338336419565,-0.46350097656,-0.12353515625,0.008675698671605208,1.072706699865326,0.72400412769,1.54230008666,0.048762291467052084,971.3679095391942,971.2953155132,971.43578896767,0.0014609098266459362,0.0011783680985887064,Stairs Down
-0.7990539550747999,-1.13220214843,-0.53454589843,0.026592070218045584,0.5251513671830998,0.32312011718,0.71826171875,0.009473779863888136,-0.3644189453082,-0.49755859375,-0.13537597656,0.009352792959104671,1.0304270364871002,0.70598497481,1.33025772853,0.026526987260093133,971.4413243935596,971.38950893021,971.52816081173,0.0012580486089290056,0.0009762984969769637,Stairs Down
-0.7815592447888887,-1.15246582031,-0.50549316406,0.028871559427089518,0.4998792860212221,0.26281738281,0.67431640625,0.01190507194122144,-0.3622002495623333,-0.46813964843,-0.23083496093,0.004570925356734767,1.004838501209889,0.76434278164,1.31170847276,0.02796334147706258,971.5492561453311,971.48732015947,971.6282601597,0.0018370105256001637,0.0013420583629739783,Stairs Down
-0.8525933159690123,-1.24975585937,-0.60534667968,0.02903997935362132,0.4351369598728395,0.15148925781,0.69482421875,0.02333209116329891,-0.28033824025432097,-0.43872070312,-0.13635253906,0.005318699436771455,1.0074374288479016,0.73449288091,1.40831391616,0.037358648294911825,971.6566149211081,971.58875155625,971.71767447973,0.0014079114092215334,0.0012765607874441732,Stairs Down
-0.9386883171199998,-1.17919921875,-0.7001953125,0.020371622200731597,0.4192666812788775,0.21337890625,0.54638671875,0.007416021082825872,-0.30487932477265306,-0.42102050781,-0.12487792968,0.005216350567869228,1.0784694530028571,0.81405016767,1.31929410222,0.019643005579690603,971.7663061345055,971.68112663427,971.86685974163,0.0027608966229917356,0.0012584229806208978,Stairs Down
-0.902131995372857,-1.09619140625,-0.66821289062,0.018540799786995,0.39766148158061226,0.20288085937,0.56567382812,0.007277046051811336,-0.2988443179956123,-0.46362304687,-0.18701171875,0.00555840645792692,1.0337936772901022,0.79514017317,1.27517987039,0.023854853532535532,971.811921042686,971.77927010437,971.86093164707,0.00035899024167843584,0.00038893347749859676,Stairs Down
-0.872154929418068,-1.07299804687,-0.58654785156,0.01960464604898397,0.45119406959886366,0.31982421875,0.60571289062,0.0044212740541308354,-0.3173259388284091,-0.47412109375,-0.19384765625,0.006416865788817487,1.035423336789659,0.77388106256,1.26822699233,0.023184884168424506,971.8283833821423,971.79458550062,971.87959209948,0.00042916530845815194,7.754274924813245e-05,Stairs Down
-0.8623816448669565,-1.16381835937,-0.50927734375,0.03344608359150545,0.5942051099648913,0.4052734375,0.9970703125,0.030412937620191625,-0.34125021229249997,-0.66076660156,-0.11486816406,0.01706821397048426,1.1094101578663043,0.7295781076,1.66890229894,0.06317692010614626,971.8316120203543,971.79114760624,971.87866939247,0.0006454556502567935,0.0003441701707678039,Stairs Down
0.3277851179518629,-0.69189453125,0.99768066406,0.11201810973218054,0.6992355047449018,0.28955078125,1.07788085937,0.049774567985874665,-0.16128958907637253,-0.75610351562,0.15881347656,0.055739284852087935,0.8763346570054902,0.29597560266,1.25453632484,0.0705159037854529,971.815358695923,971.76284849707,971.90901612614,0.0017117795413500068,-0.000668145348907846,Stairs Down
-0.06719428168133332,-0.228515625,0.09765625,0.007241365668586814,0.8255574544235555,0.45288085937,1.56091308593,0.058254130251398605,-0.6171264648406666,-1.06481933593,-0.39172363281,0.030422735498777335,1.0473460990418892,0.637813049,1.79248329937,0.06555223594101448,971.887638046965,971.80224884582,971.97079267769,0.002262359678596349,0.00048233622835150327,Stairs Down
-0.02175112123765432,-0.23010253906,0.12878417968,0.006420123618062766,0.8217366536418519,0.46252441406,1.50964355468,0.07314188554854104,-0.5752344955592592,-0.97729492187,-0.27368164062,0.03868493878375779,1.0129375988350617,0.55833936113,1.63787274431,0.09858053772322736,971.959362376642,971.88393713955,972.11096113041,0.0024475163394851967,0.0012936106973408766,Stairs Down
-0.11187303680443297,-0.36340332031,0.08801269531,0.010966155696913756,0.8191824057632989,0.49658203125,1.35900878906,0.052045855136608817,-0.6973046371580413,-1.14978027343,-0.34375,0.0478754365029657,1.092620705663402,0.60834381691,1.75384455531,0.08662647505393638,972.0909456403836,971.97990324082,972.20057228726,0.003951596522099779,0.0012269131661237266,Stairs Down
-0.08251953124757574,-0.26538085937,0.0869140625,0.0073729507165304934,0.6591846196310099,0.31213378906,0.92395019531,0.02654071240984674,-0.7482601897850504,-1.24169921875,-0.453125,0.04508241839055672,1.0112828136054546,0.57837324998,1.56925066827,0.057311261247329666,972.2019570994794,972.12184727967,972.33469582201,0.0027444719635957315,0.0005337992943010655,Stairs Down
-0.07793773304306818,-0.37414550781,0.21081542968,0.021692723359866314,0.7369273792582954,0.26513671875,1.29565429687,0.0645178544918904,-0.7133927778715908,-1.22436523437,-0.43933105468,0.035257618123141814,1.0526264707968183,0.62774064465,1.63951246141,0.07093699885568294,972.2867719663135,972.19140662846,972.41968313239,0.003849980981063064,0.0017814130102749722,Stairs Down
-0.15885552300033332,-0.37683105468,0.02429199218,0.010850000301368533,0.8463419596313333,0.62866210937,1.1884765625,0.025625707744877907,-0.5049913194413334,-0.91711425781,0.45617675781,0.12059034907433022,1.0647248715754443,0.77381176996,1.30474156136,0.018432656383626164,972.3887237057041,972.3304515522,972.50659333376,0.0021372766917636416,0.001475092285815018,Null
0.5511142767717475,0.02429199218,0.80651855468,0.037872243217914214,0.740653917623592,0.57458496093,0.98571777343,0.008287493700442504,-0.02037744614737864,-0.29431152343,0.45617675781,0.02868318682138591,0.9545579723213592,0.59668201002,1.10699129564,0.015799172981986832,972.3892657190199,972.34153269053,972.48641838905,0.0013490065333030617,-6.547396739215395e-06,Null
0.25897820441087904,-0.47875976562,0.64477539062,0.15206310161522782,0.7966965895399998,0.60400390625,1.02551269531,0.014056570763955481,-0.3120479374103297,-0.85668945312,0.04296875,0.04325007249700981,0.9997634788214284,0.79329442632,1.11884249965,0.006785613433393334,972.4121485653163,972.34983010036,972.54539847531,0.0022870254829434463,0.0005039215590639085,Null
-0.6208405671249383,-0.70434570312,-0.47875976562,0.0025220426834906716,0.7839852792203703,0.72448730468,0.95593261718,0.002367701298642575,-0.2461525245917284,-0.33093261718,-0.19653320312,0.0008967470791297212,1.032173453552716,1.00653902073,1.11889114395,0.001012507969127711,972.414381436432,972.39618293328,972.44343622932,0.00011798611764742553,0.00020132077115461063,Null
-0.7447345176397754,-0.84362792968,-0.60620117187,0.007410803027769091,0.6355391941676404,0.51574707031,0.79382324218,0.010903058046588001,-0.274601968482809,-0.38354492187,-0.18493652343,0.004327018510371427,1.0274137507770786,0.9244484462,1.06733105281,0.0007618426067671439,972.4136596633117,972.39095017636,972.42469144767,6.732668185392579e-05,-0.00014841628153673176,Null
-0.7860777611787254,-0.8515625,-0.42736816406,0.014423071342963455,0.5937464096935294,0.34606933593,1.39685058593,0.04246696518651982,-0.24658442478235287,-0.48510742187,0.32775878906,0.031993083427776334,1.0537580782974512,0.93209336834,1.48203938592,0.00895030148956967,972.4119007231,972.37827371078,972.44649566995,0.00015391312606339476,9.022158179213007e-05,Null
-0.6563170715958241,-0.97778320312,-0.42443847656,0.02109023076424165,0.6771481692095603,0.51196289062,0.85729980468,0.00890718242177233,-0.41834971668538445,-0.62780761718,0.32775878906,0.018319955744589698,1.0465778678527475,0.82042027628,1.29317052713,0.01694561792295186,972.4125395638038,972.3544246318,972.54325785557,0.0016936398666868601,-0.0007981407403936557,Null
-0.797897155022771,-1.29309082031,-0.57641601562,0.03410557992270746,0.5900849491685541,0.42102050781,0.90637207031,0.010711637203232052,-0.3762207031218072,-0.58801269531,-0.19787597656,0.010541231167121641,1.0698307809291565,0.777582774,1.48943877574,0.03698127138747201,972.4188795603271,972.33799024482,972.53351371831,0.003232436677758044,0.0007099499508501115,Stairs Up
0.20181792636933968,-1.05163574218,0.76684570312,0.35570315291562904,0.689954073920283,0.12109375,1.00268554687,0.02699442787656325,0.022376870208679248,-0.74145507812,0.41064453125,0.10768042642635717,0.9798386383683964,0.48789694349,1.44359151085,0.04334477922042566,972.3962333793154,972.33199796629,972.51347131374,0.0028015845050773174,-0.000867670663228593,Stairs Up
0.41423911236234023,0.1884765625,0.60388183593,0.015295060609220075,0.6951293945279786,0.31030273437,1.08642578125,0.04265426075284264,-0.467150099731702,-0.94348144531,0.34008789062,0.12326598887241694,1.0159973733591487,0.72052575593,1.22431624705,0.02028071037960803,972.4032165683664,972.34975887838,972.53684956259,0.0020088674983140763,-0.0003352718490459741,Stairs Up
0.37513078961642854,0.24584960937,0.52087402343,0.008209944412602393,0.6088329496804763,0.40087890625,0.83874511718,0.014735811213018618,-0.7274373372360713,-0.96118164062,-0.52551269531,0.012421319582809776,1.0280631391685713,0.74816401587,1.24445245688,0.0198342882426229,972.3215853278879,972.27757339001,972.36343411744,0.00038299946290433094,-0.0006503958612637278,Stairs Up
0.40812800480410255,0.27233886718,0.56457519531,0.006922440958966904,0.6175944010387179,0.38806152343,0.82531738281,0.014947992124742595,-0.7141441932058973,-0.95068359375,-0.52868652343,0.014066757967664363,1.0369319625026925,0.74816401587,1.24527559955,0.01847871071027511,972.2463407230704,972.17827956964,972.29228965816,0.0011393528163841393,-0.0013632751923219272,Stairs Up
0.036701202391354174,-0.80798339843,0.51123046875,0.14687321431333714,0.78268686929875,0.39538574218,1.30285644531,0.060508211499814696,-0.27399698893093755,-1.06909179687,0.25598144531,0.1363975840684869,0.9966844149872918,0.59123295017,1.33925483372,0.03621546343741793,972.1817817125842,972.09161136087,972.36655767448,0.006678329386881339,0.001641925474334498,Stairs Up
-0.3232247488821429,-1.05078125,0.67358398437,0.3936930848727743,0.5865902024831632,0.08874511718,1.04040527343,0.0700559914429164,-0.34138083944326536,-0.72546386718,0.25720214843,0.10450086791207722,1.0375518429842858,0.59987101608,1.3906336259,0.051567024132677,972.0143576119439,971.83862094206,972.36655767448,0.02560921206682056,-0.004686904136437281,Stairs Up
-0.6817503511207864,-1.28503417968,0.44165039062,0.26279944521389015,0.5947526224510112,0.27392578125,1.30065917968,0.09574500588900968,-0.14173460542314606,-0.36145019531,0.25720214843,0.027338752908445275,1.0744859343052808,0.43306703622,1.38163561228,0.06637613546954947,971.8766073039711,971.84201246267,972.07675226491,0.0010678706048754408,0.0001140694221833386,Stairs Up
-0.9971980604969768,-1.37902832031,-0.65869140625,0.03931507429887166,0.2786297465439535,0.13110351562,0.46923828125,0.0074979335762017,-0.18806776889267443,-0.2861328125,-0.06958007812,0.0035175133338440356,1.0564620531068607,0.69768489125,1.41720681434,0.04152404387088756,971.8675946364881,971.83974327561,971.90587086756,0.0003187516762845545,-0.0006020680535571421,Null
-0.9851262019185576,-1.2041015625,-0.708984375,0.0182652142928915,0.3496657151405769,0.21630859375,0.45483398437,0.0030434854757873447,-0.203972449665,-0.30456542968,-0.07397460937,0.005500046612614927,1.0685970278447114,0.79963896621,1.28459765808,0.019180294237114624,971.8602360622546,971.84025307643,971.87651217194,9.370620063751508e-05,-0.00017133232420391814,Null
-0.9684021652340858,-1.11413574218,-0.79296875,0.006471009016736994,0.31508316531989244,-0.33325195312,0.61633300781,0.039682649169457566,-0.23241399949387095,-0.740234375,0.03454589843,0.03185187759750502,1.0772591935521505,0.85245205849,1.22168196228,0.007860338114350673,971.8558753801165,971.83726683276,971.87498667459,0.00010103331624041204,-0.0001238260219994012,Null
-0.9637823337420731,-1.02478027343,-0.90661621093,0.00128245379050584,0.32847781297256096,0.20861816406,0.5,0.00538884416273628,-0.17408417492,-0.30554199218,-0.08056640625,0.003606714072573249,1.0369915291965852,0.98241467786,1.13369280712,0.0019038164710430477,971.8590697312652,971.84671894321,971.88059858728,8.028304948211746e-05,0.00017926938753691962,Null
-0.9690442207499996,-1.00061035156,-0.93835449218,0.0002581436277703183,0.2841609074471795,0.26257324218,0.29968261718,7.962332023474632e-05,-0.17779541015320519,-0.21362304687,-0.13940429687,0.0003128809394872512,1.0255212913974356,0.99111272015,1.0630099321,0.0003583118402912785,971.863342002444,971.85921876275,971.86731037832,7.587938398605999e-06,6.6482912472648e-05,Null
-0.9290796915653124,-1.11511230468,-0.65649414062,0.012090805636974025,0.3132514953571875,0.21545410156,0.48254394531,0.008011050703745928,-0.19871139526052084,-0.263671875,-0.14013671875,0.0010141797217198525,1.0074795996728128,0.83730494875,1.19669538176,0.006753069297961619,971.865298767214,971.86155072159,971.86903176356,6.531507589286032e-06,-2.8875415091629306e-06,Null
-0.9691125118323233,-1.11987304687,-0.73620605468,0.012955528271098663,0.325788401590404,0.19140625,0.56420898437,0.007494778964614844,-0.17166291824202018,-0.28405761718,0.04187011718,0.009606553761608704,1.0438288663540405,0.80552483482,1.26054351801,0.015112506388806207,971.8548065056978,971.83770889321,971.8701182231,5.277048766380308e-05,4.396994920442185e-05,Null
-0.9905575838917046,-1.10925292968,-0.84436035156,0.006117147289335624,0.2463767311763636,0.00500488281,0.33215332031,0.004916406412729365,-0.13495566627852273,-0.24548339843,-0.01037597656,0.004963417114081794,1.0337422468847726,0.89468607333,1.15768401685,0.006753436375013417,971.8557748635143,971.84359727572,971.87392457296,7.099186222965748e-05,7.050859710857708e-05,Null
-1.0652056525702351,-1.34777832031,-0.88342285156,0.011003312910953255,0.3307473575328236,0.09301757812,0.61218261718,0.016499196706540847,-0.18605382582364707,-0.40380859375,0.05810546875,0.02350309970255346,1.1481570274625879,0.95271621599,1.43485169997,0.010942643485403688,971.8483715081915,971.79552209807,971.89360888029,0.0006372327323677865,-0.0006662454684429108,Stairs Up
-0.9559826078839048,-1.18334960937,-0.65393066406,0.01800305702806547,0.3346819196382857,0.15600585937,0.46606445312,0.007011933886741851,-0.21040504091847614,-0.30749511718,-0.03015136718,0.004178366730995618,1.040843426325143,0.77787300763,1.26127891432,0.015896699838854975,971.7944763401774,971.76287029306,971.82863059625,0.00032727855153603827,-0.0005350238068621593,Stairs Up
-0.9793530535925806,-1.25463867187,-0.76928710937,0.01827102789122421,0.3875614289277418,0.17663574218,0.65698242187,0.023159802628671778,-0.21057916456301076,-0.29248046875,-0.06530761718,0.004057083054265339,1.0892542226994621,0.88455174873,1.31275583793,0.012336534789158317,971.7426397272119,971.70695567691,971.77970856065,0.000530877739240301,-0.0007352608080676063,Stairs Up
-0.9628170886628915,-1.21533203125,-0.70324707031,0.017801177188801857,0.39698148060542165,0.25402832031,0.55737304687,0.008950181044870775,-0.1763239481318072,-0.37780761718,-0.02893066406,0.008951823614381777,1.0664350239136144,0.85394079237,1.31602411921,0.013857497453673,971.6950501201943,971.66239397182,971.72489787009,0.0003225112597188882,-0.0006788054913265335,Stairs Up
-0.9914717240722727,-1.25805664062,-0.65563964843,0.030012533644683072,0.3291293057493182,0.06530761718,0.47900390625,0.011337481260058731,-0.18467573685625,-0.37780761718,-0.02795410156,0.005449148834937927,1.0699870908687499,0.77013971507,1.30240943894,0.027150920952666305,971.6341903364327,971.60564041917,971.66736142048,0.00038911474012672827,-0.0006761628304580735,Stairs Up
-0.9883171530294117,-1.21923828125,-0.79113769531,0.019865256308384358,0.30750349455833337,0.19860839843,0.44372558593,0.0048029668435944,-0.19244624118774503,-0.29797363281,-0.01818847656,0.006801933855765243,1.0568771262205885,0.85985311732,1.31284558197,0.0227602557771837,971.5547716650733,971.52459046117,971.61446392718,0.0005454161667156982,-0.0006717770659832989,Stairs Up
-0.9711914062480436,-1.322265625,-0.62512207031,0.03186138645658955,0.3843264372419565,0.15393066406,0.51867675781,0.008602527491258009,-0.15583204186130437,-0.28381347656,-0.05725097656,0.003997545724872462,1.065192924874239,0.800362659,1.40194475985,0.024815128592756627,971.4787417665756,971.45265952786,971.52781220524,0.00032568554452203666,-0.0006174945084340153,Stairs Up
-0.9528138695659755,-1.25451660156,-0.57592773437,0.02942817967352145,0.3537404130109756,-0.00500488281,0.71801757812,0.03255880668910967,-0.16903016624987804,-0.34399414062,0.01721191406,0.01097628977884984,1.0571082297081706,0.78148866822,1.3476910628,0.019107889983438847,971.4095423479645,971.37592494074,971.46514144257,0.0005329217483280198,-0.0008972488048767008,Stairs Up
-0.9785605376589622,-1.25451660156,-0.71557617187,0.018608389390514048,0.3580564102990565,0.22766113281,0.482421875,0.003679496169105232,-0.1560047077651887,-0.23803710937,-0.0693359375,0.003090126314285557,1.0582548017933018,0.82640791062,1.3476910628,0.015504225088111096,971.3457217929471,971.31135101622,971.39332101133,0.0003410892933520832,-0.0005512334540757597,Stairs Up
-0.9333950610827658,-1.21350097656,-0.63403320312,0.02925567152168996,0.34610959316478723,0.04992675781,0.59741210937,0.01944361783754451,-0.19845775847372346,-0.28149414062,-0.04968261718,0.0045020078542308785,1.0313254976653192,0.8473218091,1.27954750226,0.019615390632667987,971.2908531427337,971.26308955629,971.31608745181,0.00017803409282253886,-0.0002912316903960443,Null
-0.9575008616691764,-1.15759277343,-0.65991210937,0.017391564770265208,0.33951344209164713,0.27124023437,0.44104003906,0.0022354139541513754,-0.18153722426082353,-0.27197265625,-0.01245117187,0.005730781351615803,1.0366746433138825,0.76585012162,1.26169159803,0.015581470057895033,971.2460771322701,971.23099565011,971.26850101368,9.592495544806696e-05,6.3692175711863e-05,Null
-0.9654822716311537,-1.08251953125,-0.80737304687,0.005863142061174478,0.26165771484025646,0.16394042968,0.36791992187,0.0029319241256004604,-0.1385857997769231,-0.24243164062,0.09680175781,0.009295541012469839,1.0158677207376918,0.87265870513,1.14835686952,0.00577225402895548,971.2523068805205,971.23598663035,971.27208412236,8.343239830138052e-05,5.8623943681772744e-05,Null
-0.9687097049417475,-1.02331542968,-0.908203125,0.0007960435187997442,0.2573965128153399,-0.02221679687,0.35559082031,0.006574681411884246,-0.19127469849524265,-0.42517089843,0.01550292968,0.01299890691373049,1.0295422320566021,0.95828596115,1.10887201081,0.0014663649368469342,971.2548286157446,971.23847302785,971.29173435575,0.00018395212075021826,7.718134548148766e-05,Null
-0.9740829467740625,-1.0380859375,-0.91772460937,0.0012332543927532297,0.2419255574515625,0.02111816406,0.38159179687,0.006608375115963915,-0.1953671773242708,-0.26867675781,-0.06091308593,0.004050339482382178,1.0274682660585415,0.95120910477,1.08544694674,0.0016279104787863105,971.2524417545501,971.24009499777,971.26994714938,4.404308472404557e-05,5.040021889391624e-05,Null
-1.006640057227558,-1.10473632812,-0.91186523437,0.0018837070742052267,0.26254201489383716,0.19616699218,0.33312988281,0.001337133500917175,-0.1117638876239535,-0.26745605468,0.01892089843,0.009731906490973512,1.0516002202618606,0.97093463493,1.12319441779,0.0017025889948997042,971.2460088255099,971.23681696288,971.26378231464,5.574935855400142e-05,-2.5708456834785006e-05,Null
-0.9768222240652128,-1.15612792968,-0.76574707031,0.010465065713074387,0.41105359665574454,0.12744140625,0.72631835937,0.02044622959245228,-0.12366242104053193,-0.34436035156,-0.00415039062,0.008565236456770884,1.081031731210213,0.93701042266,1.27288428383,0.008961410053115331,971.2548103561003,971.2359370445,971.27145522993,0.00010076273109249669,-4.747973128039013e-05,Null
-0.39783198290188115,-0.76574707031,-0.20178222656,0.01251270053410217,0.76388821743,0.55444335937,1.12670898437,0.02779026445161184,-0.5282574644141582,-0.82897949218,-0.27526855468,0.02946916419664997,1.0365648734131685,0.8633793391,1.27323987515,0.015620683523879684,971.2597439747129,971.23361812546,971.28933292016,0.00020306394663527016,-0.00019726310527257634,Null
-0.8818206787071591,-1.10607910156,-0.44787597656,0.043736852726724666,0.38599742542340904,0.07116699218,0.77014160156,0.0300861513601439,-0.28949806906613634,-0.58190917968,-0.12768554687,0.011388433320583554,1.0402128260867045,0.78168403013,1.21902216415,0.012756212851322384,971.2269207979978,971.18388652056,971.305984081,0.0009194535720186299,-0.00034623130429517013,Null
-0.47459546825139226,-0.80444335937,-0.236328125,0.025692313522650192,0.6064128634259492,0.39172363281,0.75610351562,0.006892008547756325,-0.635992508896329,-0.93249511718,-0.27209472656,0.027856543239005188,1.0263033990368353,0.88115640609,1.14122310398,0.00389025876146335,971.3166942184008,971.19350744573,971.43879202018,0.005286009080731753,0.0022285309325932594,Lift Down
-0.6277316954024389,-1.40417480468,-0.22485351562,0.11667221513760723,0.7425924161552439,0.15759277343,1.02648925781,0.06042705011915852,-0.13778314357682925,-0.69226074218,0.35339355468,0.08523448759777742,1.0800564066793903,0.76994222713,1.62564617844,0.05682662496736022,971.1751647870773,971.13871266674,971.22695738321,0.0006030761663295781,0.0007114835519150233,Lift Down
-0.7641410079618627,-0.8916015625,-0.529296875,0.009755152506822013,0.6359623927667647,0.50573730468,0.78173828125,0.004464239778950797,-0.2360768037634314,-0.59655761718,-0.11108398437,0.013395429490490586,1.0313161723360782,0.82643800421,1.19660752397,0.008439067287703998,971.2328775464833,971.1766069641,971.30042162705,0.001567903901536614,0.0011202333046316172,Lift Down
-0.40221756495359545,-0.54064941406,-0.29138183593,0.004261309941319847,0.8019402321773033,0.53527832031,0.97473144531,0.017250011632142837,-0.4510086573876404,-0.65905761718,-0.34765625,0.011544631605653437,1.0186145297161797,0.85440429235,1.09278242364,0.0034435843662802487,971.2111300116912,971.15352581028,971.2905994794,0.0007413684758548621,-0.00048053611913091194,Lift Down
-0.004769566548915663,-0.51391601562,0.40441894531,0.13396632953935675,0.6782388342396385,0.04016113281,1.07092285156,0.1320231737785278,-0.5407420698384338,-0.95703125,-0.37194824218,0.022891047375391174,1.010279562279759,0.75810151635,1.17657592127,0.017377284168656994,971.23240800875,971.19545593862,971.26633993978,0.0004460933071118354,0.0007069126156359246,Lift Down
0.6255680006326532,0.20690917968,0.99792480468,0.03257535693029557,-0.20298673668663267,-0.63598632812,0.48901367187,0.1408840597993701,-0.5653424944160204,-0.95288085937,-0.21179199218,0.048553687395618106,0.9787502288906123,0.77390324412,1.22694935741,0.01409050912146816,971.1534654683613,971.10302629649,971.23396631093,0.0007745722208678367,6.576791058863833e-05,Lift Down
-0.2011410361823158,-0.48388671875,0.78125,0.15845248862883538,0.6228759765608419,-0.53247070312,1.01977539062,0.16013004881144818,-0.5549984580564208,-0.90087890625,0.39233398437,0.09775485281063519,1.0621591557630528,0.54895563782,1.39430803494,0.020443501042755392,971.2025758314634,971.15539640983,971.30287194665,0.0014948004826803522,-0.00010622045927023054,Lift Down
0.0031465418187058823,-0.46508789062,0.19848632812,0.058047405443223885,0.21574707030952947,0.0537109375,0.71728515625,0.029195828168449848,-0.9467270795004705,-1.03369140625,-0.71643066406,0.005851315704967254,1.0164158971729413,0.93792640207,1.11365805824,0.0017677019204722481,971.3312527559705,971.17059410112,971.46700554934,0.007555006762599481,-0.002080806366992886,Lift Down
0.19878436992337664,0.18151855468,0.21264648437,0.0001071497380300689,0.17315911627064934,0.13940429687,0.19189453125,0.00018333863679185897,-0.9933004007680517,-1.017578125,-0.97961425781,7.606139858134218e-05,1.0278310662187014,1.01052489225,1.05151666198,7.100224852992625e-05,971.2051126366292,971.17059410112,971.24082002707,0.00029918085734592485,-0.00021577970998761705,Lift Down
-0.0907043457025,-0.38195800781,0.212890625,0.07354951466782685,0.5739257812465001,0.154296875,1.05017089843,0.1344275597524005,-0.6413162231402499,-0.99645996093,-0.3427734375,0.08365649925874565,1.01447748996325,0.74853302618,1.18814399473,0.00782597988801504,971.0933214185795,970.97482533861,971.21897223677,0.007706840050895171,-0.002161405144055547,Lift Down
-0.3587563523932038,-0.37219238281,-0.34973144531,2.610603446613619e-05,0.8753697663798057,0.85754394531,0.92883300781,0.0003209588738793427,-0.42302933479543664,-0.45141601562,-0.37475585937,0.0003842903635173454,1.036573704026311,1.02590205199,1.07778601223,0.00017305739793967482,971.1740846247402,971.12984807291,971.2005687852,0.00035647583012832803,0.0005442218354525205,Lift Down
-0.34516521076208795,-0.35461425781,-0.32580566406,5.220670765845747e-05,0.8516309130287912,0.81359863281,0.8837890625,0.0006847620701483385,-0.39954954712934054,-0.41357421875,-0.38244628906,8.717127990398319e-05,1.002120755163846,0.95922275229,1.0303230816,0.0006300749024613213,971.2120403154644,971.20150182152,971.22804009725,5.344353158986246e-05,0.0002438011638624896,Lift Down
-0.353322959803976,-0.36889648437,-0.33679199218,8.696213018409328e-05,0.8571556734720481,0.82019042968,0.890625,0.0005454101738770152,-0.4006759459679518,-0.42956542968,-0.38696289062,0.00011832731422226842,1.010081498419759,0.97224268106,1.04356321616,0.0005781635888968611,971.2839088569451,971.22804009725,971.37306893084,0.0021451888633149804,0.0018609671704935115,Lift Down
-0.36194233141105253,-0.37194824218,-0.34777832031,3.3581971052054036e-05,0.8847052323153682,0.86853027343,0.91186523437,0.00012051325962741988,-0.3894312808354736,-0.41369628906,-0.37658691406,6.666563259884158e-05,1.032232741431579,1.01762992595,1.05379493527,7.713841143542912e-05,971.4797510049663,971.36603316944,971.58620165319,0.003813892110512284,0.002228417877731734,Lift Down
-0.3798438003350516,-0.390625,-0.36560058593,2.958952958002628e-05,0.9309912612716497,0.90905761718,0.94580078125,8.296362634066047e-05,-0.3784771162184535,-0.39196777343,-0.34582519531,0.0001361500823803776,1.0744742045919589,1.04538030105,1.08791578664,0.00012797830850571324,971.6769893467261,971.58620165319,971.74632887921,0.0022913055694528317,0.0016764373411281208,Lift Down
-0.3902994791634481,-0.55541992187,-0.33386230468,0.0021934362576099178,0.8681275817136779,0.63720703125,0.95458984375,0.005858662209853879,-0.3782538052227587,-0.57885742187,-0.32763671875,0.005635046275435198,1.0299555276327588,0.91608997197,1.13822373328,0.001797212689504664,971.7801895208703,971.74632887921,971.86157017639,0.0006284896788418944,0.0009033689813938594,Lift Down
-0.6543355048418986,-1.16320800781,-0.27038574218,0.06929787059078835,0.6580686931326581,0.30712890625,0.92956542968,0.04930978615811667,-0.3611936931331647,-0.58142089843,-0.18151855468,0.015607562812126718,1.0558700037548099,0.84045587454,1.23988634768,0.009444621816247485,971.8151931435802,971.75374321206,971.91055976319,0.00263380634739503,-0.0015954661535059404,Lift Down
-0.9824707031208,-1.16589355468,-0.81372070312,0.008184950496741,0.33130371093359995,0.18395996093,0.42370605468,0.0036223685581312903,-0.2023876953092,-0.26782226562,-0.05981445312,0.0034462525394365873,1.0593359374864,0.86524073854,1.20728989333,0.00894848591837711,971.8073952836144,971.77383374266,971.81998330385,0.0001414318949868054,0.0003100914255233234,Lift Down
-0.9725889867629591,-1.04138183593,-0.91162109375,0.0008588399845178275,0.28865518374989796,0.21496582031,0.34790039062,0.0015626687805335203,-0.186341577642449,-0.24108886718,-0.12902832031,0.0008898851320870678,1.0324966392018367,0.95799861207,1.1026286789,0.0012150282840646168,971.8196453625641,971.81307054935,971.82462453957,1.0319691991371989e-05,6.470731451026714e-05,Lift Down
-0.9757728576620833,-1.14184570312,-0.81921386718,0.006486049122816207,0.25934727986354167,0.14343261718,0.34545898437,0.0035786386367207775,-0.15444564818916667,-0.27270507812,-0.04870605468,0.004731126271735634,1.024859612040625,0.85838691955,1.20591858007,0.007631096734468733,971.8228764497995,971.81323482085,971.83587959108,2.8696368412066544e-05,-3.411529038918157e-05,Lift Down
-0.9976494367695349,-1.20727539062,-0.87365722656,0.007272590323632701,0.2711422942363953,0.13024902343,0.39562988281,0.0038444395696857567,-0.16287586300523257,-0.32458496093,-0.05297851562,0.0044853977074367345,1.0499822489417445,0.93233508891,1.24861232502,0.008407127386280007,971.8258934651063,971.81083376377,971.86332366014,0.00015532643929723567,0.000136348265829871,Null
-1.0305873325865478,-1.20300292968,-0.82849121093,0.008454180369207386,0.31341698055738093,0.16809082031,0.5908203125,0.013940891047024662,-0.15553937639166668,-0.31945800781,-0.01892089843,0.009538012872613782,1.0982840235525,0.89517796555,1.28041120729,0.009976855616551194,971.8187001198395,971.80024508233,971.83050928924,5.161637646796516e-05,3.824508211391152e-05,Null
-0.8722139246283334,-1.18701171875,-0.56311035156,0.04770461356638708,0.4448696959207843,0.16381835937,0.76513671875,0.034767382783301964,-0.18192425895882347,-0.39221191406,0.12927246093,0.02186584772494326,1.0409472345264708,0.87076458891,1.23495941572,0.011620316298024055,971.8692344037527,971.79614258659,972.02464488683,0.004519704918791161,0.0018590014249534942,Null
-0.6546400282087778,-0.74084472656,-0.62951660156,0.0009126167265352848,0.7740180121489999,0.74829101562,0.81750488281,0.00018723302714197037,-0.21469048393622225,-0.29138183593,-0.17834472656,0.000689454145984427,1.0366690900172222,1.01380817327,1.14108216908,0.0008454681958538226,971.8032668906644,971.77858626109,971.86587254621,0.0002731225746094833,-3.88241162788772e-05,Null
-0.7942460222907316,-1.06408691406,-0.39709472656,0.04255407135985075,0.5619864114864633,0.28527832031,0.83264160156,0.03801417083580201,-0.15989126809926826,-0.33740234375,-0.02661132812,0.007554492392992379,1.024788157931951,0.7270603935,1.1736058296,0.009190060600880188,971.7689935732509,971.72236231214,971.83877467089,0.0007567966093535325,-0.0006990134660395504,Null
-1.015003551131948,-1.15649414062,-0.79760742187,0.008858517275556076,0.35374708299064944,0.23950195312,0.53503417968,0.004652698802454471,-0.06808035713987014,-0.22094726562,0.04345703125,0.007150915443823468,1.081624687931948,0.85461360395,1.24963639454,0.010623942451848771,971.7945335950684,971.77090361526,971.81262682275,0.00010282043082230818,0.0004115236984833826,Null
-0.9933642578072,-1.20300292968,-0.67565917968,0.028139757803916914,0.3129589843716001,0.22473144531,0.43664550781,0.002736760893436985,-0.18915527343400002,-0.279296875,-0.06555175781,0.003957003854367211,1.0610256894731998,0.72105905484,1.29333990365,0.029482250597255656,971.8024238070121,971.78955238821,971.82131259788,9.55653811206539e-05,-9.68455553187245e-05,Null
-0.9719144380976925,-1.12158203125,-0.7958984375,0.010341699462388975,0.3082017164934616,0.19165039062,0.40270996093,0.0026127602501481756,-0.17435866135432693,-0.28527832031,-0.05432128906,0.0039976079396628695,1.0374896367129807,0.85422547455,1.18881978554,0.01051231650260528,971.8015918715893,971.78673442186,971.81779725067,8.48995517656114e-05,0.00017483149756027772,Null
-0.9363081737201074,-1.31311035156,-0.64892578125,0.033838042551575145,0.25912639658526876,0.03100585937,0.43603515625,0.007003213205551958,-0.08041677167182797,-0.28430175781,0.09533691406,0.010824985843660923,0.9839202577993551,0.69071621055,1.33540513769,0.03365989400012393,971.8281801441291,971.78931863142,971.88798624582,0.0008472814084596207,0.0008859447259194667,Stairs Down
-0.9426182338134526,-1.36584472656,-0.64855957031,0.030044478388309266,0.3326546805211905,0.08911132812,0.53527832031,0.009707764695073206,-0.1699204217784524,-0.39782714843,0.01159667968,0.01375298955836155,1.0253951166416668,0.74524746577,1.48345253539,0.02984969479006054,971.9025740440127,971.84098510471,971.99595534654,0.0011225328320872729,0.00044348882356098153,Stairs Down
-1.0178620413413484,-1.75451660156,-0.59729003906,0.08132805532216851,0.36016365650887644,0.12084960937,0.68103027343,0.016350434942629565,-0.18216593881314608,-0.33068847656,0.01721191406,0.008388835735070897,1.1018755200457304,0.65561997734,1.91088607902,0.09071054010577163,971.9738427920532,971.925393497,972.02434318298,0.0008665248618330093,0.0009075135239178721,Stairs Down
-0.9651865332974748,-1.49645996093,-0.52722167968,0.05702166583955832,0.4008073903058585,0.21337890625,0.6552734375,0.012438522616876307,-0.19452582464919194,-0.36767578125,0.00280761718,0.011379408052244853,1.0735665244581816,0.70156349997,1.63745269161,0.05813710057165892,972.0755714432161,972.00072300033,972.17336260245,0.0023399050429600697,0.0009616804884192664,Stairs Down
-1.0424996708188763,-1.81225585937,-0.41101074218,0.15033201802128435,0.322700414761573,-0.02209472656,0.70544433593,0.03241792963098447,-0.2966418319834832,-0.66259765625,-0.017578125,0.02607764257643489,1.1477168745732587,0.49334539724,1.97310442979,0.1700756488037127,972.1424539852425,972.0637518899,972.28775670798,0.003792594735312564,0.000702848821108582,Stairs Down
-1.0141493398884809,-1.88793945312,-0.458984375,0.13405421574471807,0.35466988478658235,0.05493164062,0.58703613281,0.02267111830123337,-0.2197296528836709,-0.51428222656,-0.06164550781,0.015719014855071278,1.1164722109268352,0.57504894939,1.96872054562,0.1279415557631062,972.1977824968208,972.15101685112,972.29008430034,0.0015878794280948817,0.0012683611673355083,Stairs Down
-1.0519923520851686,-1.41577148437,-0.49755859375,0.05103381324367124,0.3661601891639326,0.14208984375,0.61254882812,0.015604905042113499,-0.22135325227797756,-0.41381835937,-0.01245117187,0.009585535585795162,1.1485088233243819,0.72782611688,1.5101348159,0.0465770775453376,972.2849631708268,972.21926983307,972.36810178118,0.0013584380520325747,0.0007092830354387446,Null
-1.0183553890269388,-1.32458496093,-0.73571777343,0.023628919821449976,0.24436359016,0.02038574218,0.40869140625,0.007741328068113482,-0.17942841198663267,-0.30603027343,-0.07763671875,0.004747494983141991,1.0676618593559182,0.75180818225,1.38785728137,0.025058868878464587,972.3196673818504,972.29224176335,972.3546671053,0.00020586488768497153,0.0003638539450510002,Null
-0.9860160134018181,-1.10168457031,-0.88708496093,0.0030417250004269435,0.2853157737,0.11145019531,0.4130859375,0.006299823302593017,-0.15301374955306815,-0.29162597656,-0.07202148437,0.004724588200453917,1.0427541794964774,0.92303603008,1.15381689145,0.0036574541239825175,972.3398195282214,972.3261552591,972.35726651879,7.131546274337358e-05,0.00018664731920708098,Null
-0.9751036844096296,-1.09460449218,-0.82409667968,0.004600625820934451,0.3070249204248148,0.10754394531,0.40637207031,0.004535621818516973,-0.12359242380086423,-0.23999023437,-0.02807617187,0.004627591403715152,1.034598351762963,0.90953519203,1.13723406302,0.0036113343398596924,972.345144985105,972.32978083783,972.39541373268,0.00018008929115729508,-4.504366184438177e-05,Null
-0.9705917210223298,-1.09350585937,-0.88793945312,0.0023314880117404745,0.2864421362980583,0.22961425781,0.37707519531,0.0016936314501801535,-0.1402493078686408,-0.2216796875,-0.02038574218,0.003724420388887506,1.0241694525387377,0.92859621673,1.14557637093,0.0025431798740741707,972.3507485533959,972.34327580883,972.36339992539,3.830307339559638e-05,-3.0755286766879604e-05,Null
-0.9732413913848914,-1.01306152343,-0.94372558593,0.00036421337561289333,0.25498763374347827,0.05859375,0.36193847656,0.004112926676217489,-0.16027964715989132,-0.23266601562,-0.06213378906,0.0021753748349258918,1.0218679281086958,0.98181505213,1.04627618459,0.00027620928080845475,972.3505111189503,972.3311945301,972.37527035499,9.705997294523736e-05,0.0001865648421785435,Null
-0.8820757184673809,-1.12145996093,-0.31848144531,0.047940311821649734,0.3883870442667857,0.20324707031,0.58190917968,0.011397932068785257,-0.30101376487857145,-0.671875,0.142578125,0.0858324818643281,1.0731485924517856,0.81344484448,1.25627726103,0.011442173614185286,972.3772830047664,972.33431478308,972.42999025752,0.0009754480491067614,0.0009752006949840018,Null
-0.6470218014357142,-1.38464355468,-0.24951171875,0.08961790300427888,0.3455461774518182,0.08142089843,0.65637207031,0.018543262174801754,-0.6497041776541559,-0.89758300781,-0.10998535156,0.041767401537836556,1.0321562995093503,0.76465696327,1.64860963148,0.04335272906316199,972.3665826160092,972.16114754649,972.59625611257,0.016292062044849197,-0.003632052857878436,Null
-1.0942447743485104,-1.40502929687,-0.74584960937,0.030967704829002435,0.335973861365532,-0.02612304687,0.73205566406,0.030143103237266516,-0.0704787234042553,-0.51086425781,0.27270507812,0.059555457755696956,1.184471688076702,0.7698108533,1.48555779765,0.035340922112191635,972.2924946164304,972.18707620194,972.40197230784,0.0018753763162417398,0.001386773991621651,Null
-1.0206865133660825,-1.26538085937,-0.89514160156,0.008248083623099143,0.2657357441971133,0.06884765625,0.41918945312,0.009328254213524715,-0.13239972615896908,-0.3583984375,0.08715820312,0.018388719434949036,1.0757261277081442,0.92535375229,1.30444780306,0.008440731296019133,972.3402056133638,972.28107247985,972.77084540007,0.010524747981503628,-0.0008762430821092345,Null
-0.8459711184414942,-1.15856933593,-0.46606445312,0.0332503799915008,0.5158901872260918,0.29052734375,0.82189941406,0.026696758632983018,-0.1890939295932184,-0.38720703125,-0.03991699218,0.009813444682677414,1.0359279671918393,0.82997300323,1.3354935996,0.013533878860525674,972.419203899926,972.33543015754,972.62412786735,0.009795377990958169,0.002858970929083804,Null
-0.33500518798625,-0.79858398437,0.6337890625,0.3069742130455933,0.63169403075725,0.04455566406,1.22839355468,0.10312375895716593,-0.24241180419625002,-0.67224121093,0.05798339843,0.04986705864608271,0.9937115523643751,0.58756134088,1.36696887856,0.037247722279409735,972.3069666229796,972.24577314431,972.46753756301,0.002771714661049404,0.0002887163684774901,Null
0.7379944440195144,0.60314941406,0.8798828125,0.003618578031085618,-0.16967299377999998,-0.62353515625,0.23376464843,0.1254550197885438,-0.5497075053050483,-0.72351074218,-0.31372070312,0.017095296511247596,1.008357678413495,0.86292378546,1.09215070419,0.003508099558128598,972.3098772156843,972.27613269706,972.36379713325,0.0005157213509683712,0.000439866011870047,Null
-0.5731752457132258,-1.37268066406,0.70727539062,0.4946980115183936,0.19233030913838708,-0.67370605468,0.77331542968,0.20937371525687776,-0.26532573084344085,-0.6220703125,0.08569335937,0.03837756181369583,1.0360829079778495,0.23132581885,1.67273989703,0.09797016691873937,972.3026208952573,972.23153935322,972.36409392012,0.0018455177702327089,6.99170346810188e-05,Null
-0.9691500376471084,-1.04418945312,-0.89135742187,0.001622320789070221,0.31134695029759035,0.22314453125,0.46936035156,0.0034162857375868447,-0.18661168109590365,-0.23156738281,-0.10559082031,0.0011229436256140369,1.0368004451542168,0.95437883547,1.10151960411,0.002170945964902574,972.3606992882887,972.34296916001,972.37455281165,9.178474779356656e-05,0.0003751098481494069,Null
-0.9649099326961444,-1.0224609375,-0.93286132812,0.0005823672912612902,0.3076113045891567,0.2529296875,0.38439941406,0.0007628729080161709,-0.1758709643228916,-0.29284667968,-0.08911132812,0.0027261064126209446,1.0294029097832529,0.98003890201,1.09408146059,0.0009701207927554197,972.3835037475768,972.37273669816,972.39333958294,4.6892375897729756e-05,0.0001598942888641021,Null
-0.9771130131707843,-1.06604003906,-0.9091796875,0.0016030659608085975,0.29677686503892153,0.1728515625,0.36645507812,0.004173157250209841,-0.19392903645509807,-0.28637695312,-0.10546875,0.0036723850780519727,1.0428140950921565,0.95965460297,1.1492059563,0.0023526221850799695,972.3871829067737,972.38141663801,972.39684571824,1.9392616608824655e-05,-5.9391492716788256e-05,Null
-0.40259738497911113,-1.0537109375,-0.12744140625,0.06021022302011792,0.5265001085036667,0.31127929687,0.72106933593,0.013265564750867178,-0.666166178382111,-1.00390625,-0.2255859375,0.05370363594781462,0.9980495520325557,0.69945217477,1.17125856717,0.01287081562965328,972.4684873222475,972.17637260004,972.6670932131,0.01303427981586353,0.0005102652928200392,Lift Up
-1.033632577180482,-1.37707519531,-0.90246582031,0.011895630912682144,0.35192282802698804,0.25708007812,0.50891113281,0.004511202218951212,-0.1212878859166265,-0.31762695312,0.12805175781,0.015985246124158296,1.1074753757018074,0.96724391581,1.46392677089,0.012608750880155117,972.2897794277873,972.18307906427,972.39821657991,0.0034464789250517745,0.0023982951131333746,Lift Up
-0.6527539062451,-0.99621582031,-0.44409179687,0.020681898858744767,0.6755651855431001,0.50524902343,0.80261230468,0.00602184457451978,-0.3015820312488,-0.60375976562,0.1650390625,0.051110921880895645,1.0236075566095,0.91006853229,1.1259812407,0.0027189821466240974,972.3983149805496,972.36669648069,972.4445270277,0.00026822975405805193,0.00020866545805410262,Lift Up
-0.6361538501452126,-0.78894042968,-0.53674316406,0.0037646370498364743,0.6976344331745744,0.50170898437,0.9140625,0.011442499448815065,-0.39220022647617014,-0.57556152343,-0.24365234375,0.00914188228270057,1.033091289637128,0.97142080567,1.11681280321,0.0020406237627079668,972.3722445730177,972.31565853787,972.40728463802,0.0006700691644726391,-0.0002875319032691403,Lift Up
-0.5811200823060713,-0.63940429687,-0.53552246093,0.0006104274853498096,0.8331182570647616,0.71508789062,1.00244140625,0.002196450053689588,-0.11768304733702382,-0.32043457031,-0.0458984375,0.0027542298641231706,1.0244681235009525,0.97679038631,1.18035446664,0.001615074699075927,972.3763410138712,972.35624223688,972.39237560614,0.00013050421928432384,0.00036273861362855713,Lift Up
-0.4413984249773076,-1.02233886718,0.306640625,0.13770775451909034,0.6323946439264101,0.01794433593,1.19128417968,0.09867297113748123,-0.37320963541294866,-0.77770996093,-0.07580566406,0.07324455065657366,0.9946668608480769,0.49609179759,1.53715204375,0.05098824000985561,972.4207318328886,972.28199754019,972.56899678011,0.006211538687239318,-5.6320279251871196e-05,Lift Up
-0.7206588445889216,-1.02233886718,-0.42944335937,0.03316297088196396,0.4300070369911764,0.08630371093,0.65551757812,0.021796712203797877,-0.5443234911122548,-0.86877441406,-0.17944335937,0.037857194793727705,1.042382141721765,0.9397500138,1.28067073869,0.005673677605939709,972.428806814837,972.29619971174,972.52091094225,0.004220150348332706,0.0015651892519097624,Lift Up
-0.6649064915115053,-0.86682128906,-0.47497558593,0.011241635115410004,0.6262522051378493,0.33068847656,0.8232421875,0.015915498430250957,-0.21461273521075272,-0.59826660156,0.00561523437,0.04100197179833979,0.969214168017312,0.81083379056,1.13980526404,0.008492518666917963,972.3568962038283,972.21236726806,972.5125808348,0.005232525679003168,-0.0010886321089960448,Lift Up
-0.7109447660866667,-0.72631835937,-0.7021484375,6.136921198345283e-05,0.7327110653794048,0.6904296875,0.74780273437,0.00019711463558691282,-0.07850864954928573,-0.087890625,-0.04833984375,8.390112915197169e-05,1.024091443064762,1.0034363608,1.03215448133,4.716045344906684e-05,972.3681236882358,972.3361465607,972.38403528081,0.00020443416828046435,0.00045245482990956666,Lift Up
-0.7022833573151577,-0.70751953125,-0.69262695312,1.4621676818390056e-05,0.7416298314105262,0.73620605468,0.74645996093,8.643514498479658e-06,-0.07648925780884211,-0.08825683593,-0.06909179687,1.753276966926997e-05,1.0242225585790523,1.01399347132,1.03056858409,1.5683241594643812e-05,972.3865373645856,972.37489501554,972.39436277704,1.6165033890293544e-05,8.70915469038316e-05,Lift Up
-0.7025909423792708,-0.72436523437,-0.69226074218,7.966827404873978e-05,0.7457326253219793,0.73425292968,0.771484375,9.487551034952747e-05,-0.07279713948208334,-0.08703613281,-0.05981445312,5.426845398567454e-05,1.0271863258391667,1.01684687546,1.06110299354,0.00016219475575212413,972.3897030960314,972.38430908226,972.39556777818,1.1565963840887328e-05,8.650478355570164e-05,Lift Up
-0.726718636442558,-0.74670410156,-0.69274902343,0.0002090845568151877,0.7826836164574417,0.75256347656,0.796875,0.00014213189871129048,-0.06619333666069765,-0.08227539062,-0.05261230468,4.8126608503134585e-05,1.0701318736418606,1.02670597542,1.09061358891,0.00031126981194968704,972.3772538360892,972.32808185036,972.39575746741,0.00039583708033025857,-0.0007024557251812841,Lift Up
-0.6993531818597468,-0.70617675781,-0.69104003906,1.771274092252936e-05,0.7443136867049366,0.73742675781,0.75317382812,1.7357028293694255e-05,-0.07299959206518987,-0.07934570312,-0.05981445312,3.628757277044198e-05,1.0239511478674685,1.01603213732,1.03453055131,2.1450020795199448e-05,972.2248184600347,972.13199486021,972.31668199759,0.0035224895735900255,-0.0025738123359416018,Lift Up
-0.6167877532584615,-0.77697753906,-0.37939453125,0.013392994491901334,0.7141931554730767,0.48132324218,0.875,0.011695041277426346,-0.21202271848835166,-0.51977539062,0.00366210937,0.026607005943453683,0.9866350673990111,0.73617344655,1.16337591443,0.01327673535400151,971.9886096571768,971.85011621079,972.11384679843,0.005442419737579223,-0.0021948241058926516,Lift Up
