avg_accX,min_accX,max_accX,var_accX,avg_accY,min_accY,max_accY,var_accY,avg_accZ,min_accZ,max_accZ,var_accZ,avg_magnitude,min_magnitude,max_magnitude,var_magnitude,avg_pressure,min_pressure,max_pressure,var_pressure,slope_pressure,Label
-0.7037633260056251,-0.71044921875,-0.69641113281,1.1076261863060265e-05,0.5887438456177083,0.58422851562,0.59313964843,6.290641205114967e-06,-0.4461250305136459,-0.46118164062,-0.43371582031,4.338836296971442e-05,1.0202830029442709,1.01484575454,1.02951914578,1.2524399865910893e-05,973.7480529559485,973.7414406241,973.75274082277,1.2527198970064192e-05,-6.226464394663472e-05,Null
-0.7067614746059999,-0.72265625,-0.68493652343,9.769210161529555e-05,0.5998754882774997,0.58630371093,0.61499023437,8.76761385875139e-05,-0.4228735351526998,-0.44287109375,-0.38720703125,0.0003162680792126222,1.0191427962824,1.00834228577,1.02986637408,2.928373604249434e-05,973.7472993829032,973.7283673444,973.76896973505,8.010602270328325e-05,0.00011847929291638089,Null
-0.7099487304644998,-0.71667480468,-0.70532226562,9.581747677843498e-06,0.5875769042924,0.57263183593,0.59741210937,4.367041318331536e-05,-0.4354980468714,-0.44738769531,-0.41955566406,6.937137759594481e-05,1.0193498477811997,1.0113407003,1.02879099566,1.702765869055116e-05,973.743725524284,973.73912172292,973.75001251508,1.088588630014752e-05,1.1308801102241066e-05,Null
-0.709360351558,-0.71569824218,-0.69677734375,2.270746712598642e-05,0.587309570309,0.58264160156,0.59289550781,7.1854061572857475e-06,-0.4397656249964,-0.45043945312,-0.43103027343,2.244515851636877e-05,1.020566794091,1.01193971319,1.02803417401,1.3816283291520389e-05,973.7398102046595,973.73205792814,973.74805511444,2.9371285817826157e-05,5.773171417230321e-05,Null
-0.7054345703092,-0.71154785156,-0.69860839843,9.877416826230074e-06,0.5926269531212001,0.58410644531,0.60266113281,3.051878225431562e-05,-0.43567138671479994,-0.44763183593,-0.4248046875,3.8152084203273345e-05,1.0191780654928002,1.01401602134,1.02462023177,8.110480817915886e-06,973.7408212416459,973.73575485927,973.74700987093,9.044647098619816e-06,4.7900524370388784e-05,Null
-0.7037353515586,-0.78588867187,-0.65600585937,0.0014864483264934996,0.5914794921845999,0.40490722656,0.74768066406,0.0060675252566876415,-0.4514526367153999,-0.54931640625,-0.35424804687,0.001950075680603167,1.0277232616782,0.9411855336,1.17466960837,0.0021159839245496435,973.7416530761664,973.70980065162,973.8233242122,0.0008437276561156233,0.0003818520697712109,Null
-0.7718261718707998,-1.47082519531,-0.40307617187,0.07859887559021274,0.5638037109341998,0.15832519531,0.99536132812,0.04458963536250123,-0.3292773437463999,-0.68273925781,-0.01953125,0.034958378329511944,1.0654690192636003,0.60143824941,1.48881305995,0.043792952051642776,973.6954614088203,973.27765310178,974.53055604645,0.07564408651133601,-0.0032754639080842486,Null
-1.1433056640582,-1.35144042968,-0.93432617187,0.014938023331304224,0.3290258789024,0.09985351562,0.65734863281,0.037871647296605346,0.0410058593728,-0.10009765625,0.14782714843,0.0062394634879087574,1.2052502193294,0.95253526703,1.45583654006,0.023149396504086636,973.7044315285073,973.64576849882,973.80421963153,0.001881465427366779,0.0008930583232698504,Null
-1.1719091796833998,-1.47216796875,-0.84753417968,0.024826543523950046,0.2620434570272,0.11889648437,0.63513183593,0.014130048444630101,0.0803173828118,-0.10437011718,0.53588867187,0.028361200057301805,1.2206069460786,0.88300939912,1.50786797021,0.02550714956375975,973.7317154152174,973.69059137587,973.78139436944,0.0008567406361542748,-0.000582393184424474,Null
-1.0947998046844,-1.65246582031,-0.53918457031,0.06107998857618779,0.2907470703088,0.09509277343,0.63513183593,0.021341052320300303,0.127868652341,-0.13525390625,0.53662109375,0.032063187522576586,1.1613573226242,0.54960330507,1.73606018299,0.06470648363867855,973.6480018035588,973.53211929579,973.76788366209,0.0038947250067623966,-0.0006855495999014542,Stairs up
-1.0467993164024,-1.45654296875,-0.6201171875,0.06512691390051917,0.22367431640260002,0.06469726562,0.33483886718,0.0046613171907715105,0.0915917968722,-0.02795410156,0.21948242187,0.007837130228179424,1.0816068447564,0.65327812708,1.49585649287,0.061801825226363995,973.5335289565035,973.48484012379,973.57487383276,0.000706732718123815,-0.00041734909633548057,Stairs up
-0.9485595703091999,-1.36108398437,-0.56591796875,0.0591429730856114,0.3657983398405999,-0.03979492187,0.70556640625,0.03842662674571516,0.1504028320288,-0.04516601562,0.35729980468,0.015382113631165218,1.0599471141676,0.71674778117,1.46643611062,0.044978795184890716,973.5446355465776,973.25212030405,973.82343643135,0.01558294421008199,-0.0012521511303011205,Stairs up
-0.9566479492145998,-1.23620605468,-0.72265625,0.02728893540696299,0.38403808593399996,0.16931152343,0.82092285156,0.01964836527610657,0.0831542968756,-0.12414550781,0.39465332031,0.02546033232999346,1.0588710769340002,0.79957266063,1.33591462277,0.02024331958387223,973.3052777829033,973.11540380329,974.07964365484,0.019443008527529275,0.0021364653295391773,Stairs up
-0.9592626953087999,-1.30187988281,-0.58874511718,0.038439266031521396,0.336040039058,0.09143066406,0.58703613281,0.016221693886752455,0.1340478515592,-0.07958984375,0.32751464843,0.01111488910613545,1.0369791497024001,0.68508881701,1.39744024041,0.04128180463258099,973.2977147641033,972.6184037828,974.17328861575,0.23542964865088428,-0.010042102504737482,Stairs up
-1.1105419921829998,-1.41540527343,-0.82543945312,0.023454072595940022,0.29727783202700003,0.10510253906,0.54821777343,0.018209100522218715,0.030505371092600004,-0.18383789062,0.18103027343,0.011975051326588297,1.16093588334,0.85176679802,1.46601321014,0.028220121673835388,973.2469109301658,973.18594641199,973.35290339677,0.0017265487516171182,0.00046024799668453135,Null
-1.06925537109,-1.29321289062,-0.87622070312,0.01823515097892081,0.36247070312179985,0.19165039062,0.58459472656,0.01098592098331993,0.07616699218700002,-0.20983886718,0.25146484375,0.01767474049186042,1.1444577788036,0.93472633932,1.36039650562,0.017309814941031943,973.2717528415234,973.21527794659,973.3527313451,0.0018700750848423646,-0.00029992427462193746,Null
-1.0008618164019998,-1.09020996093,-0.91101074218,0.002258658656008773,0.2926586914024,0.20520019531,0.39282226562,0.004649163021004857,0.03936523437479999,-0.16845703125,0.26037597656,0.015457586350499241,1.0532275194960001,0.95084774283,1.13504592795,0.001794598977883274,973.2780000130584,973.24997835136,973.31094629934,0.000374998750602186,0.0004715320399577091,Null
-0.9835961914030001,-1.0322265625,-0.91735839843,0.0005249904201917188,0.24649902343379998,0.1171875,0.40673828125,0.004705463057803433,-0.0083691406232,-0.2265625,0.16845703125,0.008471075428432508,1.020266387414,0.95084774283,1.08034619665,0.0009235264029275525,973.291647983964,973.26941183649,973.32426620836,0.0001778434290477126,-9.453784013393927e-05,Null
-0.9867602539028002,-1.09533691406,-0.86486816406,0.0014943385425367755,0.30167724609,0.26721191406,0.458984375,0.0019156852214074552,-0.0137060546854,-0.16296386718,0.01037597656,0.0009944174264846803,1.0332568646024,0.99258290319,1.15347643642,0.0016499635921721585,973.2881572802927,973.26600335918,973.38864582201,0.0002706744071045795,-5.525540120920333e-05,Null
-0.7302392578086,-0.86486816406,-0.68872070312,0.0011520672567249194,0.5978540039023998,0.45581054687,0.6826171875,0.005494133324371128,-0.32982910155940004,-0.37878417968,-0.16296386718,0.0030785786743381637,1.0038482179808002,0.9148472083,1.04596539736,0.0013962692756816066,973.3200502985579,973.12355989507,973.63414098086,0.02556273265211709,-0.003573879408772251,Null
-0.7188452148406,-0.74609375,-0.71032714843,3.3231269232749736e-05,0.6203637695277999,0.59252929687,0.63171386718,5.1475829547102245e-05,-0.37324951171579995,-0.3828125,-0.34765625,4.225705006442834e-05,1.020302614629,1.01167975538,1.02539754956,1.3249017328135324e-05,973.2637943306053,973.25331058037,973.26825877585,8.982781672212362e-06,1.4675131985040667e-05,Null
-0.7188818359346001,-0.8369140625,-0.63562011718,0.003400901255098799,0.6603466796829999,0.51550292968,0.85827636718,0.0072574616441267925,-0.31294921874560006,-0.42663574218,-0.19116210937,0.004830637628370729,1.0293855343251996,0.89181922854,1.20767582962,0.006551088044380572,973.2506564611415,973.2142837707,973.32831658183,0.000833662103670201,6.161928904550085e-05,Null
-0.9835131835898,-1.51086425781,-0.58740234375,0.07700220648096738,0.47240234374599993,0.14282226562,0.87622070312,0.040649778818837,-0.1889086914062,-0.67236328125,0.13500976562,0.06990063865228051,1.161152967095,0.66198006776,1.56251425736,0.0641914495773894,973.204695358115,973.09954347497,973.48571434138,0.006282952989495443,-0.000992694764613054,Null
-1.1779370117154,-1.56616210937,-0.58374023437,0.06262869401998253,0.290949707027,-0.14074707031,0.68005371093,0.057478332284074916,0.0309130859364,-0.18188476562,0.12902832031,0.007655210903955083,1.233632038948,0.58599128476,1.64086892267,0.07856521392565194,973.278106977971,973.18973525336,973.53382352438,0.00497630590257945,0.0008742887362315925,Null
-1.091252441403,-1.62072753906,-0.58630371093,0.06645953968910304,0.285634765622,-0.17724609375,0.78247070312,0.059723472258170124,0.0104370117174,-0.18371582031,0.21411132812,0.007267855182572698,1.1491165907956,0.58775925039,1.78671271502,0.08502571780504828,973.3274747075956,973.21912496535,973.48610890787,0.004845322359648037,0.001161444474810542,Stairs down
-1.0486523437460002,-1.44201660156,-0.65625,0.03928775146770003,0.2272363281214,0.09033203125,0.41381835937,0.007114201627547773,-0.0358105468742,-0.28662109375,0.21411132812,0.012615655262585988,1.0826695802108,0.71608211002,1.49805222153,0.03923686312157293,973.4260322559028,973.28573396786,973.56727026232,0.006389735054681177,0.001317894769168092,Stairs down
-0.9894995117150001,-1.36791992187,-0.75793457031,0.02352622692649295,0.3292480468717999,0.19104003906,0.70251464843,0.009150687492236992,-0.003713378907,-0.17260742187,0.12939453125,0.008587638590751508,1.0508784987292001,0.79735107786,1.39993894414,0.024276401641478894,973.5534226114831,973.49621790364,973.70392928798,0.0035432435792656764,0.0007044871752390771,Stairs down
-0.6828173828083999,-1.11218261718,-0.38647460937,0.030426004173662025,0.7376757812453999,0.48278808593,1.09326171875,0.02114642205875352,0.0722534179664,-0.265625,0.30883789062,0.0211237315270298,1.0326910732744,0.78258788946,1.32334824027,0.021357612396016117,973.92531752242,972.84757012626,974.36500013593,0.16393844996535573,-0.0007898835159081049,Stairs down
-0.566164550778,-0.8359375,-0.33288574218,0.017759111487776588,0.8445117187468,0.34851074218,1.10717773437,0.029098132981291006,-0.049587402343399985,-0.26940917968,0.15710449218,0.012179701188927,1.0317265363299999,0.73657436958,1.29642346001,0.03049311370147249,973.4343849346051,972.84757012626,974.09518710023,0.09253291676505644,0.006213471347993218,Stairs down
-1.117375488277,-1.33923339843,-0.74035644531,0.02213370872860745,0.40564208984139993,0.09130859375,0.6923828125,0.031986438560066326,0.0973632812468,-0.07189941406,0.34313964843,0.009025591792043486,1.2085473135783997,0.82108302485,1.45409993311,0.024728048403321413,973.6532860880934,973.41136409436,973.75729753976,0.0074577684052714345,0.002512079571947103,Stairs down
-1.110239257808,-1.28649902343,-0.91955566406,0.01201947279632432,0.31167236327779996,0.07995605468,0.60693359375,0.027158864995853026,0.06222412108879999,-0.005859375,0.12866210937,0.001662438451587155,1.1655602600607997,0.92305934121,1.34470702623,0.01570137525771229,973.7222195312811,973.68088261189,973.76195724938,0.0006534777983019793,0.0003778559335447147,Stairs down
-1.1111791992148,-1.4189453125,-0.77709960937,0.024936228262096422,0.32552978515279996,0.04040527343,0.61499023437,0.03271220597971871,0.0464111328114,-0.06066894531,0.2041015625,0.004538077898485531,1.1720021995844,0.78051080065,1.47262435595,0.031129634572139575,973.7252966511701,973.69122192519,973.77516128482,0.0007037823478580229,0.0002902793198311201,Stairs down
-1.1209326171831997,-1.37048339843,-0.7998046875,0.022091969359769592,0.35221679687259994,-0.00537109375,0.75036621093,0.051633577009567694,0.10183105468400001,-0.01782226562,0.24951171875,0.004950917730331303,1.2013882403958,0.95576078984,1.45668233216,0.02572945783767011,973.7188475863268,973.68399187291,973.79645291658,0.0011182896370783714,3.946485795541018e-05,Stairs down
-1.0723803710902002,-1.52416992187,-0.68957519531,0.04642714780383946,0.29115966796419995,0.12329101562,0.57348632812,0.009964043859179943,0.0143676757806,-0.21899414062,0.21875,0.007715517974386471,1.120342663611,0.7005638738,1.56412615079,0.043715152818048296,973.7625595135971,973.68520372745,973.88235552008,0.002139819080465956,0.0007931492496033372,Stairs down
-1.0898608398398,-1.57775878906,-0.49865722656,0.08454751126121308,0.31114013671540003,0.02160644531,0.72839355468,0.03643447101116832,0.0816601562488,-0.22033691406,0.36181640625,0.028662808590777064,1.1590158054260002,0.50374869907,1.6573424605,0.09707466842224208,973.8521822698214,973.69913854507,974.18577517437,0.02083834293933125,0.000373117772240118,Stairs down
-0.9562011718713999,-1.26171875,-0.58801269531,0.028465119275021492,0.3569775390591999,0.09875488281,0.79064941406,0.029659750341201063,-0.0042456054698000005,-0.18542480468,0.24255371093,0.012954907759757411,1.0356420296374,0.61191327301,1.32842557535,0.03998609666496287,973.9161458064904,973.78998286626,974.06917058547,0.004522188917358604,0.002117332833828118,Stairs down
-0.9970703124957998,-1.41076660156,-0.79724121093,0.024927400579315542,0.27864257812079996,0.20715332031,0.45300292968,0.0035294021981699154,0.0043261718742,-0.18054199218,0.16137695312,0.012204529756673107,1.0430265538942,0.85246189113,1.44540164775,0.024403977017499703,974.0451920739235,973.98294810126,974.1893644218,0.002480355053793631,0.000666161042073519,Stairs down
-1.000961914059,-1.38024902343,-0.63439941406,0.0276920666836806,0.27620605468320003,0.08227539062,0.51245117187,0.015415616974681034,0.0171801757796,-0.20300292968,0.2431640625,0.010232578509295315,1.0519596251611998,0.66310497138,1.43004460903,0.024946972782194907,974.1459623029733,974.07115338908,974.2596743081,0.003422438468938317,0.0006222758436785843,Stairs down
-1.0430639648395998,-1.46691894531,-0.71643066406,0.04005429738152687,0.313854980465,0.07763671875,0.66613769531,0.02952416211059738,0.0180883789054,-0.17810058593,0.2587890625,0.01101673052091612,1.1044796035282003,0.72245222768,1.49442101135,0.04720062269221984,974.2121733043056,974.14160549731,974.33708049167,0.0030018783974940727,0.0009312709183604917,Stairs down
-1.156411132809,-1.54919433593,-0.63220214843,0.0643789012266252,0.26795166015219996,0.01782226562,0.70202636718,0.03552618135691844,0.0539941406232,-0.14379882812,0.203125,0.007925080192968401,1.2042237913276,0.63348462473,1.59368090853,0.0692899889214931,974.2716452036985,974.16762764543,974.51726843914,0.005636230102055352,-0.00046721279339298,Stairs down
-1.1401708984340002,-1.384765625,-0.88671875,0.01667554874613895,0.3522656249968,0.04345703125,0.662109375,0.03454753519302227,0.10257080077820001,-0.01904296875,0.2060546875,0.003374695663366269,1.2120671003180001,0.89498117118,1.43222419637,0.019744104540760112,974.2864179360436,974.25265220432,974.31671104242,0.0005398856586689829,-5.4714318929558136e-05,Stairs down
-1.1121874999966,-1.37036132812,-0.94799804687,0.009016052616895344,0.33233886718339994,0.08215332031,0.61608886718,0.032784289927995536,0.08290527343380001,0.01379394531,0.1357421875,0.0009773098820062174,1.1766388328896,0.95613511617,1.4265317901,0.012277146457207098,974.2943259698242,974.25057544569,974.3489162852,0.0008973383182058375,0.00013787133762982316,Stairs down
-1.0689282226518,-1.35717773437,-0.79382324218,0.024947120451489023,0.2847387695273999,0.05163574218,0.61059570312,0.022002960750555915,0.052604980466400005,-0.0517578125,0.13525390625,0.0018542911127157615,1.118068700429,0.84076361736,1.38286735404,0.02493909670178207,974.2955800174603,974.24627367715,974.34426340272,0.0007799971766356157,0.00026560339009959287,Stairs down
-1.0569335937456001,-1.30041503906,-0.84118652343,0.017157796657646794,0.21781249999660005,0.04223632812,0.501953125,0.01705788267973792,0.05144775390380001,-0.19921875,0.20861816406,0.011875197266715112,1.0924807411743997,0.85596648416,1.35106608474,0.01950866275308152,974.3529390571706,974.26130082605,974.4824753349,0.003748470248520062,0.0010626437049024477,Stairs down
-1.0402319335904,-1.390625,-0.61437988281,0.03591637183310316,0.3069067382774,-0.01123046875,0.56640625,0.021541741574555528,-0.0059228515624,-0.16528320312,0.09375,0.00529469097468575,1.0933931939667998,0.61572286195,1.42289799789,0.04335949652057712,974.4364630943337,974.34436979446,974.56369352666,0.003893886375503597,0.001168004228877361,Stairs down
-1.0299121093704,-1.34631347656,-0.84899902343,0.016575439385678237,0.233037109371,0.01916503906,0.40417480468,0.006720958912048033,0.0182812499996,-0.12658691406,0.15490722656,0.0069611557561533805,1.0621310583332,0.85052151879,1.37746908382,0.017365701931799062,974.5292056435907,974.41062377167,974.64884829824,0.004375019857414527,0.0014649243402188197,Stairs down
-1.0083520507776,-1.32250976562,-0.77404785156,0.022559834303252577,0.2825952148392,0.13500976562,0.36584472656,0.0034954310004662722,-0.0001342773436,-0.16650390625,0.16748046875,0.00925479769050857,1.0534884168061998,0.80849040564,1.35116289548,0.021972777581516972,974.6338338384926,974.59474998846,974.70642608143,0.001487711026784395,0.0009390247119058081,Stairs down
-1.056799316403,-1.46569824218,-0.61596679687,0.04266269715766356,0.2838842773406,0.07885742187,0.49633789062,0.013436979169980006,0.050732421873399984,-0.12902832031,0.21728515625,0.006543545409461388,1.1040440359253998,0.63652332794,1.4937847686,0.04352768985613903,974.7168692354479,974.63424534618,974.80579982748,0.002444186119105238,0.00019364148747700696,Stairs down
-1.1165551757768,-1.59509277343,-0.60144042968,0.07618781875463883,0.25887451171599996,-0.17468261718,0.76708984375,0.050331335025063435,-0.013796386719,-0.45153808593,0.20263671875,0.028958677937205725,1.1733764235011999,0.61187731659,1.61182866038,0.09193195538376862,974.799240718384,974.66266045301,975.09085827911,0.014008842640626714,0.000667897953365857,Stairs down
-1.2817993164016,-1.70239257812,-0.85229492187,0.06700091003768464,0.28180664062179994,-0.15710449218,0.79724121093,0.0550751470309371,0.0185449218744,-0.2568359375,0.123046875,0.009527037143163764,1.33476795594,0.85787788378,1.7388264519,0.07217166810378066,974.8311994277892,974.72128901752,975.0447228296,0.0074147231475882374,-0.0006171692213119169,Null
-1.1205371093716,-1.38037109375,-0.81018066406,0.024422198931213362,0.34287841796479995,0.10766601562,0.64965820312,0.027426502927351798,0.04568847655940001,-0.01623535156,0.09020996093,0.0010457900075365883,1.1847305184604,0.81929487959,1.43281438363,0.02427838934166987,974.8569162437649,974.81705899333,974.89378286266,0.0005988046439965138,-6.913910103604814e-06,Null
-1.0121972656214,-1.20056152343,-0.87951660156,0.007498572474547112,0.3078979492136,0.10668945312,0.56921386718,0.015949060368899756,0.07195312499800001,-0.08410644531,0.25866699218,0.009878375409409397,1.0724996736946,0.88870134409,1.23448953821,0.007332224196301654,974.8643186020659,974.82849985796,974.90273858961,0.0003222202054270535,0.00023297260442542813,Null
-0.9939086914012998,-1.07006835937,-0.89050292968,0.0027686816573420743,0.29413696288810004,0.20458984375,0.45178222656,0.0032393340073086346,0.0375244140599,-0.06018066406,0.09790039062,0.002029242238476838,1.0391169795079003,0.9164812576,1.13742250765,0.0038200819274948603,974.8660826423895,974.84286441844,974.89644597496,0.00021861485991405815,0.0003817872751853476,Null
-0.980073242185,-1.23754882812,-0.79858398437,0.007020561117045393,0.33297729491769984,0.2119140625,0.55944824218,0.007047236680568933,0.047152099607100005,-0.02917480468,0.14379882812,0.0024310091090689826,1.0411828256960003,0.87481139909,1.29202598591,0.007375492318297404,974.8918234363268,974.85553521889,974.92291615114,0.0002561767513892554,-8.331846618302356e-05,Null
-1.0832116699187,-1.31079101562,-0.79858398437,0.0249171660571434,0.30216674804349997,0.09643554687,0.59045410156,0.02001765321438831,0.0657446289024,-0.02416992187,0.14221191406,0.002335826308928363,1.1357196384757997,0.81233253954,1.3829960782,0.026175215762092537,974.8476186447116,974.81587733643,974.89564623609,0.0005569883706393573,-6.783140031616758e-05,Null
-1.2450195312458998,-1.68395996093,-0.87219238281,0.037027148887190484,0.3025415039021999,-0.05883789062,0.59716796875,0.03137269802189061,0.1142797851543,-0.08178710937,0.36584472656,0.01595001701683255,1.3040863937192997,0.966235759,1.76386648563,0.03790899703440059,974.8400378375173,974.76163472047,974.9201351839,0.0014218307556530519,-0.0006778894062848664,Null
-1.0564355468706,-1.35363769531,-0.71520996093,0.023699072539425065,0.2757690429659,-0.05883789062,0.56701660156,0.024408563068015393,0.148858642576,-0.04968261718,0.50500488281,0.02447446921072774,1.1237026340548,0.74805964366,1.36441432898,0.023648686068038376,974.7630292076035,974.6869294558,974.86703935661,0.0014747991626280538,-0.0005670525340849304,Stairs up
-1.0015637206988,-1.53491210937,-0.61120605468,0.07182640129083798,0.20219848632350002,0.06762695312,0.36706542968,0.004455093511131221,0.17844726562180002,-0.05383300781,0.45361328125,0.01649845992658268,1.0496553390050996,0.64554226504,1.57911057431,0.06659935917258632,974.6756061829021,974.61152889836,974.75692287693,0.0015947237197666733,-0.0009537526803175154,Stairs up
-1.0212915039038,-1.53491210937,-0.67687988281,0.05072703541553359,0.2551000976526999,0.01818847656,0.4619140625,0.01208279698182033,0.08795166015350002,-0.05383300781,0.20666503906,0.005066994314152541,1.0621907423309,0.68935393573,1.57911057431,0.052499948939906026,974.5771041037092,974.49911344282,974.73684864714,0.002213450436979881,-0.0010904547370405155,Stairs up
-0.9781469726526001,-1.521484375,-0.68884277343,0.0635152696904412,0.21878173827700004,0.06225585937,0.35424804687,0.006661487233752953,0.111738281248,-0.03234863281,0.30908203125,0.01059061153932804,1.0189263660874002,0.70891182898,1.55391686475,0.059465805939637524,974.4895632947331,974.42675729153,974.54867381835,0.0007908366162881293,-0.000850905311102733,Stairs up
-1.0041015624966,-1.46691894531,-0.68713378906,0.04629970259186323,0.29063964843379997,0.20751953125,0.37158203125,0.0024297567570099317,0.0755346679668,-0.1171875,0.26257324218,0.011058055565307354,1.0571640535531999,0.73751267284,1.48618490403,0.04039458864067914,974.4108278495019,974.36366336807,974.47674219449,0.000897023928618571,-0.0007168463873942687,Stairs up
-1.0012109374968,-1.42858886718,-0.65991210937,0.05419610837482123,0.2449829101528,0.09484863281,0.36328125,0.0039616005890770545,0.0599804687482,-0.08483886718,0.17553710937,0.004663283631881164,1.0372505850904,0.69828772763,1.46200775783,0.05287033400033555,974.3463275383853,974.28961420067,974.39853193959,0.0013074157538885587,-0.0006163909282940513,Stairs up
-1.002526855464,-1.20007324218,-0.7919921875,0.015207833864623809,0.304682617185,0.12866210937,0.53173828125,0.011216253921333637,0.0414208984352,-0.08959960937,0.18115234375,0.004757632173230619,1.0540626678808003,0.83066128161,1.31230963734,0.019625332230049454,974.2939529284006,974.26281470714,974.32495428985,0.00036232573808088405,-1.518369657782376e-05,Stairs up
-1.1122583007774,-1.27758789062,-1.001953125,0.008216264205655775,0.2843786621058,0.08642578125,0.482421875,0.015382485454423925,0.0132250976563,-0.17053222656,0.21984863281,0.014534060767917195,1.160315070109,1.02818253219,1.36248746349,0.01196810807282142,974.2978543212729,974.2602322412,974.37297201833,0.0009242017733290298,2.629037160120688e-05,Stairs up
-1.0384790039023,-1.21179199218,-0.88098144531,0.007925965442765548,0.29057495116829996,0.15771484375,0.48876953125,0.008479687871122675,0.0259851074214,-0.14770507812,0.181640625,0.012999961066854892,1.0874391093644,0.91184454591,1.28121609759,0.010237789155360406,974.292328149601,974.24210292685,974.35443505925,0.0008741790104053847,0.00036718728768657307,Stairs up
-1.1070678710908999,-1.36096191406,-0.83850097656,0.022117357512863495,0.27844482421440003,0.13659667968,0.45971679687,0.00906811578698942,0.0529956054674,-0.16674804687,0.20959472656,0.012792002377250623,1.1513922953712,0.8825385673,1.428348211,0.024012937990256743,974.2877541733121,974.2432904241,974.35443505925,0.0007578040005762622,-0.0003839369873235386,Stairs up
-1.057316894528,-1.53930664062,-0.6572265625,0.05670306701253986,0.1866455078081,0.05065917968,0.33239746093,0.005983509800599984,0.0554980468728,-0.03186035156,0.25512695312,0.007029758414466494,1.0812098619069,0.70195936434,1.56442653619,0.056404041047630776,974.2733702561824,974.20635243289,974.31716394574,0.0010888204847614635,-0.000538935651537733,Stairs up
-1.0933532714810998,-1.45104980468,-0.79760742187,0.030295773098806777,0.2756408691371,0.06970214843,0.56677246093,0.02148821810721374,0.09461303710820003,-0.11071777343,0.314453125,0.011550778166705074,1.1476680851329,0.84532901691,1.45908362014,0.02617199983115062,974.1785900143024,974.10209011422,974.27405526824,0.0022858566198236518,-0.0006488124831134153,Stairs up
-0.9623071289026999,-1.63793945312,-0.58264160156,0.0867022085009099,0.2436926269485,0.06689453125,0.41931152343,0.01020954987443167,0.070367431638,-0.16284179687,0.24060058593,0.009682330330674673,1.0071419180162002,0.6725959126,1.69104830454,0.0823898858547212,974.1025344900405,974.01824641939,974.21040844092,0.0030213668206458674,-0.0013814922835433119,Stairs up
-1.0779760742143998,-1.58984375,-0.64379882812,0.08343724186361356,0.24304077148100006,-0.00085449218,0.48168945312,0.013402763790175834,0.09127319335630002,-0.00231933593,0.21520996093,0.002976805662420809,1.1164777257444998,0.65476182957,1.6343265477,0.0849620342074974,974.0127195208001,973.95155317745,974.08291489991,0.0014419751611129007,-0.0007309263075877839,Stairs up
-0.9618737792939,-1.396484375,-0.67004394531,0.04344625185715942,0.19866943359049993,0.06237792968,0.34155273437,0.006301387241398704,0.0899670410134,-0.01452636718,0.2529296875,0.0066712424894085865,0.9955301870769999,0.71703891669,1.4111637838,0.03791830201179545,973.9133973750614,973.87411590329,973.95155317745,0.0005207139452207857,-0.0006252480349471,Stairs up
-1.0085546874963998,-1.38049316406,-0.79748535156,0.030646452903748764,0.2148852539022,0.08386230468,0.40649414062,0.009689281751378497,0.08656372070050003,-0.10571289062,0.28698730468,0.011876126025997445,1.0448019915159,0.82237220309,1.44470689302,0.03124247308783481,973.8459563143464,973.78503155507,973.89052989441,0.0007671584308674147,-0.000778452380925583,Stairs up
-0.9991418456995999,-1.35339355468,-0.73095703125,0.02772128746183815,0.26536010741829996,0.12145996093,0.44018554687,0.005596691627357845,0.089482421871,-0.04748535156,0.23120117187,0.004977234060008918,1.0418207182664998,0.76403083072,1.35909576946,0.029524616432648202,973.7792255724448,973.74175338975,973.83267769593,0.000622321451635886,-0.0007544747710597062,Stairs up
-1.0277575683558,-1.21276855468,-0.83325195312,0.010751761238778771,0.27248413085629997,0.17626953125,0.40734863281,0.004287166937139401,0.0414770507796,-0.11853027343,0.16638183593,0.007452212071828914,1.0689797953126998,0.86830226454,1.26821672902,0.01192120472820919,973.7437311710124,973.70202813597,973.80609382975,0.0009084276381467591,-0.00010163119294613196,Null
-1.0504003906219999,-1.24365234375,-0.76623535156,0.016168762120259316,0.3060278320278,0.171875,0.43469238281,0.006460563697176839,0.050765380858799995,-0.11853027343,0.1962890625,0.009908833784536433,1.1019255380425002,0.79896650538,1.29893248289,0.017721237477505324,973.7372049173687,973.6913218647,973.77547289281,0.0003948295730283015,-0.00017554297674184205,Null
-1.0291308593722999,-1.17749023437,-0.89709472656,0.005821896779428309,0.2710217285116,0.07946777343,0.36743164062,0.006096712355415838,0.05271484375050001,-0.15673828125,0.28625488281,0.01980537438560719,1.0777150919882,0.94992742261,1.20904018908,0.005332204012457621,973.7386662620305,973.7046329906,973.80748244164,0.000681361882663697,-0.0001376532706305113,Null
-0.8704089355433999,-1.10546875,-0.69506835937,0.02490392685418541,0.5171020507763999,0.25073242187,0.79992675781,0.02966540916416918,-0.10215454101280003,-0.28576660156,0.02368164062,0.010486209445100377,1.0465455912187003,0.92475005555,1.17567684812,0.0046354664163015,973.8580098792742,973.58405572459,974.65700812052,0.04048510842814464,0.001707582760027672,Null
-0.7389428710903999,-0.75244140625,-0.69775390625,0.000287763151262292,0.6528100585904,0.62609863281,0.73681640625,0.0009199418142348992,-0.26867797851180003,-0.30004882812,-0.2431640625,0.00020827593675682855,1.0225805786320001,1.01094468893,1.05423976436,0.00011735026937848117,973.6521391918363,973.55544346037,973.71297314747,0.0027499625372360134,0.0016720329979290648,Null
-0.7492614746049,-0.78002929687,-0.69763183593,0.00034836487790531,0.6354089355428998,0.6142578125,0.65014648437,9.882114600742412e-05,-0.2725708007773001,-0.3212890625,-0.216796875,0.000777095706765295,1.0199766763132998,0.98276841287,1.05516627712,0.00029467962189320496,973.7470619515683,973.65531834843,973.92020849454,0.007301293096315451,0.0007620338701187238,Null
-0.7732128906214999,-0.98583984375,-0.55749511718,0.008818016124584447,0.617371826169,0.39611816406,0.7470703125,0.005940416393651236,-0.260533447262,-0.59289550781,-0.04455566406,0.013506667570188861,1.0327522445723998,0.82621817312,1.22326680255,0.008372801547500069,973.7808609422405,973.63783843352,974.5223827747,0.053348896703976,0.003966503588909083,Null
-0.8498559570276999,-1.08068847656,-0.43798828125,0.02796714052423556,0.5295874023395999,0.11791992187,0.87915039062,0.04969511091701793,-0.20768798828000004,-0.65026855468,0.17321777343,0.07942314183278826,1.0803600743821,0.6368025274,1.40163312774,0.03453425647696318,973.8593478097188,973.04520374991,974.76330806841,0.16186674643497706,0.0057683427355942445,Null
-0.48683837890209986,-1.00842285156,-0.12927246093,0.049709910810392784,0.6946984863245,-0.10095214843,1.19091796875,0.14384404290019348,-0.3361730956998999,-0.71057128906,0.05310058593,0.058577001772992104,1.0354393370827,0.82561028333,1.26360343853,0.010207039895008855,973.6304274081023,973.04520374991,974.24900472213,0.089329185624757,0.009363230810019198,Null
-0.33345336913689994,-0.74938964843,-0.03271484375,0.06690006977832134,0.4630224609346,-0.44738769531,1.08142089843,0.21147687076025645,0.26132324218670006,-0.78088378906,0.82568359375,0.39937581110120035,1.0283834450206002,0.79111616649,1.1835635153,0.007346969452942063,973.705811255973,973.19896345348,974.47652662519,0.10908433123936517,-0.004042625735603738,Null
-0.29887207030760005,-0.54516601562,-0.06042480468,0.021064063370699295,0.8314941406216999,0.48986816406,1.05822753906,0.014878965989594045,0.36109497069930013,-0.20983886718,0.81726074218,0.07684431084804219,1.0093291999145002,0.76025749308,1.14898863692,0.004051142596938785,973.6935591727206,973.54137090402,974.00291967713,0.01269181175236058,-0.0021747391449785875,Null
-0.8672363281214999,-1.30334472656,-0.06909179687,0.12390153877633657,0.503507080075,0.20910644531,0.9775390625,0.05332990964721914,-0.04137329101420001,-0.32348632812,0.18286132812,0.018684983630413873,1.0814389304323,0.76025749308,1.39795641375,0.0320980658453075,973.7186390071719,973.56301981236,973.91983916842,0.007494138138038251,0.0024829425957500254,Null
-0.8608959960897002,-1.47399902343,-0.06860351562,0.15093596879259139,0.3913354492155999,-0.67761230468,0.98168945312,0.16173264004197505,-0.07786254882819998,-1.05798339843,0.36608886718,0.09457194635601845,1.1166857687129002,0.75317802242,1.93679127113,0.057099969698426845,973.7280696687693,973.58027691172,973.9749938473,0.010634599588809983,-0.0010003041220849984,Lift up
-0.9744116210901,-1.36975097656,-0.07983398437,0.052451176107506665,0.4315185546833999,0.150390625,0.93530273437,0.03672651931502518,-0.036690673828500005,-0.56787109375,0.36608886718,0.06565280823100184,1.1126272245172002,0.45690851112,1.66477534199,0.052904377553196304,973.819453136705,973.74061376907,974.21799724762,0.016493783654825005,0.002566539075262565,Lift up
-0.5243579101551,-1.39221191406,0.6591796875,0.507596959189805,0.26457885741930004,-0.14685058593,0.65515136718,0.03943125926246406,-0.2189892578111,-0.572265625,0.04248046875,0.0598733701839826,0.9588469299303002,0.39467119812,1.54228468108,0.07510567927818129,973.6851205515944,973.36172573025,974.14205744896,0.04363756733139358,-0.0028774776367039147,Lift up
-0.9750732421845001,-0.99523925781,-0.95617675781,0.00011615500304903276,0.30641357421439996,0.27941894531,0.35375976562,0.0005123702624484336,0.0135522460917,-0.01110839843,0.03625488281,0.0001865902271244497,1.0224625032731998,1.0004257473,1.05096170939,0.0002203668656840753,973.7590221443745,973.7354416499,973.77096157629,8.866185263517732e-05,0.0002881954913332717,Lift up
-0.9696093749961,-0.97924804687,-0.95764160156,2.3740686552859156e-05,0.28587402343409996,0.27697753906,0.29736328125,3.7710859324209375e-05,0.021306152340300005,0.00109863281,0.04125976562,0.00010244877050415049,1.0111645289493003,0.9971851279,1.02064670183,2.9097161697173588e-05,973.7666459273335,973.76111223889,973.77037086625,6.458000802699359e-06,-3.883956367974928e-06,Lift up
-0.9680847167928,-1.0029296875,-0.93884277343,0.0001666691492930497,0.29673583984019997,0.26818847656,0.34289550781,0.00025258853580923746,0.031312255855499994,0.00915527343,0.05871582031,9.691128074602179e-05,1.0131800994600002,0.99050961944,1.05354844502,0.00019972549050440995,973.7683565683917,973.76053086292,973.78366441655,3.00325374322993e-05,-1.6130762482043354e-05,Lift up
-0.9678173828094998,-0.98095703125,-0.95959472656,2.2467194185292876e-05,0.31048706054299996,0.28015136718,0.33337402343,9.927860865091911e-05,0.029714355465700004,0.01611328125,0.0458984375,7.43725022868624e-05,1.0169153853254,1.001904901,1.03435133823,3.3232689850616684e-05,973.7684515175148,973.76556418272,973.77341940769,3.611663836909901e-06,-7.426329347069555e-06,Lift up
-0.9656933593714,-0.97314453125,-0.95910644531,1.7969873216085662e-05,0.31383422851260007,0.30126953125,0.33154296875,6.361930509410146e-05,0.0177795410111,0.00415039062,0.03393554687,4.56620873190679e-05,1.0156216970049003,1.00916253827,1.02035164254,1.0350228024136805e-05,973.766328527328,973.76179159933,973.7701140439,5.5552913697015935e-06,-2.2774667085345614e-05,Lift up
-0.9766625976525001,-1.00622558593,-0.9560546875,0.00021747819700863928,0.26065063476170003,0.20178222656,0.31408691406,0.001490046392493145,0.0133947753908,-0.02819824218,0.04760742187,0.0006178797659170241,1.0120221168842998,0.987137453,1.02734406184,0.00010241243592763799,973.7630946057258,973.75041636322,973.76841092233,1.9044554215865416e-05,-8.399710474885044e-05,Lift up
-0.9756286621047999,-1.0322265625,-0.93237304687,0.0003017970934980785,0.2736279296839,0.20446777343,0.37292480468,0.0025008526475493375,0.036760253904600006,-0.04858398437,0.1279296875,0.0038641808667303707,1.0169502290791002,0.95855579782,1.06202376435,0.0004921619896137046,973.7767476658009,973.74004737555,973.83535884304,0.0007779250633408916,-0.0005299011924671761,Lift up
-1.0072192382765999,-1.04028320312,-0.97973632812,0.0004346837359385946,0.2532910156214,0.24035644531,0.27014160156,4.6628268065803524e-05,-0.0361853027298,-0.05017089843,-0.02404785156,4.245213034366222e-05,1.0392657797342002,1.01303251679,1.07069624683,0.00040552954684774917,973.770537228233,973.76046115476,973.81016096178,0.00012097293113233301,-0.00020395119640765667,Lift up
-1.0093029785105,-1.04028320312,-0.97839355468,0.0005237626592977992,0.24083496093340007,0.22546386718,0.25476074218,6.999020625290305e-05,-0.0385754394498,-0.04663085937,-0.03076171875,2.0636300544083442e-05,1.0383731641529002,1.00480429117,1.07134901103,0.0005772349587982724,973.6949029213497,973.59860475689,973.76351560955,0.002902840303511477,-0.0018257347523211766,Lift up
-0.9889123535122999,-0.99645996093,-0.982421875,1.4050456906562484e-05,0.2279724121047,0.21276855468,0.24060058593,7.088177582912081e-05,-0.03451171874649999,-0.04797363281,-0.02624511718,3.0486294725075456e-05,1.0154819960938999,1.00652221024,1.02548341603,2.0911402704886473e-05,973.490692684113,973.38370973926,973.59860475689,0.003910606787810266,-0.0021474864566813127,Lift up
-0.9858886718708,-1.00378417968,-0.97253417968,5.82235027938516e-05,0.23115356444940002,0.20092773437,0.25500488281,0.00019004937826453474,-0.0482336425748,-0.07434082031,-0.03283691406,0.00011128748757763897,1.0139301734016999,1.00223604189,1.02688717577,3.686483476432308e-05,973.2703365669789,973.16066633511,973.38370973926,0.004077329671516046,-0.0021778322068618282,Lift up
-0.9826562499954999,-1.0,-0.97253417968,6.532237986934528e-05,0.2442932128858,0.18298339843,0.26867675781,0.000583140348855721,-0.0661657714808,-0.08190917968,-0.04040527343,0.00011555397601866543,1.0150886658555,1.00684794021,1.02410975064,2.1985680643604375e-05,973.0549175362403,972.94766804609,973.17510184651,0.0044696024554944265,-0.002294887530618177,Lift up
-0.9750854492154,-0.98303222656,-0.9677734375,1.6776449755823008e-05,0.25933227538790005,0.24853515625,0.27404785156,4.601008212631025e-05,-0.0678369140585,-0.07580566406,-0.05969238281,1.945762923274e-05,1.0112922901947998,1.00388924699,1.01916316757,1.6196715728490156e-05,972.838256478105,972.73455459992,972.94766804609,0.0037783809198026104,-0.002110497962131943,Lift up
-0.964107666011,-0.99609375,-0.91955566406,0.0005886420622773961,0.2422863769492,0.19946289062,0.30541992187,0.0004176150352668596,-0.1035217285107,-0.19604492187,-0.05737304687,0.002076267706899868,1.0008201968474,0.9614744547,1.02567487137,0.0003370318505291934,972.7354765951715,972.49653948323,973.2233814378,0.033929559144225206,0.0004458135121510596,Lift up
-0.9502868652304,-0.98022460937,-0.92053222656,0.0003704682669939824,0.24391479491919996,0.2236328125,0.27648925781,0.00019763617051605492,-0.08039184569960002,-0.1591796875,-0.05297851562,0.0009099947247717671,0.9850094587241999,0.96499089806,1.01133612537,0.000224329959881987,972.3713190068364,972.17540261128,972.49653948323,0.005225184832589257,0.0013763178433568019,Lift up
-0.9808410644500001,-0.9892578125,-0.96850585937,1.8841803384671453e-05,0.24000366210569996,0.22424316406,0.25231933593,4.325698571773057e-05,-0.047147216793200004,-0.06079101562,-0.0126953125,0.0001366451096460003,1.0109632874675998,0.99988458384,1.02028988058,2.4039835372495365e-05,972.4148093334493,972.3953942998,972.43022175501,0.00013933635734095852,-0.0003799348086840222,Lift up
-0.9738000488252,-1.02648925781,-0.93872070312,0.000501470329496757,0.2610449218717,0.16809082031,0.37414550781,0.0034645767163240648,0.053363037106999994,-0.01989746093,0.13293457031,0.0031276800939420216,1.0128416379718999,0.96760030173,1.04970115683,0.0004577841546833366,972.4350530793998,972.33723960432,972.66925461822,0.009326417227618148,-0.0012474996920913257,Lift up
-0.9664465331986,-0.98168945312,-0.94250488281,8.42326984840495e-05,0.2926904296831999,0.24426269531,0.35400390625,0.0008258717469664656,0.0623205566369,0.01733398437,0.12561035156,0.0007639697270233021,1.0124787181058998,0.99799732003,1.03375429188,0.00011577753026770136,972.3902146357609,972.358133217,972.40372797655,7.521036127217151e-05,0.00023051759633167717,Lift up
-0.9600646972619998,-1.00952148437,-0.92846679687,0.0004208046905277083,0.30761474609020006,0.17956542968,0.36083984375,0.0021442307306145606,0.0918652343708,0.04553222656,0.14794921875,0.000991731075365188,1.0140048265937,0.99799732003,1.04219595892,0.00010675424565943109,972.4097346061244,972.39426762723,972.4160735169,2.482430688317849e-05,0.00011844426929646428,Lift up
-0.9980432128858999,-1.17236328125,-0.86108398437,0.00534836886354845,0.26595581054390005,0.12536621093,0.41040039062,0.004457765545202929,0.02338867187329999,-0.08361816406,0.12426757812,0.0020170259955474717,1.0358255933706,0.90757726618,1.24222375708,0.006202067517139689,972.3967093702406,972.37491778241,972.41666914644,0.00019259300556535681,-0.00015152313519362925,Lift up
-1.0265893554654,-1.21142578125,-0.81091308593,0.012934103271106648,0.2824963378873,0.14697265625,0.42834472656,0.00792724775991289,0.09790405273099997,-0.01599121093,0.23608398437,0.005152337013463442,1.0745184219184,0.8351345484,1.25697463425,0.014584647813287126,972.3862354932376,972.33767195786,972.46975547088,0.0009633844002366921,-0.00048101363184262555,Lift up
-0.9976721191364999,-1.1904296875,-0.84130859375,0.005465093361944087,0.32040527343360004,0.16967773437,0.55358886718,0.006984024673831272,0.0231945800777,-0.15161132812,0.20007324218,0.007552341828775079,1.0544422169202998,0.85825056727,1.23160496281,0.006565900538058868,972.4063420836886,972.37706122815,972.43977256064,0.0002084573306552294,-0.0001356356106647672,Null
-0.9844079589807998,-1.02966308593,-0.9365234375,0.00048691300875475,0.26484619140160004,0.21264648437,0.31823730468,0.0009183169554760795,0.041556396483399996,-0.16687011718,0.15661621093,0.006961355682826536,1.0239943855463998,0.98115498817,1.07798222964,0.0006544313660784805,972.4031769258587,972.38716843223,972.44675010596,0.00020664294287092084,6.717172829549468e-05,Null
-0.9733203124969998,-0.98034667968,-0.96569824218,1.720597045346532e-05,0.29084716796519994,0.25817871093,0.31896972656,0.00024081805135936724,0.030488281247,0.00415039062,0.04296875,5.47390754716797e-05,1.0164429827186001,1.0061231545,1.02570302654,2.7615628670269782e-05,972.409548452554,972.40712161259,972.41312356888,2.3397699802322767e-06,2.285324860895292e-05,Null
-0.9966394042927998,-1.13134765625,-0.921875,0.002494481011742514,0.30308593749599994,0.17883300781,0.47277832031,0.004741132042570755,0.09429809569950003,-0.00842285156,0.29968261718,0.011311049863228367,1.0527062605758999,0.93909944947,1.19830746772,0.004256609882890719,972.4115297972319,972.4016153857,972.42993130314,4.730701889324565e-05,9.444486450982875e-05,Null
-1.0614440917932,-1.25427246093,-0.77380371093,0.021356673967607383,0.3153112792934001,0.09057617187,0.67810058593,0.026596576714371285,0.02920410156309999,-0.11096191406,0.21398925781,0.009808295639562642,1.1219076904822,0.78074624986,1.34766490214,0.025701724542013804,972.392915720648,972.3411905378,972.44858024956,0.0008477582208577233,0.00020827891333683528,Null
-1.1357299804646999,-1.33581542968,-0.884765625,0.014047975341298074,0.3314782714809999,0.021484375,0.61535644531,0.027118091467253174,0.0710363769503,-0.05236816406,0.21752929687,0.00417932183282946,1.1966656949353,0.89500491332,1.40798166996,0.0178684334985467,972.4065984307817,972.35960122744,972.47271325118,0.0009166530795722262,0.00015913611074073542,Null
-1.0425329589796999,-1.42028808593,-0.79370117187,0.02588907704641848,0.2811303710903,0.09143066406,0.46044921875,0.011547070554875947,0.0174609374985,-0.15478515625,0.16540527343,0.006384257089772928,1.0874312891192999,0.80692386041,1.45780642447,0.02736316417850392,972.4127359620336,972.36665866938,972.54471273031,0.001914622571069234,0.0005587138771873494,Null
-0.9598034667927,-1.34997558593,-0.68823242187,0.02604781235566246,0.21494873046510002,-0.04064941406,0.57299804687,0.02698824291862237,0.2853625488238,0.0751953125,0.51745605468,0.010307751729896281,1.0403205199338,0.7071677229,1.48009710755,0.02959699051444681,972.7646606590395,972.41240751752,973.1798787335,0.06329095955649348,-0.004276944136481236,Stairs down
-0.9665734863238999,-1.19567871093,-0.74365234375,0.017872036723957624,0.19286621093349995,0.04516601562,0.34936523437,0.006866084180704922,0.27659790038660004,0.14416503906,0.51745605468,0.006223712272884894,1.0299905490915,0.79075339409,1.27906141371,0.01791895142955251,972.4962131848597,972.34550735707,972.67226207401,0.008808476618897143,-0.0012243124271636631,Stairs down
-0.9674865722619999,-1.23645019531,-0.646484375,0.027804474148744516,0.27380981444990005,0.05480957031,0.47399902343,0.01021362114861831,0.1723498535127,-0.06689453125,0.36584472656,0.01509924816775175,1.0312627611106,0.69115388434,1.32585418334,0.03009074907169951,972.5178193792283,972.03755059185,973.1252633125,0.09992701183712133,0.007986300879234328,Stairs down
-1.0177941894509999,-1.4482421875,-0.697265625,0.0462516554844438,0.31947021484070004,0.15625,0.57775878906,0.010960414403659356,0.08844604491959998,-0.11120605468,0.31213378906,0.013241246906558559,1.0791231688579002,0.72321313587,1.48940627561,0.05154636683581749,972.6278699641163,972.41127410012,972.84382390614,0.015502136486618573,0.003684457997355156,Stairs down
-1.0389221191356,-1.37805175781,-0.77307128906,0.028814299653088557,0.27884643554309996,0.10998535156,0.43957519531,0.00862536487423037,0.05677246093439999,-0.06945800781,0.14050292968,0.002367766120063883,1.0826013948085005,0.79096284855,1.42436847454,0.028001204916451063,972.7620770867593,972.70338526253,972.815577873,0.0009272653911090761,0.000564776655845123,Stairs down
-1.0833972167927999,-1.42431640625,-0.70275878906,0.04894536573906402,0.27997070312079997,0.08642578125,0.55725097656,0.013300298584695808,0.05449584960740001,-0.21032714843,0.21948242187,0.015676853106570632,1.1320138408041998,0.7325139204,1.46150851692,0.05130391724251673,972.8215706141098,972.76051977668,972.95396587547,0.002987477242399883,0.0009262275526224371,Stairs down
-1.0535632324183999,-1.25451660156,-0.82092285156,0.017036919429685913,0.2971728515583,0.10131835937,0.49865722656,0.015133527288491431,0.0434362792944,-0.03466796875,0.17419433593,0.0027418494989697264,1.1024524554161999,0.83155462555,1.29493956747,0.01955116723847492,972.8416925075767,972.77610634669,972.88871901972,0.0008424688845103386,0.0007047732083915451,Stairs down
-1.0765063476521,-1.30090332031,-0.80847167968,0.02119154298553963,0.33379150390179985,0.08984375,0.70764160156,0.03126901604299868,0.1000927734341,-0.03466796875,0.19055175781,0.004251796765583302,1.1453657572618001,0.81456967075,1.39225389684,0.024832083067926773,972.8494681875663,972.82505157048,972.88999859318,0.0003685039537629621,-0.0001557286162770377,Stairs down
-1.0766064453102002,-1.27587890625,-0.82666015625,0.015520136861994277,0.30166137694840006,0.09826660156,0.51379394531,0.013040947581402625,0.0157836914053,-0.09973144531,0.10791015625,0.003854786957909397,1.1239756524847997,0.8328417381,1.33361606903,0.01929352994795042,972.8575016515966,972.81850972753,972.89241279332,0.0005688611707576283,-0.00023218076412819552,Stairs down
-1.0881469726537,-1.302734375,-0.86950683593,0.016222267891641252,0.34737060546499987,0.12915039062,0.57214355468,0.01724470932664873,0.05502441405990001,-0.05151367187,0.16223144531,0.0029427000126274086,1.1523685250317997,0.88435551315,1.3678289489,0.017172843950091478,972.8524995771003,972.81850972753,972.88680690794,0.000486340195092704,9.161814193029764e-05,Stairs down
-1.0123535156216001,-1.25354003906,-0.70178222656,0.02152202586908777,0.31032836913690004,0.14660644531,0.44763183593,0.009243677449652734,0.0321044921859,-0.10070800781,0.19299316406,0.0057635951520853684,1.0655509049637002,0.74424445561,1.29504993432,0.023191222339938793,972.851648404087,972.82146890979,972.89161683588,0.0005181159507593721,0.00016083372589757147,Stairs down
-1.022166748044,-1.40869140625,-0.6513671875,0.05152966370939317,0.23642456054299996,0.0458984375,0.49182128906,0.011742385437783219,0.06503540039030002,-0.14245605468,0.212890625,0.010195739899434647,1.0609716816434,0.67409644934,1.44794101889,0.05254872610501795,972.8867861927627,972.85492046195,973.0852396644,0.0019226816881157576,0.00021893089675949383,Stairs down
-1.0110681152303997,-1.24377441406,-0.85437011718,0.015394689475554772,0.3024523925742001,0.103515625,0.49401855468,0.01017079922119337,0.019377441406,-0.11975097656,0.13098144531,0.00617935098134823,1.0632038880644998,0.86302838138,1.29391566404,0.015289446798631303,972.9369651135593,972.90565095506,972.96527923701,0.0003045730532264714,4.326253504445014e-05,Stairs down
-0.9854064941373,-1.29699707031,-0.70556640625,0.02904863230369821,0.2903088378865,0.18310546875,0.40637207031,0.003423205317492365,0.04058105468659999,-0.17980957031,0.19384765625,0.012208553371203515,1.0357060502265,0.73175043482,1.32372762073,0.028786430958002405,972.9876119493555,972.93131384329,973.09185645673,0.0016910353139381184,0.0008281273835410734,Stairs down
-1.0263476562467,-1.32885742187,-0.71130371093,0.036336789444172936,0.3156652832008,0.09704589843,0.60498046875,0.01832699121103464,0.0648840332014,-0.23156738281,0.21850585937,0.01579850835402471,1.0902558349537999,0.73027602116,1.3591360178,0.03873121286070579,973.0648857442652,972.97989236811,973.18479181463,0.002020874519168692,0.0007301378014968584,Stairs down
-1.0209887695264,-1.50268554687,-0.66381835937,0.06075226352081386,0.2990747070268,0.0927734375,0.52575683593,0.01467613799985077,0.045637207029799995,-0.14990234375,0.17602539062,0.011629888210060455,1.075576881082,0.68237780738,1.53020440136,0.06390765885405077,973.1419278712134,973.08319410286,973.2781815865,0.002619782778505281,0.0008037290836175476,Stairs down
-1.1282507324175,-1.72192382812,-0.69616699218,0.05395896105298306,0.2737963867143,0.03332519531,0.54968261718,0.01657043918808042,0.0138928222637,-0.18920898437,0.13745117187,0.011301637205397232,1.1701837673926996,0.70590564004,1.75096900968,0.05544313349417885,973.2041019296694,973.11822444122,973.38841228675,0.0026972513736599458,0.0004362223696012473,Stairs down
-0.9894140624952001,-1.38928222656,-0.63391113281,0.043602071049361216,0.27422851561960004,0.09533691406,0.53356933593,0.010765533398997074,0.029677734374,-0.23669433593,0.26123046875,0.01649195295325381,1.0375305288796002,0.65561761359,1.50091899098,0.04919555276116005,973.2643627442244,973.19248081797,973.39978031195,0.0037376821135557785,0.0006208118422485865,Stairs down
-1.1193896484332,-1.55627441406,-0.80200195312,0.03764214115939907,0.34552246093399985,0.00805664062,0.74365234375,0.04410058334617878,0.0846826171852,-0.03393554687,0.3681640625,0.00978039312819922,1.1950575550291997,0.80276002866,1.60160497748,0.042460028593060854,973.2962945727617,973.24964498338,973.36883877373,0.0013165256664603685,0.0008680699737811934,Stairs down
-1.1070996093712,-1.41613769531,-0.71984863281,0.04465397425365409,0.34402343749639996,0.02197265625,0.7490234375,0.04131896240535236,0.05487792968679999,-0.22045898437,0.25793457031,0.014315533011137251,1.180496145046,0.72042082346,1.55044082056,0.053280499281041414,973.3058076060983,973.24906632269,973.40817378361,0.002118578674339408,-0.00031490665676634275,Stairs down
-1.0811962890588,-1.37377929687,-0.669921875,0.03379367298545257,0.3425781249967999,0.05102539062,0.62048339843,0.030028657479956,0.12480957030800001,-0.04357910156,0.31298828125,0.009582897725672666,1.1583703086240003,0.80140142848,1.43951623434,0.03310305055296154,973.3733463708069,973.28612621838,973.85509605627,0.01912767743419912,0.0025144776003420623,Stairs down
-0.6016638183557999,-0.83898925781,-0.45471191406,0.009805347899847855,0.7553430175745001,0.54296875,0.95166015625,0.013196059506114471,0.017845458984399997,-0.41845703125,0.66345214843,0.11631022278867749,1.0318072790518,0.93770453288,1.21610617589,0.006215290622673122,973.667904962638,972.4844508705,976.9989847842,1.6078183078602497,-0.028701926837607115,Stairs down
-0.5936877441367,-1.13586425781,-0.41625976562,0.04279441740016785,0.7221874999957001,0.31457519531,0.95166015625,0.023333575002907822,0.06857055664030001,-0.45593261718,0.60217285156,0.1114050700348436,1.0237879280909,0.84962930765,1.2518218473,0.009809322650216072,973.0592780953408,972.73065585803,973.86639547021,0.09207012031961832,-0.005233948514033104,Stairs down
-0.9720263671835998,-1.25134277343,-0.75732421875,0.018153635756879234,0.26594726562160004,0.13684082031,0.4375,0.006668094288294317,0.026909179687599993,-0.14440917968,0.19897460937,0.007632268895407532,1.0159083590443998,0.7735713785,1.27739266351,0.01651209648540232,973.2387151184572,972.92907057793,973.35240254584,0.01328346531179121,0.0035945479537042462,Stairs down
-1.0434082031212,-1.35803222656,-0.70056152343,0.030892942890975356,0.29119628905920003,0.15307617187,0.49645996093,0.00921609560652289,0.04245605468679999,-0.09790039062,0.20642089843,0.007208243764429047,1.090449198394,0.73192883999,1.44848516564,0.0333970998407675,973.3878099128377,973.34345406136,973.48882247953,0.00180449680972129,0.0004082749000415135,Stairs down
-0.991577148434,-1.29113769531,-0.72644042968,0.028605064960687772,0.27367187499599993,0.14892578125,0.44555664062,0.005838848027258072,0.0242333984368,-0.19396972656,0.14916992187,0.009838244071648164,1.0369636471527999,0.76095669113,1.32597614242,0.027529822253809663,973.4050930878682,973.3677795835,973.46803083691,0.0006130201098281345,0.0005752883742409406,Stairs down
-0.9999511718715999,-1.33850097656,-0.71008300781,0.036694045018926036,0.2844140624956,0.18981933593,0.45617675781,0.005234499073998691,0.0239013671856,-0.1494140625,0.16394042968,0.00940107215486955,1.0460629947788,0.7439119984,1.41633916907,0.038316678245411157,973.4847115877259,973.42673938961,973.5835155959,0.0016403484423814002,0.0009311479354461374,Stairs down
-0.9813232421843999,-1.33020019531,-0.65222167968,0.04324784302962882,0.26015136718320003,0.13977050781,0.46520996093,0.00744125298782268,0.0217626953124,-0.19665527343,0.15698242187,0.01503402117433397,1.026212872604,0.6778158639,1.34867689211,0.043536040936601905,973.5514739477344,973.48387799736,973.64497224495,0.0016515853769120978,0.0011031245958260058,Stairs down
-1.0303124999948,-1.40026855468,-0.66638183593,0.0465985677700364,0.2289404296836,0.10510253906,0.43078613281,0.008106123461722932,0.0560009765608,-0.16149902343,0.22888183593,0.016075936566842967,1.0660826388812,0.68719288078,1.46584758695,0.051145763602203895,973.6572380838828,973.57326118674,973.99096550566,0.012007924523656734,0.00015033962222907953,Stairs down
-1.0405419921832,-1.51623535156,-0.62292480468,0.05067462429850335,0.27816894530999997,0.11474609375,0.48791503906,0.00873644698738856,0.07114746093520001,-0.07678222656,0.17321777343,0.00646453515396542,1.085785924838,0.66574301412,1.59388778595,0.051973067300042065,973.6942389139158,973.60289613628,973.82140789636,0.0016130106181391688,0.000871762412309468,Stairs down
-1.0997363281199999,-1.50048828125,-0.61633300781,0.04694393244656798,0.27979003905919997,0.10034179687,0.46154785156,0.01177837689718904,0.0210693359372,-0.25024414062,0.25573730468,0.019261121749103896,1.1473231210035997,0.64603580228,1.55064346316,0.04949457278254786,973.752376196813,973.6890564085,973.96615305847,0.0035025330239261076,0.00019057690761784183,Stairs down
-1.1160839843728,-1.365234375,-0.77734375,0.02987082857059692,0.3055371093708,0.0546875,0.59387207031,0.029963170013050357,0.05554687499639999,-0.06018066406,0.11022949218,0.002662863971805738,1.1719833769756003,0.78629074879,1.40298188123,0.030715857291840135,973.7936155270545,973.73664501733,973.8523596011,0.000862574761875045,-0.0002537195430625763,Stairs down
-1.1049707031208,-1.27075195312,-0.90588378906,0.01180377863875041,0.3358056640604001,0.10327148437,0.57043457031,0.019679968910906807,0.04894042968319999,0.00610351562,0.10485839843,0.0008891663406319188,1.16364461905,0.91305327331,1.33174063009,0.0142436866024041,973.8037015564552,973.76866717754,973.83731048475,0.000566763043659221,5.223050544473642e-05,Stairs down
-1.0745361328084,-1.28698730468,-0.84704589843,0.014317136822211316,0.3210791015596,0.09228515625,0.63122558593,0.02659592907818411,0.05784667968279999,0.00134277343,0.12487792968,0.0010476320921837111,1.1328026699335998,0.85685722684,1.35862382325,0.019560737902388083,973.7974708113293,973.76258588371,973.82406462961,0.0004202165501464531,1.5316833226014332e-05,Stairs down
-1.0662792968712,-1.265625,-0.88537597656,0.015592207186166409,0.28803710937160004,0.08435058593,0.5458984375,0.015753370343089153,0.0539453124968,0.00512695312,0.11767578125,0.0006536713995518523,1.1123102653692,0.89182443329,1.3283990465,0.017446608127138455,973.7942668054684,973.76483127652,973.83839059085,0.0003971637144081384,0.00020536461187870583,Stairs down
-1.0269091796836,-1.37707519531,-0.56896972656,0.045416220366222046,0.33886230468399986,0.05969238281,0.52856445312,0.014534874973882393,0.0210107421856,-0.17944335937,0.12817382812,0.008181510934238091,1.0896338378012,0.58627490183,1.41140110408,0.050465611990891966,973.8159182483874,973.73689060816,973.90094637132,0.0017165626446853865,0.0007494851635062208,Stairs down
-1.0006298828088,-1.40905761718,-0.6923828125,0.03262305221122858,0.31121582030920003,0.15222167968,0.46923828125,0.006112762316361808,0.030302734374,-0.14367675781,0.19641113281,0.0060368538862498105,1.0538923803604003,0.7728537659,1.48412985032,0.03299949216173068,973.9064437166805,973.85015588724,973.94010338482,0.0007479748089319361,0.0006987946949363072,Stairs down
-0.9920800781216,-1.32641601562,-0.71008300781,0.02958115702915508,0.26561035155960006,0.12268066406,0.38562011718,0.003959009526881623,0.0162158203112,-0.23193359375,0.18347167968,0.015365865109404341,1.0362604691552002,0.7384835627,1.38504089073,0.02991505505505334,973.9849227274872,973.92455359848,974.04772489951,0.0015080065913376974,0.0007670191751436734,Stairs down
-1.0166894531212,-1.3017578125,-0.80346679687,0.014609148430309922,0.2999658203076001,0.18786621093,0.46362304687,0.004477826898684099,-0.0288574218744,-0.30102539062,0.15673828125,0.014804913539311902,1.0689263324044003,0.85593336369,1.34334328506,0.015574903141270958,974.0845207316507,973.99118413823,974.17657939927,0.0021731515552334876,0.0011229504531095951,Stairs down
-1.0249121093719997,-1.44396972656,-0.71618652343,0.03530277738710823,0.2974853515584,0.0966796875,0.48291015625,0.008030459134387012,-0.0007177734367999999,-0.18090820312,0.23706054687,0.010040898900251663,1.0742031106444,0.74843499694,1.50035466034,0.03825348755049332,974.1809589631282,974.12084415573,974.23861422292,0.0014967825488131341,0.001158113910156123,Stairs down
-1.0315832519492998,-1.34033203125,-0.61193847656,0.028706228147539745,0.2707080078091,0.03576660156,0.49475097656,0.0127237642412687,0.0261474609359,-0.10485839843,0.11206054687,0.003945789553462376,1.0727141277432,0.62265827652,1.38348605567,0.03266358098020358,974.259938143534,974.21708086505,974.32872138159,0.0010087061543904451,0.0004899644362930874,Stairs down
-1.0520117187459999,-1.38073730468,-0.7158203125,0.019673335335121212,0.32164550780920004,0.10791015625,0.63171386718,0.015646475637660154,0.0240722656252,-0.21350097656,0.16333007812,0.00968378842442325,1.1103124453923998,0.76995919038,1.46591862216,0.02275131318694731,974.3097926125646,974.23791454083,974.3890274956,0.0013691896331650287,0.0005460720983665874,Stairs down
-1.0531591796828002,-1.26782226562,-0.83471679687,0.016629270977422388,0.2804687499972,0.1171875,0.51574707031,0.01184530330402486,0.06249023437120001,-0.0078125,0.13989257812,0.0012168028378351378,1.0964997653004003,0.85535775078,1.33583158218,0.01898458071889957,974.3417650964816,974.31977868381,974.37384972495,0.000264399700037162,9.188319886622931e-05,Null
-1.0101171874964001,-1.17236328125,-0.88293457031,0.005694401770053605,0.3121582031224,0.130859375,0.55773925781,0.009774554859505485,0.05541503906159999,-0.22924804687,0.33581542968,0.019390135677382334,1.0713097898460004,0.93180148417,1.221497898,0.007733473100492675,974.3537386783896,974.32917611134,974.41600289224,0.000445929369836292,-8.869944374987475e-05,Null
-0.9817138671827998,-1.04895019531,-0.96203613281,0.0005848997771036389,0.29723632812199996,0.25891113281,0.34802246093,0.0005392708922596028,0.0120019531244,-0.08728027343,0.06860351562,0.0018839242720806184,1.0269263634688002,1.00375357628,1.0972379247,0.0006624814748539163,974.3593459741626,974.34017953967,974.36886884198,2.834049928095988e-05,3.0394234210153378e-05,Null
-0.9699609374959999,-0.9833984375,-0.95617675781,6.754099722152678e-05,0.29480468749640004,0.26696777343,0.32958984375,0.00029461008131491774,0.05265624999599998,0.0244140625,0.08081054687,0.0003562104581323587,1.0154269767056,0.99383924821,1.03566532213,0.00012720969944690999,974.3618584895386,974.35529088955,974.36632941843,9.589794835698252e-06,2.3539805795780337e-05,Null
-0.975092773434,-0.98107910156,-0.966796875,1.3856550657418912e-05,0.2702197265592,0.25659179687,0.28942871093,6.988419425808673e-05,0.0705712890588,0.05810546875,0.08264160156,4.238952289985894e-05,1.0143550831372001,1.00436575648,1.01916085746,1.3695496909791589e-05,974.3653404161938,974.36038342635,974.37146387374,8.282537743989655e-06,2.6274522412853028e-05,Null
-0.975805664058,-1.07409667968,-0.90783691406,0.0011281280806002653,0.28752441406039997,0.07470703125,0.43994140625,0.005892666903362197,0.09808105468320001,0.05944824218,0.16271972656,0.0008771565466569908,1.0253061957624,0.95678356624,1.09320280147,0.0010636898228772959,974.3672470251082,974.35542776565,974.38823964369,5.798224776789226e-05,1.7503408327775595e-05,Null
-1.0369580078092,-1.19921875,-0.90356445312,0.007792682695948278,0.2696142578088,0.0556640625,0.4365234375,0.012104003983169983,0.03169433593800001,-0.05847167968,0.19104003906,0.005873030941441534,1.0790494450600001,0.908831045,1.27547467409,0.010245055010916979,974.356136279951,974.33048978863,974.38915475332,0.0003114972523076606,-5.450796603829233e-05,Null
-1.0056542968707998,-1.13037109375,-0.87878417968,0.0035080990647916046,0.2995996093716001,0.14111328125,0.435546875,0.006714486979507647,0.10629394531079997,-0.15295410156,0.36181640625,0.022004768438376503,1.0673342072292002,0.90992263939,1.17662046271,0.00515319654070147,974.3570932198921,974.33206039406,974.37958423349,0.00014842233435596956,6.969916646666089e-05,Null
-1.0303417968713,-1.345703125,-0.75842285156,0.01771531752874517,0.2731823730429,0.07897949218,0.46643066406,0.009596639237937224,0.05365722656140001,-0.22204589843,0.27685546875,0.022473826648080814,1.0814329049903997,0.76613937343,1.37869170791,0.01909365945945251,974.3609881845998,974.33874760345,974.3992548033,0.00015796324878487145,-0.0001455472480730931,Null
-1.0415380859335999,-1.32019042968,-0.75122070312,0.025223100449879306,0.3286621093704,0.13989257812,0.48962402343,0.011401009077991964,0.053291015621199984,0.00207519531,0.14819335937,0.0017735308829130974,1.0991005698563998,0.81835387599,1.3721430206,0.02591101038821496,974.353445560294,974.30924532654,974.38376440361,0.0004461202819419129,-1.0450837552166263e-05,Null
-1.0963085937456,-1.52001953125,-0.87829589843,0.031152719777218254,0.21085449218319993,-0.43371582031,0.45935058593,0.038787671676331625,0.10168457031080001,-0.76879882812,0.521484375,0.07960724469304545,1.1675514976259997,0.88511018591,1.75773161384,0.0419874359716889,974.3685574237494,974.33593573083,974.40134417912,0.0002915605848938043,0.00019416534225059478,Lift up
-0.9715722656208,-1.00024414062,-0.93798828125,0.00023362169360664848,0.27099121093399997,0.1552734375,0.32788085937,0.0017456508404577907,0.06177246093400001,-0.083984375,0.123046875,0.002529495267996652,1.0126108363448,0.97145730545,1.05331204052,0.0002906211094030682,974.3704584765321,974.33462192692,974.49639305421,0.000879181853786874,-0.0002799271523590844,Lift up
-0.9676269531212001,-0.98657226562,-0.94934082031,9.517115776617241e-05,0.3098095703084001,0.24853515625,0.33190917968,0.00042811605660435795,0.08598632812040002,0.05053710937,0.11657714843,0.00048638112617533725,1.0200906646236,0.99968049041,1.0347379451,9.307726349461071e-05,974.3819164861738,974.37346261618,974.3905075208,2.2813625259102787e-05,-6.460998385982055e-05,Lift up
-0.9646826171831999,-0.9765625,-0.95300292968,3.4346387850507996e-05,0.30282714843360004,0.28112792968,0.33959960937,0.00021417728579480448,0.09152832030880001,0.07385253906,0.10656738281,6.447175536329112e-05,1.0153732081776001,1.00199919031,1.02234854531,2.159670148873942e-05,974.3804674542782,974.37028691167,974.38946243391,2.8180108102727302e-05,0.00012631630865440712,Lift up
-0.9663769531212,-0.97570800781,-0.951171875,2.5789039298706792e-05,0.29449707030800004,0.28540039062,0.30505371093,2.2227258390161378e-05,0.09041015624639998,0.0771484375,0.10766601562,5.69770793787494e-05,1.014330255746,1.00041672844,1.02319348316,2.526466302197112e-05,974.3847291424576,974.37842222799,974.40415564549,3.0392767438625008e-05,9.353632686691057e-05,Lift up
-0.9657910156211998,-0.97485351562,-0.96032714843,1.2286118786914064e-05,0.2921630859336,0.27783203125,0.30078125,3.0768038044744324e-05,0.09961425780880002,0.0849609375,0.11267089843,5.617825670421201e-05,1.0139609450095997,1.00850212543,1.02593309857,1.6158665851717035e-05,974.3824169900489,974.3787740674,974.38852689195,4.29324433207996e-06,2.5747999265966938e-05,Lift up
-0.9671728515588001,-0.98559570312,-0.94921875,6.103265163847852e-05,0.2855322265588,0.25390625,0.30981445312,0.00017378176101212213,0.0942773437464,0.07580566406,0.11401367187,8.392179853366477e-05,1.0129609641820003,0.99149484561,1.0255981308,6.649356847369844e-05,974.3863369520436,974.38021984665,974.39113329066,7.391533479596632e-06,-3.883808800257258e-05,Lift up
-0.9649511718707998,-0.97973632812,-0.94616699218,5.759894246031998e-05,0.29562011718360004,0.27648925781,0.30822753906,6.565604547417733e-05,0.1030322265584,0.08459472656,0.11950683593,7.635352587455711e-05,1.0145361824724,0.99314259943,1.02291115482,5.2125628686445344e-05,974.3914717346144,974.38001083016,974.39898619902,2.4603927740953472e-05,8.480110779479957e-05,Lift up
-0.9658398437456001,-0.97216796875,-0.95483398437,3.4074205346754655e-05,0.29639648437120003,0.28381347656,0.31433105468,9.291210557410138e-05,0.10501953124640004,0.09375,0.12145996093,6.632819320407494e-05,1.0158239722664,1.00862089899,1.02514165126,1.9818571673659642e-05,974.4026752462576,974.39792277063,974.40803631855,7.187444594642106e-06,5.860340193323817e-05,Lift up
-0.9999658203092,-1.03051757812,-0.96142578125,0.0005545863238158135,0.2964892578088001,0.28601074218,0.31286621093,4.9925428440559906e-05,0.10128417968439997,0.091796875,0.11181640625,2.6320592314978883e-05,1.047923567476,1.00964995262,1.07825265349,0.0005825531166950492,974.4047146492107,974.38516524895,974.41541049473,7.027235590826951e-05,-0.0001301902527175252,Lift up
-0.9814355468712,-1.01928710937,-0.95764160156,0.0005027668885598408,0.2996826171844,0.29174804687,0.30993652343,2.062320708937519e-05,0.09937011718359998,0.08959960937,0.11267089843,4.4840128728213796e-05,1.0310051912243998,1.00657443212,1.06716590764,0.000495623719173666,974.2903927668082,974.19089494626,974.38312196751,0.0034573766886485282,-0.0020186619590947517,Lift up
-0.9653662109331997,-0.9765625,-0.95788574218,2.3511347154184416e-05,0.30074707030840003,0.29138183593,0.30908203125,1.764480514464765e-05,0.0977343749956,0.08813476562,0.10546875,1.851582767889244e-05,1.0158588036739995,1.00850224364,1.02703484362,2.2925078852764204e-05,974.0770443543145,973.97621948057,974.18401020243,0.004104416581496715,-0.002199315307825041,Lift up
-0.9641259765595999,-0.97045898437,-0.95532226562,1.6923287903805634e-05,0.29867675780840003,0.29370117187,0.30346679687,8.98558683769235e-06,0.09672851562160002,0.08813476562,0.10656738281,3.2173262715302446e-05,1.0139745241284002,1.0043886636,1.01983046251,1.6440201452090424e-05,973.8649146015108,973.75595474556,973.96754744251,0.0039133407483335925,-0.0021491151450102417,Lift up
-0.9659716796839999,-0.97338867187,-0.9599609375,1.8180355875586922e-05,0.2982568359344,0.29309082031,0.306640625,9.135429307970327e-06,0.09806152343360001,0.08642578125,0.107421875,3.387436722526733e-05,1.0157362865847999,1.00956628185,1.0219532053,1.5013006917813585e-05,973.6484462506103,973.53936997873,973.75595474556,0.004092598818338043,-0.002198317418458351,Lift up
-0.965551757808,-0.97106933593,-0.96044921875,6.937017340864703e-06,0.30410644530840003,0.294921875,0.31176757812,1.9359203300974588e-05,0.09439941405959999,0.08410644531,0.103515625,3.610683209789003e-05,1.0167281779616,1.0120090451,1.02313109899,7.846083082123339e-06,973.4323212119291,973.32317350794,973.53936997873,0.004029513786832293,-0.0021793995277164797,Lift up
-0.9639697265583999,-0.97204589843,-0.95654296875,1.0764574754711176e-05,0.29893066405799995,0.29370117187,0.30407714843,8.546559501430316e-06,0.100605468746,0.08666992187,0.10949707031,2.8743503066884664e-05,1.0142757045004,1.00683121629,1.02279069714,1.1116496007499698e-05,973.2097000029056,973.1041746079,973.3119189275,0.004263296399632236,-0.0022430308653175112,Lift up
-0.9300927734343998,-0.953125,-0.90783691406,0.00012325725169534506,0.2829296874963999,0.265625,0.32189941406,0.00012605151745093417,0.08300292968400003,0.02941894531,0.09716796875,0.0002244271172454427,0.9758812559180001,0.95536154849,1.0023420817,0.00013740855870389434,973.0052121459366,972.94531115251,973.08974012975,0.0021057712659013016,-0.001559792053935566,Lift up
-0.7363427734336,-0.93188476562,-0.54565429687,0.01888768639253979,0.6176464843707999,0.34924316406,0.76184082031,0.014597118840098592,0.25081542968320003,0.04711914062,0.4580078125,0.014767073284513528,1.0166861606632003,0.97090486084,1.07348787586,0.0007220705679351394,973.0262142953716,972.84379985668,973.29128179943,0.01767680801279883,-0.00027594683605412936,Lift up
-0.8182128906207999,-1.03771972656,-0.56884765625,0.03468553225188169,0.5381640624968,0.3291015625,0.77526855468,0.0247932430226392,0.18288085937120008,0.09509277343,0.35119628906,0.008728470079830485,1.0273959768004002,0.89672770968,1.14698779151,0.004566647499076294,972.8117849546143,972.51485756176,973.12235397757,0.025593465955470525,-0.00133574692595058,Lift up
-0.9636230468716,-1.01647949218,-0.81591796875,0.0013589088362233668,0.32106445312160004,0.24462890625,0.3896484375,0.002060563492143714,0.05858398437119999,0.00109863281,0.12939453125,0.0008256446472659198,1.0189674465816003,0.9115292912,1.0560921393,0.0010018700571194211,972.890438387346,972.86348909006,972.97142908149,0.0009775609821838312,0.0002699049201997622,Lift up
-0.9736523437471999,-1.01635742187,-0.9296875,0.0004545759432159358,0.2973046874952,0.25964355468,0.33923339843,0.00036840501458185274,0.029897460936000007,-0.04772949218,0.1298828125,0.0025929344059885677,1.0198951284516,0.9773988728,1.06504661043,0.0004833384172591067,972.8856948211749,972.87884041928,972.89534215237,2.251406612620504e-05,-4.170892914724062e-06,Lift up
-1.0099511718712,-1.14099121093,-0.82385253906,0.007065079573368814,0.2614208984328,0.11535644531,0.34704589843,0.003856279729618186,0.04438964843640001,-0.06787109375,0.2001953125,0.004261250302951686,1.0475664444764,0.84737728292,1.18416099678,0.008028307582125601,972.884421910545,972.84330315364,972.91903559961,0.00032840833776586874,-0.0001524030629724878,Lift up
-1.0589697265588,-1.29956054687,-0.79223632812,0.019628818492839505,0.3369189453096,0.15209960937,0.52734375,0.016927262123368942,0.067246093748,-0.06677246093,0.19067382812,0.006451826287919518,1.1230025601623999,0.81570671994,1.35462309652,0.021107446772298023,972.8880160782963,972.84591248599,972.92301635298,0.000636829500549278,-7.704976437722135e-05,Null
-1.0418359374967998,-1.23583984375,-0.77172851562,0.015415310281761166,0.31494140624600003,0.01110839843,0.5009765625,0.014160339278597693,0.06982910156040001,-0.04455566406,0.17236328125,0.00411102082979107,1.0979025561604,0.79087211343,1.29538216328,0.017622317488133747,972.8916539295546,972.85997515748,972.92861399054,0.0006241577087422632,0.00014893939444144623,Null
-0.9927636718719998,-1.13696289062,-0.92724609375,0.0024604177474674624,0.22686035155920004,-0.36389160156,0.39477539062,0.024857524765309606,0.05002929687399999,-0.07958984375,0.14050292968,0.003883690159317132,1.0335833144204,0.95734043187,1.15608774799,0.002165056908315774,972.8946844362779,972.86374226179,972.9570689912,0.00047811353122955796,-9.527465120492082e-05,Null
-0.9692578124964,-0.98608398437,-0.93383789062,0.0001356236621648556,0.28317382812040004,0.2666015625,0.31176757812,0.00015291454815456715,0.04241210937159999,-0.00366210937,0.05944824218,0.000225308061790339,1.0108714292880001,0.98584650197,1.02591906055,9.55275714096993e-05,972.90250209057,972.89815909843,972.90986746215,9.36021397203494e-06,5.0320600972577684e-05,Null
-1.0082141113247,-1.27661132812,-0.7998046875,0.017922999971647362,0.28437744140279997,0.10302734375,0.40405273437,0.005293882489151112,0.101845703122,-0.19140625,0.31323242187,0.010451265922407438,1.0598161770575998,0.81796276888,1.35923895758,0.01917852697276789,972.901508473669,972.87213695179,972.95027763428,0.00027549909656154333,0.00015486545095276205,Null
-1.0895886230434,-1.31909179687,-0.94189453125,0.012716373438476529,0.2885107421837001,0.11730957031,0.58996582031,0.01781327148873041,0.0638732910121,-0.19140625,0.17956542968,0.0075627729068600165,1.1377518214387998,0.98184340265,1.38814200849,0.017933231911529776,972.8868239063709,972.8611917812,972.95027763428,0.0005370794048414761,-0.00010338825459144345,Null
-0.26279785156240004,-1.31567382812,0.56945800781,0.5110945119712823,0.6163427734347998,0.271484375,1.01574707031,0.04482310097614386,-0.28962890624919996,-1.05859375,0.41577148437,0.21463189206719374,1.1062704340016,0.65030741803,1.5972316756,0.0725613790943741,973.0199368702259,972.80325890183,973.66724692288,0.046279275935152894,0.0007083385020353481,Null
0.4611474609335998,0.26818847656,0.74011230468,0.016903375760527393,0.2901123046832,0.06298828125,0.56274414062,0.01985106564514132,-0.8281005859335998,-1.07727050781,-0.67810058593,0.01317025314704186,1.007702150282,0.77343825137,1.22441158492,0.01670154990060017,972.7692378965133,972.49736373502,973.12162766391,0.026472779316123726,0.0009105804623455537,Null
0.23604492187319992,-1.76306152343,0.80590820312,0.5324130837562179,0.46840820312039994,0.16125488281,1.17700195312,0.058378126886352175,-0.521713867184,-0.80151367187,0.32434082031,0.08237898147402786,1.0453226145296,0.55692888793,2.06491967796,0.1222706372293642,972.7888553540473,972.5350468364,973.4892570064,0.07564325174218176,-0.002074320798698909,Stairs down
-1.0348046874963999,-1.32897949218,-0.65454101562,0.038554314796218396,0.3781591796835999,0.16040039062,0.82189941406,0.035404701811083995,0.04446777343479999,-0.25183105468,0.27221679687,0.01739026021394469,1.1192270859976,0.67506062668,1.43788302543,0.05411010438526695,972.9427863554785,972.80270911168,973.0840300437,0.005748686716609827,0.0021207751910703376,Stairs down
-1.0986474609332,-1.37219238281,-0.87280273437,0.019045497817331423,0.23505371093360006,0.0830078125,0.50354003906,0.011742330657017012,0.05311523437399999,-0.2216796875,0.20678710937,0.01869334875870328,1.1376686689840003,0.89884876292,1.38750625063,0.019994023875268538,973.0505261544548,972.97613863452,973.26448606833,0.005115377386251062,0.00036101751590183274,Stairs down
-1.1005163574185,-1.48168945312,-0.71166992187,0.04449667179640127,0.3398803710901999,0.11022949218,0.61779785156,0.019695708697367295,-0.0151428222656,-0.28881835937,0.20715332031,0.0221298741488014,1.168483378494,0.74641870741,1.51709171978,0.048908997007037436,973.1400916249711,973.02333588003,973.27681468613,0.004589890081942587,0.001139262554776656,Stairs down
-1.0563208007776002,-1.56262207031,-0.66235351562,0.06700014308870704,0.3011328124952,0.11315917968,0.51599121093,0.011262137865723105,0.045352783201599994,-0.18493652343,0.21557617187,0.009493911041207689,1.1073975409736,0.69423740294,1.65967097651,0.06979878402385133,973.2191880424335,973.12300804903,973.3459056546,0.0036282986440202905,0.0011835181886483434,Stairs down
-0.18441040039120002,-1.39343261718,0.62634277343,0.5465630972240934,-0.1411450195315,-1.14587402343,0.72827148437,0.45517493396252956,-0.0653466796864,-0.35864257812,0.19360351562,0.022558519598492664,0.9987228846966001,0.47052066479,1.53227196863,0.07556109668512051,973.3979797371559,973.21691233061,973.72412185874,0.022929428004258522,0.004408577598170728,Stairs down
0.41006469726209993,0.162109375,0.57360839843,0.013571398539535104,-0.8603784179633999,-1.26245117187,-0.60070800781,0.02539998039445811,-0.16785034179640002,-0.67370605468,0.41918945312,0.09455700096716617,1.0223145915975997,0.76010525327,1.42990940748,0.023882613324641918,973.1161081123034,972.59560903119,973.76178074992,0.06918370565558185,-0.004848448411676613,Stairs down
-0.5282345006948514,-1.81958007812,0.6220703125,0.7672282524471075,-0.013025264929306911,-0.76867675781,0.82495117187,0.33137046293341593,-0.152589099240198,-0.58410644531,0.10339355468,0.04441980257361143,1.1360395705599011,0.23899094626,1.94107468842,0.14503637926211918,973.2390448035898,973.11907422798,973.34073269535,0.004271757386786421,0.001485488616088534,Stairs down
-1.1492956912845453,-1.35510253906,-0.90612792968,0.010798049050628325,0.3681689946303031,0.08825683593,0.67932128906,0.03340097286276897,0.056212762386262626,0.01330566406,0.115234375,0.0008623008136760918,1.2195368110663636,0.91333772992,1.42691004761,0.017097697584320178,973.339129053666,973.30152992919,973.39403393175,0.0008355208242623391,2.0963651777938047e-05,Stairs down
-1.0621618652304998,-1.20031738281,-0.91455078125,0.007851537386289551,0.3243029785123999,0.11437988281,0.59216308593,0.021036497479412625,0.04986328124610001,-0.00073242187,0.1181640625,0.0008944117902232956,1.1193773844834,0.92223881961,1.30360442451,0.01347411367781992,973.3498783144969,973.31990119215,973.40292677138,0.0006480093926268584,0.0002824946059791662,Stairs down
-1.0223254394492,-1.33361816406,-0.66809082031,0.024415616102542344,0.27134277343400004,0.06665039062,0.44201660156,0.014554596525322223,0.033033447265199994,-0.20263671875,0.15234375,0.008696519935182527,1.0676820118358998,0.68590688354,1.35960387901,0.02738646496748959,973.3595409914286,973.30603061911,973.48687263296,0.0021926507043788794,0.0009175231695384762,Stairs down
-1.0857531738241,-1.45520019531,-0.7783203125,0.03528911281573458,0.3244934081993999,0.0830078125,0.61987304687,0.02049197884944554,0.0573876953107,-0.07531738281,0.15771484375,0.003788711229681906,1.1437771995006,0.79276615053,1.5186203234,0.03858292603639673,973.3982768800261,973.3313645253,973.49638109823,0.0022742460927850216,0.0006768729218190401,Stairs down
-0.33740600585839997,-1.23083496093,0.31909179687,0.21441434442609958,0.7569677734335998,0.15454101562,1.38525390625,0.1263287704646092,-0.0564501953127,-0.32653808593,0.15380859375,0.023172910260852907,0.9997129722265999,0.50512016811,1.50804214013,0.05139442971529506,973.5268451554136,973.10994929326,974.16887293339,0.07118648389052859,-0.0006269135300151041,Stairs down
-0.7578332519484999,-1.11010742187,-0.37634277343,0.0417175774786514,0.6088342285121999,0.2529296875,0.88305664062,0.01728932341375622,0.1623242187478,-0.32653808593,0.50854492187,0.04332488507803991,1.0267950530350998,0.76424697529,1.30570859982,0.01852514619919407,973.4812021392095,973.21938648941,973.86938693905,0.03438925547469114,0.002297049499172388,Stairs down
-0.759093017575,-1.41369628906,-0.4228515625,0.05788098034708425,0.6264660644493999,0.30200195312,0.90466308593,0.02617425253161796,0.09590698242280002,-0.162109375,0.4970703125,0.044368837833854105,1.0322606993766998,0.58253571071,1.5178860336,0.03985633034759559,973.6000195225348,973.37121609209,973.87291155474,0.01529272128458313,-0.0006938758626273887,Stairs down
-1.0072485351519,-1.35131835937,-0.70068359375,0.038573970933499416,0.3536315917930999,0.20275878906,0.54296875,0.005218655585981902,0.0038586425779,-0.32641601562,0.24011230468,0.017876920342462903,1.0782343569858,0.74567519425,1.41711875302,0.03846800627318257,973.6638888637573,973.57374696866,973.73434689811,0.0019787650166697823,0.0012558213771055626,Stairs down
-1.0391357421840002,-1.44738769531,-0.71118164062,0.039703718339648295,0.3008459472624,0.00402832031,0.59387207031,0.02003022500200386,0.0385803222642,-0.15270996093,0.23620605468,0.011148301450995749,1.0940346738834998,0.74860221029,1.56497013821,0.0455165359784447,973.7552672771909,973.69449637905,973.86608946702,0.0024495541591383306,0.0008423831606990528,Stairs down
-1.137979337482277,-1.39770507812,-0.89282226562,0.015497795971811118,0.3271967821747525,0.07373046875,0.63317871093,0.02728958787877823,0.04674688660059406,-0.07702636718,0.16467285156,0.004083950631338571,1.1961267790774257,0.9020529109,1.45492067957,0.02012724812623157,973.7843812235762,973.72973020375,973.84092679568,0.0010896003227796709,0.0004888382859269446,Stairs down
-1.0460644531213998,-1.27856445312,-0.82312011718,0.02195477290598942,0.29927734374599996,0.08935546875,0.58264160156,0.02132065635738458,0.049238281247,-0.04907226562,0.10729980468,0.0019613123660199233,1.0978869775438003,0.83807746209,1.32515022128,0.025930036017847997,973.7932822881764,973.74928391798,973.83960357873,0.0007752288657750039,0.000278318419889385,Stairs down
-1.0695628156538384,-1.26440429687,-0.76574707031,0.023778439483434215,0.30664309106343435,0.12719726562,0.525390625,0.012939331476595532,0.022280914615050506,-0.07385253906,0.12902832031,0.0031980684650955256,1.1181882761652524,0.77768309772,1.31988577746,0.027940900571694464,973.7963473259227,973.7671902985,973.83517915636,0.00037043263971408126,-1.177295012108603e-06,Stairs down
-1.0307080078086,-1.24157714843,-0.84558105468,0.016856948630905852,0.3069226074187,0.15698242187,0.5185546875,0.011404950117775694,0.028664550778800004,-0.01672363281,0.09582519531,0.0009217943747404088,1.080073827977,0.86171662614,1.31858954221,0.0199136596831348,973.799541688438,973.77249079812,973.83396689001,0.0003958534461770224,-0.0001044704422580613,Stairs down
-0.9801281738246002,-1.35217285156,-0.74951171875,0.03136371521501042,0.3286352539033999,0.18469238281,0.5224609375,0.006274864643573516,-0.0159423828121,-0.10803222656,0.04541015625,0.0027394999154084017,1.0398816642312,0.79016914758,1.38633139129,0.027805000172310343,973.8227113009343,973.78790868603,973.86590743278,0.0004969216457269179,0.0005325463634988856,Stairs down
-0.8241638183556,-1.15026855468,-0.45361328125,0.04395434753260689,0.5315039062461999,0.20458984375,0.93310546875,0.059758236817894016,0.0039062499991999997,-0.16882324218,0.31018066406,0.013758493191688613,1.0312957026570002,0.79590476565,1.25144222029,0.014629496040663052,973.9460030090419,973.84748847529,974.3393051814,0.01137814757753926,0.002790524683217572,Stairs down
-0.8539648437463999,-1.22766113281,-0.45971679687,0.055536917627995806,0.46847900390109987,0.22509765625,0.85583496093,0.03582405489464624,0.03159545898329999,-0.11303710937,0.2822265625,0.0070526082268104855,1.0130827960971,0.79517446717,1.25589209316,0.021029795630281043,973.8965505708189,973.7564654157,973.98729874905,0.004689550448923745,0.001151369430236042,Stairs down
-0.9616601562468,-1.22900390625,-0.72424316406,0.02351235009215925,0.2820581054643,0.19653320312,0.39013671875,0.0030594994263562127,-0.0142407226578,-0.16650390625,0.12414550781,0.00665904362338875,1.0072801321308,0.75993424728,1.27103222661,0.023065806844954753,974.0345375770806,973.97277790116,974.09723109896,0.0014829046353662704,0.0011360570251824843,Stairs down
-0.9814538574182001,-1.31982421875,-0.71716308593,0.025576509687678085,0.25959228515229993,0.18493652343,0.34765625,0.0018421818451779585,0.011887207030199999,-0.15771484375,0.12414550781,0.006376517173861735,1.0201551484277,0.74870485496,1.33719964108,0.023759458786392018,974.1214520125868,974.06897684872,974.18277547914,0.001066658299682071,0.0007441797599507978,Stairs down
-1.0020921159458416,-1.43981933593,-0.71716308593,0.03375119061174964,0.28346539487623756,0.19458007812,0.47290039062,0.004820600565148822,0.020015905398316828,-0.11389160156,0.12072753906,0.005586322383228823,1.0470222562271287,0.74870485496,1.47380807085,0.032731246629874124,974.2112352968857,974.16027463954,974.27605961247,0.0006577595149668293,0.0005695567901167531,Stairs down
-0.9569921874963998,-1.22863769531,-0.74645996093,0.019589739881509898,0.249506835933,0.18591308593,0.306640625,0.0007313417425306456,-0.04076660156119999,-0.16198730468,0.0634765625,0.004701314525952394,0.993589140325,0.80208691476,1.2549897857,0.017477188208574728,974.2696550702781,974.21913643412,974.34183076674,0.0011534469584792582,0.0007556575556732323,Stairs down
-0.9885913085903999,-1.30383300781,-0.74731445312,0.027995560632915396,0.26221191405919997,0.17749023437,0.37744140625,0.00271661893290898,-0.0167260742188,-0.15759277343,0.10961914062,0.005845912471481762,1.0272460844808,0.80332152155,1.33570898343,0.027581432210394587,974.3233526695311,974.26352156048,974.39686518973,0.0010419373914213434,0.0008522368008777273,Stairs down
-0.6221985479761615,-1.22534179687,-0.31762695312,0.06398234178052381,0.6717258029475758,0.23913574218,0.89904785156,0.0418779818241336,0.2710429490181819,0.03747558593,0.53247070312,0.0199404820213274,1.0116241561952526,0.82191062748,1.26490705636,0.013089744322951926,974.4400071919034,974.27740802115,974.71073354965,0.012425467145306866,-8.062689268250685e-05,Stairs down
-0.8771862792931,-1.20397949218,-0.3544921875,0.06537661049508178,0.4950354003857998,0.17663574218,1.03796386718,0.06578988109396686,0.0753015136687,-0.01281738281,0.24731445312,0.005057608435440165,1.0656054395166998,0.78790736863,1.32192421341,0.019730343913863357,974.288279511417,974.1085148949,974.38169779837,0.004275071411051527,0.0018305934200990432,Stairs down
-1.0052575683555,-1.21252441406,-0.84106445312,0.011105574819325068,0.3169665527307,0.17175292968,0.47192382812,0.007591642242191105,0.0108081054665,-0.03698730468,0.09582519531,0.0009242294471399299,1.0569550961597998,0.9008014015,1.28988848723,0.013533885026608149,974.3778487300359,974.34980088963,974.42917702907,0.000399965132512685,-0.0002127238853810454,Stairs down
-1.014393310543,-1.20141601562,-0.86376953125,0.008968613995058406,0.3079406738235,0.16479492187,0.45434570312,0.005797922724158063,0.00015625000030000002,-0.0595703125,0.08312988281,0.0009971845268861136,1.0623395892353,0.90694317123,1.28471061261,0.010971669354599756,974.3695177271175,974.33915445324,974.39947530568,0.00034716737991424997,-1.9493009598015638e-05,Stairs down
-0.9744628906209999,-1.22546386718,-0.76708984375,0.015804896450854124,0.28955200195010006,0.17724609375,0.41015625,0.003469426973626057,-0.0182861328117,-0.10864257812,0.08312988281,0.004064882042032703,1.0204534906134999,0.79148803544,1.26399795711,0.015690057162950424,974.390720953072,974.35484720968,974.43931415013,0.0007472862632703099,0.0008597095416227105,Stairs down
-1.0369458007767,-1.43469238281,-0.71813964843,0.03868057397305736,0.2829956054649,0.13781738281,0.41381835937,0.004149608389268452,-0.0202246093747,-0.17175292968,0.14697265625,0.00771457103711066,1.0802803124888998,0.73921534064,1.47753927933,0.03917767030436941,974.4557212158303,974.39917259197,974.52045096881,0.0015312461208928623,0.0006540039878002632,Stairs down
-0.9788879394488,-1.43981933593,-0.65014648437,0.04164014391662176,0.2638916015587,0.08081054687,0.44409179687,0.009415951040014178,0.0473071289042,-0.15063476562,0.19458007812,0.009916697914384157,1.0230705596565999,0.66441399864,1.50702590387,0.04423033810501097,974.5302329933551,974.45511157686,974.59227069084,0.001844204980482081,0.0011488486418476484,Stairs down
-1.029608698170792,-1.40576171875,-0.67114257812,0.05100771590355351,0.2637238455259406,0.11975097656,0.38977050781,0.004644420250181375,0.05584656365930693,-0.18176269531,0.17907714843,0.013834105021286312,1.073556300210792,0.70138168383,1.43004020655,0.04952868864399927,974.6124958255613,974.54357416382,974.75718454171,0.0026668581565712753,-0.0002926039841363203,Stairs down
-1.0138061523392,-1.40905761718,-0.65563964843,0.048271855471091925,0.24564208984019997,0.07629394531,0.63928222656,0.014598989275861876,0.0272851562488,-0.19482421875,0.1962890625,0.01834752236867366,1.0585526124303997,0.69740326108,1.43982359985,0.0492525057943865,974.7178654566867,974.64851303239,974.90638404428,0.004681566031457573,0.00039281038454612785,Stairs down
-1.0251367187464,-1.52905273437,-0.72473144531,0.04003345595466775,0.2842797851534001,0.09460449218,0.47009277343,0.010337481408438006,0.0302490234352,-0.09851074218,0.12268066406,0.005298820408538696,1.0724533989078002,0.74433464864,1.57321864559,0.037971776919894513,974.7758183953233,974.71516875105,974.9873095841,0.0028761058458816567,0.0006801870409604541,Stairs down
-0.9911181640583999,-1.44897460937,-0.63171386718,0.05512910332377933,0.3038598632780001,-0.00146484375,0.59594726562,0.027239234332708476,0.06841064452859999,-0.15234375,0.40441894531,0.0183470460437041,1.0592571380005997,0.63737887699,1.4805239111,0.05758443776008852,974.951294738087,974.80422989531,975.52330897093,0.047768152174161256,0.005458811715529495,Stairs down
-0.965840041031313,-1.28186035156,-0.7109375,0.02534972608893346,0.2535696318617171,0.12951660156,0.49987792968,0.009613835413479016,0.2696816800786869,0.07690429687,0.46899414062,0.010676537493200775,1.0426141876774746,0.78316744107,1.32469318971,0.028293285948023453,974.9471621413088,974.49563434499,975.52330897093,0.1261792281981516,-0.01074769915263986,Stairs down
-0.9875573730435999,-1.1484375,-0.7861328125,0.011964019577746286,0.31672973632480006,0.15905761718,0.44262695312,0.0056816665738076335,0.07494018554349999,0.03259277343,0.14416503906,0.0006004150754249324,1.0421273802629,0.85763989329,1.23184701537,0.013371197832539088,974.8562629635945,974.67273072454,974.95350173739,0.008034707629917277,0.0027650263398586723,Null
-0.9960681152307999,-1.16271972656,-0.85559082031,0.004566818564500369,0.2963464355431001,0.16479492187,0.44909667968,0.00521728157242886,0.07845336913819999,-0.07275390625,0.27270507812,0.005986365313018244,1.0464491401904001,0.8876574249,1.25867407179,0.006752312080204484,974.9682996388145,974.91577929414,974.99718069678,0.0005463299652468374,0.0004843428111648883,Null
-0.97661865234,-1.01184082031,-0.90600585937,0.0005576753315320223,0.2962585449185,0.21154785156,0.369140625,0.002099167329834022,0.037432861324299994,-0.00805664062,0.0673828125,0.00036032253292504095,1.0221612211318,0.93041067286,1.06830416855,0.001139159796692286,974.9769385631133,974.95497323977,974.98790225228,9.504372379085023e-05,0.00016547522042486794,Null
-0.9722692871055998,-0.98498535156,-0.9580078125,3.0208132183056184e-05,0.28873291015349994,0.26904296875,0.30017089843,6.200433378815313e-05,0.052769775387,0.02868652343,0.07275390625,0.00014519971276641492,1.0157065326571002,0.99548279968,1.02513882406,3.453214638012702e-05,974.9814313680718,974.97748483732,974.98734439101,6.310067929915395e-06,-4.8091939728019525e-05,Null
-0.9676977539016002,-1.00158691406,-0.94421386718,0.00014989989575244745,0.3101892089803,0.283203125,0.39721679687,0.00132534577835659,0.0840917968706,0.05297851562,0.15771484375,0.0007861796292292731,1.0205402213168,0.99756102111,1.08365650201,0.0004688750528438828,974.9774211166606,974.95689289223,974.98590576966,2.8735346600760688e-05,6.714986741455701e-06,Null
-0.9824762627599999,-1.18920898437,-0.68249511718,0.015802645824980144,0.39127886176960375,0.18542480468,0.95776367187,0.049651893849131434,-0.05194635674465346,-0.50219726562,0.16748046875,0.0407124148373577,1.093824538430594,0.91065660729,1.60156252326,0.030018062747312016,974.963932491018,974.92063736147,975.05295718119,0.0010927693159499615,0.0006235902527582267,Null
-0.2926831054668,-1.16540527343,0.10144042968,0.09458362189647404,0.2923559570282,0.01000976562,1.20556640625,0.13763242628254008,-0.7470971679662,-1.11376953125,-0.01721191406,0.0699659021750077,0.9948580663827998,0.68432570371,1.48163058908,0.03909812406058269,974.8991003077359,974.22103343674,975.38163422897,0.14489614363615733,-0.009371598829713564,Null
-0.5922558593715999,-0.71704101562,-0.46337890625,0.005981042866623296,0.7730737304658,0.46008300781,1.17504882812,0.021955563859445602,-0.2848681640588,-0.57214355468,-0.01721191406,0.029281712396952986,1.0402868809252004,0.94430047237,1.26323236548,0.004049704946706461,974.9240151499081,974.67110668614,975.43825067089,0.033707108162776264,-0.0029505047755866674,Null
-0.9406494140583999,-1.6435546875,-0.20153808593,0.15128787719874226,0.43739746093419996,0.06701660156,0.72314453125,0.02906566879968975,-0.16712890624960003,-0.84497070312,0.14379882812,0.107690859705395,1.14112918723,0.53053730955,1.68878771957,0.08793744444691537,974.8371507475002,974.59791382901,975.7294512694,0.04044208216952481,-0.0011576540333140908,Null
-1.2095434570283998,-1.38391113281,-0.89624023437,0.013849514957655821,0.3426440429637999,0.08752441406,0.63757324218,0.02509920308664685,0.040612792968,-0.14953613281,0.17626953125,0.00903354223881404,1.2687558721986,0.90820757136,1.46960697638,0.02001079597257783,974.9280309331994,974.88233096942,975.02161452521,0.001220470037581813,0.0001722802014794387,Null
0.4505886501719192,-1.06286621093,0.96398925781,0.35774233740967504,0.36417643228979807,-0.55700683593,1.1826171875,0.2189604542670879,-0.20382782906828284,-0.40100097656,0.17309570312,0.01795937914314468,0.971998840589798,0.76362414588,1.26517465608,0.02128916761677033,974.9747140532769,974.72522932719,975.151219288,0.017194342078595902,-0.002231565077981164,Null
0.4087866210918001,-1.27697753906,1.03662109375,0.31870709452165413,0.20839355468840004,-0.46948242187,0.73559570312,0.20780583484815787,-0.5215966796836,-0.86376953125,0.01293945312,0.034887509418065045,1.0088682030279,0.77029974077,1.36746972032,0.020776621006095192,974.8108342694804,974.56659279985,974.96552602455,0.009580224636641651,-0.000986919518839097,Null
-1.0811474609346001,-1.27697753906,-0.82043457031,0.017954699053884995,0.3437109374960998,0.1005859375,0.5908203125,0.018838237295218354,0.0409899902339,-0.21667480468,0.21716308593,0.01371890074446014,1.1479830517100997,0.90120749334,1.36746972032,0.021049345300452604,974.9306961418732,974.88682279054,974.97115686385,0.0002798277993246844,0.00024093313155492543,Lift up
-0.6504565429667001,-1.26989746093,0.81750488281,0.4403837592344605,0.41902465819990004,-0.23022460937,1.02551269531,0.11914405057294575,0.02311401367190001,-0.5361328125,0.60681152343,0.10777132088685097,1.0891412893300003,0.48447246493,1.4696768109,0.0743505326851036,974.9991644471166,974.92470236443,975.1908880229,0.005746343085074055,0.0020621766770120933,Lift up
0.8667065429649,0.81750488281,0.89453125,0.00024077501563246438,-0.1706249999971,-0.26037597656,-0.1435546875,0.0002891966549970293,-0.47834350585479996,-0.57214355468,-0.42443847656,0.0016385013090834113,1.0055286750532,0.98806625409,1.04009741677,0.00016616538815457727,974.9143632118456,974.80995043602,975.06076143338,0.0030950381702258387,-0.0002527989128108285,Lift up
0.8018738397236632,0.755859375,0.85510253906,0.0009888206053342932,0.26460130143782185,-0.32568359375,0.70788574218,0.1584596302995194,-0.3285842744391088,-0.53601074218,-0.15270996093,0.014755283340238248,0.9955388030783167,0.9014215174,1.05735416963,0.0023882109828044385,974.918326809456,974.75675819532,975.13126084959,0.013383348545312384,-0.001862287615528329,Lift up
-0.1540893554684,-0.8359375,0.87487792968,0.5299393415711593,0.18624511718660003,-0.20617675781,0.5224609375,0.08573340107433064,-0.6200415039023999,-1.02294921875,-0.45690917968,0.0283628370363267,1.029356218077,0.67173219981,1.34168437835,0.021114383735134898,974.9024006274466,974.62515616547,975.12753943952,0.02022631926804197,0.0023956900960160786,Lift up
-0.8483325195282001,-1.1640625,-0.66271972656,0.02236309690323145,0.35611328124519986,0.09411621093,0.56860351562,0.014562319649680681,-0.286540527341,-0.61120605468,0.17053222656,0.07196127742688072,1.0106171033378,0.71325836103,1.26642508589,0.015193034404173647,974.8463646764982,974.53457784022,975.44110700985,0.03533713402280066,-0.0018762974830160424,Lift up
-0.9753784179646001,-0.98608398437,-0.96411132812,3.085428416161308e-05,0.273112792966,0.25756835937,0.29577636718,0.0001047395756650113,-0.053498535152199996,-0.06433105468,-0.04553222656,1.697396388202471e-05,1.01437083021,1.00833762334,1.0226215138,1.8798122254791077e-05,974.9361294546414,974.85118135191,974.97540734586,0.0009087559171275068,0.0007069036625352064,Lift up
-0.9902734374959999,-1.025390625,-0.97106933593,0.0003047479764570214,0.24391357421499996,0.19165039062,0.26733398437,0.0004380857162082341,-0.05807617187139998,-0.07739257812,-0.04284667968,7.860381195268997e-05,1.0218167435069998,1.00330056944,1.05392103955,0.00021406086343786504,974.9532345481991,974.94314752172,974.9626428832,2.296428991767332e-05,-0.00011661897934757083,Lift up
-1.0131201171836,-1.021484375,-1.00500488281,1.7115106490397627e-05,0.24911621093320005,0.23364257812,0.26672363281,5.575115030370057e-05,-0.06433349609039998,-0.08361816406,-0.05249023437,0.0001007104702836543,1.0453564888893998,1.03909807216,1.05152977726,1.1827481600327957e-05,974.9205270324522,974.87031089384,974.95238314844,0.0006711878876767664,-0.0008659965587045295,Lift up
-0.9942084418374747,-1.01782226562,-0.98071289062,0.00012848000813927543,0.25419477982555555,0.24475097656,0.26989746093,5.79711291645516e-05,-0.07126070272787878,-0.08361816406,-0.0537109375,4.882192984973524e-05,1.0286986346429292,1.01291644515,1.05354844502,0.00015710221041808105,974.7671767884108,974.6561726311,974.87031089384,0.004119112995864495,-0.0022211147252498816,Lift up
-0.9806262206995998,-0.98876953125,-0.97387695312,1.5680324853958074e-05,0.24914306640230002,0.2412109375,0.25659179687,1.5087795978636093e-05,-0.06423217772989999,-0.07788085937,-0.05297851562,5.051695186668249e-05,1.0138485070651,1.00568222411,1.02206039963,1.767864595568384e-05,974.530993701997,974.40258121998,974.6561726311,0.005003490239357911,-0.002430053815169023,Lift up
-0.9807495117146,-0.99401855468,-0.96875,2.5916430687707775e-05,0.2436840820282,0.22802734375,0.25439453125,3.694663745808438e-05,-0.0753344726538,-0.08740234375,-0.0625,6.07675434400969e-05,1.0134242280771004,1.00379125329,1.02734080557,2.0755137303884117e-05,974.3050487641744,974.16755517394,974.40258121998,0.003286508690089888,-0.0018720224623635087,Lift up
-0.982459342121683,-0.98974609375,-0.97534179687,1.4082116656515289e-05,0.23836343594900983,0.23022460937,0.24487304687,1.0241898565492718e-05,-0.07391659575792078,-0.08801269531,-0.05871582031,6.810980857670378e-05,1.0137400996161385,1.00714276852,1.02116300002,1.2750574830403388e-05,974.0249731074254,973.91750543175,974.16755517394,0.004960922673483533,-0.002313467038383972,Lift up
-0.982937011715,-0.98803710937,-0.97863769531,9.701884153889356e-06,0.2366406249958,0.2294921875,0.24365234375,1.5577980965675308e-05,-0.06696289062139998,-0.07958984375,-0.05493164062,4.350727254775934e-05,1.013263108068,1.00833607166,1.02025994023,1.4097185622648912e-05,973.7994252615979,973.67296601522,973.91750543175,0.005112218833725061,-0.002456574484526038,Lift up
-0.9653100585895998,-0.98315429687,-0.93103027343,0.00030387934412511725,0.23416748046480007,0.22436523437,0.24584960937,3.2437118611998276e-05,-0.06976318358900001,-0.08288574218,-0.05883789062,4.2311621430981565e-05,0.99579293791,0.96261380687,1.01490450758,0.00029907729206320085,973.5552504445258,973.44601215716,973.67296601522,0.004994755366809934,-0.0024248991224233886,Lift up
-0.9545776367159999,-0.99621582031,-0.93017578125,0.00043750125348233004,0.23249755858940005,0.21899414062,0.25854492187,0.00013806114895020997,-0.07168212890219999,-0.09704589843,-0.04614257812,0.00015734559960074463,0.9852195123592001,0.95832550349,1.02841641809,0.000484846726641497,973.384756201776,973.35686574818,973.44601215716,0.0006362809724465792,-0.0008099647847990717,Lift up
-0.9789257812468,-0.99548339843,-0.95959472656,5.532681338869701e-05,0.24287841796479995,0.21142578125,0.25952148437,0.00012856999430064056,-0.07871582030839999,-0.09655761718,-0.06665039062,5.5654097069817814e-05,1.011761013077,0.99144365557,1.02710954005,5.919119529140453e-05,973.3530234736545,973.3450986332,973.36181963573,1.8867520260695603e-05,-9.258203420744825e-05,Lift up
-0.9896435546838,-1.025390625,-0.96948242187,0.00024508006647572944,0.2130566406216,0.16906738281,0.32006835937,0.0011872539375672186,-0.018447265624,-0.06811523437,0.033203125,0.0008204920362387966,1.0135005923922003,0.99570830124,1.04499375283,0.00017641015057627644,973.3509806266145,973.34099107489,973.36449677038,4.498409881459643e-05,0.00013220593503433578,Lift up
-0.9956433105439999,-1.111328125,-0.93176269531,0.0019209898768105219,0.22817626952740003,0.12219238281,0.36169433593,0.006277341607774328,0.09826171874589999,0.02893066406,0.21362304687,0.002100253321917117,1.0307312286746002,0.94322927932,1.13331514585,0.0018181886956186951,973.3491063854962,973.32693396401,973.36066048335,5.6843353889320176e-05,-0.0001482016920438938,Lift up
-1.0106842349236365,-1.14855957031,-0.90515136718,0.003938911017016136,0.25647465869262626,0.14306640625,0.44702148437,0.007803184316953899,0.06307952572545455,-0.142578125,0.220703125,0.01289947250114605,1.0540222732787878,0.94895980191,1.22433055398,0.00471826967050773,973.3372746527964,973.30711178241,973.36357359954,0.00025557805186150756,1.9193168509533303e-05,Lift up
-1.0453955078086,-1.22119140625,-0.83227539062,0.012135668619568272,0.2941088867158,0.16040039062,0.48779296875,0.010407821464124847,0.0417480468734,-0.12475585937,0.1259765625,0.002853755396671636,1.09138937632,0.85218441852,1.28615260706,0.015259804738187234,973.340127089661,973.31458415021,973.37559302546,0.00041242493872645073,-1.7690601126385102e-07,Null
-1.0102954101530002,-1.16748046875,-0.86059570312,0.0054704917861671575,0.3294506835908,0.19140625,0.419921875,0.005479435734103032,0.0251367187496,-0.07849121093,0.10974121093,0.0027127596100379814,1.0664631532995998,0.88311374217,1.21842938876,0.006109925490552717,973.3518261171971,973.32270522733,973.37791269851,0.0002643487396012043,-6.519690258460782e-05,Null
-0.9695380182507919,-1.02172851562,-0.93627929687,0.0003460095896756774,0.2936951287863367,0.24047851562,0.33996582031,0.0008134583760216181,0.030700079281980205,-0.03576660156,0.06787109375,0.00041821766604043035,1.0141196875762377,0.9763426724,1.05109804901,0.00032988279426547987,973.353607251516,973.34508842245,973.35984260888,1.3158178298566156e-05,3.493001250479185e-05,Null
-1.13913818359,-1.41662597656,-0.671875,0.04356543385002815,0.3779638671843999,0.05395507812,0.69372558593,0.033260419537300294,0.07437499999800001,-0.11181640625,0.24951171875,0.009820915857604652,1.2141242539323998,0.68789367891,1.54291112285,0.05828962060606256,973.331455289761,973.26953762224,973.40229599656,0.002192801730257876,-0.0008909649826092543,Null
-1.1357763671838002,-1.28405761718,-0.97241210937,0.00821657074812104,0.3271191406208,0.12524414062,0.60900878906,0.020735495957497258,0.0417187499988,-0.10131835937,0.16857910156,0.0064440999121581685,1.1915793281856,1.00006252331,1.38361530384,0.014056820310256088,973.3332593864694,973.26953762224,973.39764918713,0.0013118572674178928,9.454144984038792e-05,Null
-1.0839892578082,-1.24438476562,-0.97241210937,0.00615769110546044,0.32797241210479994,0.11877441406,0.52722167968,0.017314553072682627,0.04734497070209999,-0.04541015625,0.16857910156,0.005547413733743111,1.1403501705723,1.00351477385,1.34802705943,0.010426439324539358,973.3380316865185,973.30372940837,973.37591638119,0.0006657942784520872,0.0004596713863299378,Null
-1.0826879882776002,-1.39477539062,-0.70104980468,0.029763247864745677,0.26775634765179995,0.08203125,0.45751953125,0.010624539798066381,0.09310180663920001,-0.07189941406,0.2099609375,0.0068117168498200145,1.1263401168801004,0.74813207833,1.46108151812,0.03096983701135728,973.3150489913284,973.27456917132,973.36396982543,0.0006469813812521639,-0.00019837984280905033,Null
-1.0113793945268,-1.41723632812,-0.7529296875,0.03142695763476877,0.28535156249589994,0.08935546875,0.48889160156,0.010208668732805525,0.0496447753908,-0.076171875,0.29089355468,0.012145732597021352,1.0625379046529002,0.79144158844,1.43344081094,0.031348630474041295,973.2573874937437,973.20103342682,973.31992932788,0.000940276385459473,-0.00041896355644664154,Stairs up
-0.9971472167930999,-1.38195800781,-0.73889160156,0.03705774703874355,0.24155517577799995,0.08605957031,0.34240722656,0.0037500444024964733,0.0727685546844,-0.05285644531,0.18701171875,0.004173725927517255,1.0328039583809001,0.76592500803,1.4196350721,0.03615598303211585,973.1990364361511,973.11270449428,973.26503424436,0.0020124164419086767,-0.0011287283883630586,Stairs up
-0.946933593746,-1.39331054687,-0.68786621093,0.04961424105108593,0.29716186523120003,0.20361328125,0.54736328125,0.00815897107585993,0.09137573241990003,-0.078125,0.24084472656,0.00843780822661569,1.0048647734401002,0.74849117022,1.48785745288,0.04962992609735983,973.0963881620858,973.04491449503,973.13836289459,0.0008136342871614826,-0.0008422515349973435,Stairs up
-0.9468155677838384,-1.50390625,-0.58752441406,0.05146175612199198,0.2963620580772727,0.11694335937,0.56237792968,0.015028668599113088,0.2213899246341414,-0.02526855468,0.43737792968,0.01926790013143906,1.0334587732143437,0.73520096532,1.56101103409,0.05067055459133568,973.2427522458581,972.22006507032,974.12803153362,0.2522761249263384,-0.006692488937425305,Stairs up
-1.0014184570264002,-1.33337402343,-0.77075195312,0.020815035243255734,0.3077026367156,0.21008300781,0.43530273437,0.003686575124932804,0.19567626952740003,0.00061035156,0.46411132812,0.016773215140967742,1.0763483312674,0.84846284171,1.40954188122,0.01832867495340438,972.7727318130143,972.22006507032,973.54007715574,0.08810654173621886,0.00370485193057841,Stairs up
-0.9730309212525742,-1.20568847656,-0.66564941406,0.027727355139468116,0.2856529915654455,0.1201171875,0.45202636718,0.006911945717622995,0.0421928179139604,-0.09558105468,0.21276855468,0.005702408129670597,1.0206589448142571,0.71620241924,1.25382631112,0.02864829012154302,972.8471375030764,972.77412368777,972.97290249148,0.0022596371458739432,-0.000250003102159895,Stairs up
-1.0002856445275998,-1.16638183593,-0.88635253906,0.005776127847743395,0.3095715331988,0.24047851562,0.45190429687,0.0038344325728001485,0.014899902342800002,-0.14245605468,0.16027832031,0.007367190633797123,1.0520149369242,0.94787953726,1.25096911175,0.006768139329655619,972.8742425105828,972.83910490514,972.89978777291,0.0003501750316836933,1.779695997800438e-05,Stairs up
-1.0660412597622,-1.2685546875,-0.88659667968,0.011782383225183055,0.3102221679658,0.18530273437,0.45983886718,0.006236850679539202,0.0388830566392,-0.15307617187,0.15234375,0.007821485085036873,1.1161032395162003,0.91041876318,1.34067422914,0.014231842066963075,972.8627190881339,972.81288516548,972.91008204793,0.0006996024577834177,-0.00043306915052430825,Stairs up
-1.0692492675742002,-1.22399902343,-0.93420410156,0.007012596423868033,0.31045654296380004,0.20678710937,0.47106933593,0.007073810792890619,0.0197448730469,-0.15319824218,0.20886230468,0.012943383832366841,1.1216976568568997,0.98173248492,1.2972428478,0.008708061646608119,972.8716084610361,972.83212883955,972.89909940414,0.000375786528532979,2.7766309393372848e-05,Stairs up
-1.0227600097619,-1.21667480468,-0.84777832031,0.008584074111482824,0.2924450683566,0.21752929687,0.42504882812,0.0035781280244911564,0.0136914062502,-0.13598632812,0.1806640625,0.01071787865403816,1.0700057207483,0.88346168819,1.28652159217,0.00958449265493837,972.8689008105928,972.82878888102,972.9023145518,0.000460476013640394,0.0001727535640120131,Stairs up
-1.0467712402301,-1.2568359375,-0.86682128906,0.01384311504279073,0.26215698241790003,0.1953125,0.39562988281,0.0030757146938278517,0.06627441406120001,-0.06274414062,0.1728515625,0.006280909788394145,1.0856661923535997,0.92257144451,1.28107917042,0.01327805219522194,972.8533141791934,972.80800586837,972.89669155315,0.0007782173243607007,-0.00046184793698050673,Stairs up
-1.0111193847613997,-1.16137695312,-0.77844238281,0.012587432938254338,0.30297851562140005,0.24353027343,0.41223144531,0.002090828587296624,0.027521972656400006,-0.16943359375,0.27685546875,0.014708649455255886,1.0640354127206,0.84637383169,1.22599898593,0.011957103533481261,972.805108442083,972.75299501604,972.8508857837,0.0008897018394323831,-0.0005619659394712032,Stairs up
-1.0059167480429,-1.42834472656,-0.75390625,0.042502674025181514,0.2258605957001999,0.08129882812,0.310546875,0.0047128171557952875,0.0910778808557,-0.04284667968,0.20178222656,0.004931960110280967,1.0395695640965,0.79571749262,1.46183810804,0.04252302146255891,972.7539236071923,972.69924699965,972.821203987,0.0006622547158555799,-0.0006327537633172348,Stairs up
-0.98354886757899,-1.49230957031,-0.74658203125,0.04946769069252188,0.20521005957515148,0.05407714843,0.33374023437,0.00652056131958871,0.09909026791060609,-0.00939941406,0.22277832031,0.004954907463279997,1.0157341366354546,0.78697492146,1.52000237052,0.048399039525263636,972.679906761147,972.59983187249,972.72836609923,0.0007409741857563371,-0.0005396947275408397,Stairs up
-1.0084692382769997,-1.23962402343,-0.82873535156,0.01703917491897045,0.22217773437080002,0.12072753906,0.33422851562,0.0029084916307576224,0.060241699215800006,-0.0146484375,0.16442871093,0.003533750019666203,1.0375067948546002,0.85306400947,1.26342970401,0.01699845006290462,972.5914038527105,972.56049302006,972.61486816764,0.0002568402411716559,-0.00043522944106082136,Stairs up
-1.0156419206338612,-1.21520996093,-0.79931640625,0.013973779389106999,0.27088490098693074,0.13549804687,0.39807128906,0.00538217994542925,0.0721592667069307,-0.06201171875,0.38671875,0.013205371398405668,1.0624165977762379,0.83533856513,1.23192637256,0.013760254534392977,972.5341386838893,972.46735164221,972.57135089154,0.0004685257324652166,-0.0006247473622168363,Stairs up
-1.0324218749968,-1.37780761718,-0.82263183593,0.02355772678339672,0.20973632812210005,0.072265625,0.37768554687,0.0069406684961708445,0.0761425781238,-0.09008789062,0.38671875,0.013088406070998591,1.0670720184115001,0.83308968359,1.38348160197,0.020394129664027014,972.4775943748475,972.44073529061,972.51236554345,0.0004440391074423273,-0.0003758869524617803,Stairs up
-0.9723925781214998,-1.16748046875,-0.74951171875,0.016591997074554922,0.2878283691364,0.16918945312,0.44738769531,0.004050126850963161,0.0276782226564,-0.03759765625,0.14294433593,0.0023840908507599986,1.0179127706019004,0.81351834449,1.21551510453,0.0159678021686661,972.4182530562584,972.36858144028,972.45005442229,0.0005841127274390605,-0.0005326150594517324,Stairs up
-1.0394726562461,-1.19909667968,-0.86633300781,0.008729249997488519,0.2857360839803,0.17114257812,0.47338867187,0.006095785196047634,0.020440673826399997,-0.1572265625,0.13940429687,0.00653357890328946,1.0830059345181997,0.89707087361,1.25667054007,0.010918694617498809,972.4068714332429,972.36199683521,972.49387871964,0.0010536526970936386,-0.00048080972164716787,Stairs up
-1.0499841308559998,-1.24291992187,-0.90759277343,0.007318408036360486,0.30720214843390004,0.15649414062,0.51721191406,0.011903892261901961,0.027961425781200006,-0.13977050781,0.17724609375,0.011110881307402414,1.1035991302855002,0.94702241272,1.30245035784,0.009818672528092475,972.407512131326,972.36217135318,972.43892088484,0.0004401257852644373,-0.0003170587936471522,Stairs up
-1.070163574215,-1.24072265625,-0.95471191406,0.006605050654133303,0.2985974121057,0.13159179687,0.4853515625,0.011418539133806712,-0.0089416503902,-0.20166015625,0.15393066406,0.011992520868556483,1.1207029629507002,0.98011364528,1.30140531307,0.00831440564702059,972.4039329494627,972.36217135318,972.46029456349,0.0006601308876901707,3.9064737351018226e-05,Stairs up
-1.0759155273396999,-1.30749511718,-0.83850097656,0.017419708346970455,0.2799316406222,0.14367675781,0.42663574218,0.006124593994820536,0.029766845701099998,-0.19604492187,0.20825195312,0.01452257006238013,1.1205473819709002,0.8623660488,1.34089039218,0.019092705992504753,972.3871857919141,972.33636914646,972.45570414477,0.0011925981425720672,0.00034779798859383934,Stairs up
-1.0947106933559,-1.2939453125,-0.90405273437,0.012054163896594841,0.25783935546509995,0.14697265625,0.42663574218,0.005018765751659599,0.04928588867130001,-0.16223144531,0.20788574218,0.01184896428560069,1.1330388359111998,0.94693390848,1.34172036231,0.012280207579340313,972.376109804915,972.34199159845,972.43199431195,0.0007018837560485136,-0.0004088936343296448,Stairs up
-1.0019128417935002,-1.30578613281,-0.79614257812,0.021868178957335675,0.27715332030889994,0.13537597656,0.35534667968,0.0036358262312328193,0.046520996093300016,-0.17663574218,0.341796875,0.018650871785358143,1.0518727520036,0.84970749913,1.34726797398,0.02028742462971222,972.3317997823455,972.29229715126,972.37573598786,0.0007942120620752761,-0.0007836296151864874,Stairs up
-1.0417346191368,-1.29663085937,-0.77099609375,0.025768313111495866,0.2297607421838,0.10437011718,0.34790039062,0.0043910886301656545,0.06098144531109998,-0.14001464843,0.21789550781,0.012268101421677119,1.0773659794141002,0.81626869941,1.34111033148,0.023237905618109227,972.2718169951602,972.20883205154,972.32392256647,0.0006992126729708019,-0.0006413878154442653,Stairs up
-1.0275805664025,-1.25146484375,-0.8251953125,0.01425825520573929,0.2733532714812001,0.1630859375,0.43432617187,0.005744467689189626,0.051048583984700004,-0.07189941406,0.18310546875,0.006208968792696313,1.0699580280591998,0.86250706303,1.26778226246,0.014534527645312942,972.2119909244493,972.18145308079,972.2823745804,0.0008517216887635619,-0.0007799900504907672,Stairs up
-1.0449096679649,-1.23852539062,-0.84838867187,0.013767175451435203,0.2616601562466,0.138671875,0.47436523437,0.00829162034133041,0.04372192382499998,-0.07580566406,0.16052246093,0.0032767999817079367,1.0829418282705,0.87587559691,1.32690616667,0.014679893530517915,972.1513489526203,972.12486151654,972.18806320171,0.00035392296458581926,-0.0003067244444173125,Stairs up
-1.0025158691370002,-1.28698730468,-0.80725097656,0.021505649311189652,0.2378356933547,0.09887695312,0.37561035156,0.005284067770183638,0.0778491210912,-0.07653808593,0.19287109375,0.004979233735467191,1.0385405781076,0.85863583594,1.31851054137,0.020756666157128734,972.082323863684,972.04473811993,972.14596543099,0.0006188876927812624,-0.0005984105011791343,Stairs up
-0.9999084472625,-1.21643066406,-0.7802734375,0.014410046729049922,0.2709338378870001,0.111328125,0.41003417968,0.007868471017429098,0.052664794920500003,-0.04821777343,0.22387695312,0.007291997097097098,1.0436998097485999,0.80654592627,1.23252503678,0.016122368550429523,972.0369222780287,972.00796277168,972.06678714301,0.00024290790209568797,-0.0003507302170636229,Stairs up
-0.9883032226527,-1.24035644531,-0.7333984375,0.018807013341763677,0.27116943359060003,0.17004394531,0.34204101562,0.0025417200182170606,0.02164550781289999,-0.06677246093,0.16198730468,0.005210150034249842,1.0300870255585999,0.81548806169,1.28644386533,0.016119862588358302,972.0007067201353,971.94936191142,972.05235780349,0.0006768109510955757,-5.174004542998908e-05,Stairs up
-1.0095800781215,-1.140625,-0.83459472656,0.007665601186051759,0.36973632812140006,0.19091796875,0.56274414062,0.008654379266573415,0.050827636715800005,-0.09545898437,0.16296386718,0.0059386632594436335,1.0821529360279996,0.92055736548,1.25785548569,0.009617591360242681,971.9667872649933,971.93424404901,972.02225589362,0.000490284159382978,0.00016945592591261562,Null
-0.9910937499968,-1.11547851562,-0.87097167968,0.0054220966377283904,0.3203076171843,0.19165039062,0.44873046875,0.005241589088620931,0.025441894531399997,-0.12512207031,0.27258300781,0.015036580290828694,1.0510269312934,0.91045919787,1.19315475607,0.006360337329288778,971.9754948574515,971.93525694193,972.00282035223,0.00018117303088154206,2.1632924230606925e-05,Null
-0.9593945312458999,-1.11804199218,-0.26416015625,0.02380215083691116,0.459318847652,0.15869140625,1.23034667968,0.1137993734958802,-0.031881103515700004,-0.41748046875,0.19287109375,0.03262263658450418,1.1269075293721997,0.93637255585,1.52131832622,0.03134284313956914,971.9850710736922,971.87532348289,972.08990266759,0.0029559234395846222,0.0010767089491981112,Null
0.25669677734120006,-0.26416015625,0.447265625,0.009220334321553149,-0.2680664062474,-0.65588378906,1.12719726562,0.14588093938033628,-0.695920410152,-0.91442871093,-0.20068359375,0.048108268861181684,0.8920926206719999,0.54345079334,1.18919748149,0.027683085055011776,972.1999012602065,971.80966544442,972.99405507079,0.127104786453264,-0.002975482641553463,Null
0.1655212402309,0.05578613281,0.24877929687,0.00248154828496836,-0.9101000976531001,-1.01586914062,-0.52465820312,0.006067057276045659,-0.3443945312454999,-0.6279296875,-0.20812988281,0.011748545121703043,0.9960077104413,0.85525029149,1.12521472179,0.0023736179641871045,971.7679676617266,971.03625691759,972.27682773258,0.08437689658075018,0.00658585313561094,Null
-0.2050671386698001,-0.47839355468,0.12585449218,0.049920755832423634,-0.6973706054637,-0.94372558593,-0.30444335937,0.045084483400950746,-0.5746704101535999,-0.83959960937,-0.21826171875,0.04917233384584147,0.9998008485339999,0.94476872559,1.10699151101,0.001776195611140051,971.9306544126854,971.04398159055,972.42039527371,0.1076421486235023,-0.002095814221976297,Null
0.34715087890259994,-0.14965820312,0.44030761718,0.015093573120750308,-0.2495202636678,-0.52807617187,-0.05358886718,0.016309535640314687,-0.9130151367158998,-0.95007324218,-0.82495117187,0.00034985192495776477,1.0235393157897998,0.99008156464,1.05804218548,0.00017518655452633547,971.7081055409822,971.10224506122,971.87393908608,0.03410201036819632,0.004591907015615525,Null
0.5068786621069999,0.40979003906,0.6416015625,0.004534195581757382,-0.33511230468399994,-0.64685058593,-0.11804199218,0.016816462266013837,-0.8073742675738999,-0.89672851562,-0.677734375,0.0036052801076498237,1.0203693590372,0.90544559689,1.1411617858,0.0046789823301499455,971.8391262788145,971.72359072319,972.01968796277,0.007284385620923772,0.002344298801876989,Null
0.4966479492149999,0.27233886718,0.65808105468,0.014351721189266479,-0.4180310058568,-0.61022949218,-0.26098632812,0.010218441334383523,-0.758618164058,-0.86169433593,-0.63427734375,0.005311526433258388,1.0124042711801,0.9516367628,1.10749433842,0.0015465554767511778,972.0607438579805,971.77869376764,973.09541028554,0.13575864567853474,0.007802969529088886,Null
0.3993151855426999,0.17150878906,0.63232421875,0.029180706659570285,-0.4540087890599,-0.57836914062,-0.365234375,0.0039126761995155095,-0.8003124999956001,-0.8896484375,-0.6982421875,0.004453881437197316,1.0207855353690998,0.96205008072,1.09089045696,0.0012579576127024982,971.7253574780733,971.23542134319,973.09541028554,0.15075093889881971,-0.006561111101001645,Null
0.7150708007791999,0.63232421875,0.78100585937,0.0016527413779592682,-0.3001989746059,-0.37646484375,-0.27197265625,0.000860971590176964,-0.6418164062464998,-0.70739746093,-0.57214355468,0.0016471758996722625,1.0086700585269,0.99620695779,1.03026256103,7.875436105782231e-05,971.8673895013218,971.76078466011,971.91997038104,0.0014513603195574353,0.001277283895224571,Null
0.514167480466,-1.16064453125,0.81530761718,0.30527050922898136,-0.017579345701500007,-0.30822753906,0.93896484375,0.15864355771423788,-0.4535522460909999,-0.6318359375,-0.02307128906,0.03586411521312165,0.966744057744,0.55244044384,1.49307836033,0.03088201863887518,971.8936420843493,971.82939218245,971.92430406267,0.0007473316632885504,-0.0007129943369220924,Null
-1.0290661621057,-1.30114746093,-0.93041992187,0.007117867137006496,0.34003295898030006,0.12548828125,0.93896484375,0.025300008291798754,0.0173498535157,-0.19409179687,0.19665527343,0.011407968267164689,1.0972078440459,1.00052391424,1.54147004847,0.014568816994348205,971.9433079953749,971.84259728271,971.98024942214,0.0011634203469933818,0.000918451830387232,Null
