avg_accX,min_accX,max_accX,var_accX,avg_accY,min_accY,max_accY,var_accY,avg_accZ,min_accZ,max_accZ,var_accZ,avg_magnitude,min_magnitude,max_magnitude,var_magnitude,avg_pressure,min_pressure,max_pressure,var_pressure,slope_pressure,Label
-0.9950527987595604,-1.02038574218,-0.955078125,0.0001833198271531012,0.15239606584384618,0.08422851562,0.24719238281,0.0012043135507123792,0.16318922775967035,0.09680175781,0.30163574218,0.0029658651759085206,1.0217991867198901,1.00064335929,1.05205218659,0.00021985315980334793,973.0575509029599,973.05171852709,973.06336712549,1.4690897947191593e-05,-3.6005056008319854e-05,Null
-1.0211352539025,-1.287109375,-0.82385253906,0.015535533735082445,0.17530761718370003,0.07568359375,0.35290527343,0.004397856852006813,0.06944824218439999,-0.1533203125,0.22583007812,0.009861606443233297,1.04499625585,0.82882669698,1.29669137596,0.01591201824800893,973.049219589614,973.03998265488,973.05656302834,1.8641070655317138e-05,-0.00011167243349779807,Null
-1.0117382812451998,-1.25329589843,-0.84008789062,0.010596118406855908,0.1190246581998,0.00891113281,0.34521484375,0.007094999267386904,0.09345581054399998,-0.07592773437,0.22607421875,0.006989865319352848,1.0298715409798,0.87739954335,1.28184614617,0.010418171480432404,973.0450781918593,973.03903258999,973.05260135464,1.6512840140708034e-05,-5.551659635267695e-05,Null
-1.0031140136675,-1.26623535156,-0.84069824218,0.013149119535930405,0.16872680663690004,0.02478027343,0.30285644531,0.004454764541568104,0.10041870116919999,-0.08825683593,0.22277832031,0.009535982347707483,1.0288620851259003,0.85813409339,1.2716065039,0.013233992718212632,973.0389432154632,973.03382751504,973.05111776404,2.100864902524965e-05,-6.645452780899013e-05,Null
-1.0227941894500001,-1.35388183593,-0.826171875,0.016001035124004078,0.12231933593449998,-0.06164550781,0.47180175781,0.01418803313739314,0.10628540038749998,-0.28881835937,0.23901367187,0.01644674385817601,1.0490826078488,0.84269523036,1.3857172291,0.018143127431084084,973.0424725903918,973.03340009922,973.06751343568,8.79422299142886e-05,-6.181935091430648e-05,Null
-0.9989716500905049,-1.19165039062,-0.85766601562,0.010410601110928003,0.1442316228660606,-0.00427246093,0.30688476562,0.0085516277846538,0.11753028329878787,-0.01867675781,0.22302246093,0.006151351295051214,1.0234191677824245,0.88668572788,1.19216280195,0.010135984574174375,973.0351157396062,973.02650917741,973.04993590175,4.7183350348082765e-05,-3.675915551732815e-05,Null
-1.0272784846802971,-1.17687988281,-0.8330078125,0.008486885298484683,0.1027288153590099,-0.052734375,0.19177246093,0.004265788339009072,0.08097129292633663,0.00256347656,0.21887207031,0.0034773036630674024,1.0391978347562378,0.84053352772,1.19307830922,0.008633267458511317,973.0333553363884,973.02189728595,973.04882000141,2.6556010436831566e-05,-3.2545647415500646e-05,Null
-1.064332287718081,-1.36645507812,-0.93359375,0.011783197064498702,0.14986658577797982,-0.0576171875,0.84143066406,0.05210187035297193,0.07559604837212121,-0.17712402343,0.19555664062,0.01172484184972289,1.099608797907273,0.9517941564,1.61440981168,0.026956931349671864,973.0275435258399,973.01777029116,973.04074310379,3.3313218878610357e-05,5.0832945350543795e-05,Null
-0.2395176651411881,-1.19799804687,-0.06530761718,0.06271640171529673,-0.03564332263079209,-0.19213867187,0.49353027343,0.027234044817490942,-0.8473794767138613,-1.0927734375,-0.13122558593,0.06878737774237882,0.9556336159313864,0.57327184649,1.30230242475,0.020827907575966226,973.0176796339731,972.9971912036,973.04746351267,0.00025015646242552747,-0.000486907620015346,Null
-1.0170275878872,-1.27905273437,-0.50085449218,0.029218393291988026,0.20511962890430002,-0.02807617187,0.572265625,0.02961500492318476,0.0429211425761,-0.66101074218,0.22729492187,0.03680557791986555,1.0735646122449998,0.86299529021,1.37473974149,0.02060910189346409,973.0089992063757,972.98233026747,973.02477522948,0.0002106781862902759,0.00045986830711775917,Null
-1.0584912109342,-1.24865722656,-0.92456054687,0.008176009679006528,0.0494030761688,-0.07299804687,0.15344238281,0.006060898392386211,0.11708740234019999,0.02197265625,0.22729492187,0.0037773692186512525,1.0707087417152,0.93684129621,1.25829607985,0.008051204318135385,973.0187927210811,972.99985315595,973.03699679153,0.00017247707680883036,-0.0003104687499519032,Null
-1.0214111328092998,-1.1953125,-0.88977050781,0.0067574466117965365,0.0372326660137,-0.05773925781,0.13159179687,0.0035960449996207656,0.1098583984337,0.0068359375,0.20971679687,0.0037040698166474558,1.0314801236777,0.9030217105,1.20665542529,0.006769274362926528,973.0292310718526,973.01155059115,973.04308775381,8.267383135272848e-05,0.00021076374362132252,Null
-0.8977938565303031,-1.24328613281,-0.37036132812,0.06284053648550054,0.17085281525727275,0.00732421875,0.55200195312,0.025399281232176302,-0.2996887823540404,-0.86938476562,0.23400878906,0.14885185244278962,1.0662889657233332,0.80135459843,1.38932401364,0.02266919639268732,973.046254358264,973.03043585004,973.06553266309,0.00011132877860546728,0.0003054914151671989,Null
0.1238844465478218,-0.55139160156,0.36096191406,0.07857434899358026,0.04599270962316832,-0.23095703125,0.79711914062,0.06578862842209932,-0.9415839166888119,-1.07360839843,-0.74853515625,0.008266270615097812,1.0258848425658416,0.89801450806,1.12144394299,0.0027485279019173908,973.0423724760832,972.94016623367,973.1493850174,0.004057903185670472,-0.0018436688312376325,Null
-0.48051437223727267,-1.67114257812,0.24328613281,0.3727013063000614,0.6987477312151515,-0.00439453125,1.08227539062,0.11978165197438569,-0.14774823429565656,-0.75036621093,0.34533691406,0.11972461650124594,1.1301679171148484,0.78758651243,1.78468871306,0.07042752266020351,972.9673712271772,972.94519891571,972.99430122046,0.0002706817516219379,0.0005208090692659026,Null
-1.010834960934,-1.15063476562,-0.85278320312,0.008562309910466743,0.1330712890596,0.01147460937,0.3271484375,0.007850075394364924,0.0955712890604,-0.16442871093,0.21044921875,0.007579174811986968,1.0313687236456,0.85726413709,1.170281694,0.008746826173175206,973.0279418888277,972.99430122046,973.04346824113,0.00011177806104202345,0.00030625843409841125,Null
-1.0125012206995,-1.17028808593,-0.91125488281,0.003382553384329663,0.0827783203081,-0.00500488281,0.15075683593,0.0022533389292712595,0.10431640624740002,-0.01940917968,0.25170898437,0.0061874032379444915,1.0253394972602001,0.91343528062,1.17966937373,0.0030774734484992614,973.0436326500778,973.03666762107,973.05252266197,2.2774867075710648e-05,5.720165732355354e-05,Null
-0.9988195800744998,-1.01049804687,-0.98596191406,4.283739310145352e-05,0.090628662106,0.06127929687,0.14318847656,0.00037262031976931134,0.13822509765240001,0.10595703125,0.16394042968,0.00018496953474858365,1.0126540663202002,1.00166300241,1.02449275351,2.784371518322995e-05,973.049843349331,973.04593638725,973.05355591257,6.335294649671539e-06,7.080003672912189e-05,Null
-0.9920050110452526,-1.08142089843,-0.85656738281,0.003807132150935313,0.1677122790368687,0.03332519531,0.41552734375,0.00765744991912085,0.23350817747454547,0.00341796875,0.490234375,0.02399119780222327,1.0474507594014144,0.93248671173,1.1764574736,0.004719639863932495,973.0446933573754,973.0354937111,973.05855990946,2.5920656130310974e-05,-0.00011214922509198413,Null
-1.0436296559302018,-1.27001953125,-0.92224121093,0.006484026814624268,0.07254305752727272,-0.12963867187,0.35778808593,0.01983183860025474,0.1036487926112121,-0.01245117187,0.26379394531,0.008054400612812856,1.06362634478,0.92551409411,1.28233603063,0.007971031929733753,973.0370920466322,973.02842586905,973.0473939647,2.4481272140740717e-05,-4.277030953404725e-05,Null
-1.056977891426598,-1.27001953125,-0.89306640625,0.013642767994693356,0.032600324178350515,-0.1328125,0.19787597656,0.0072185163736754624,0.1315817292158763,0.03588867187,0.18395996093,0.001124132943023963,1.069616195143608,0.90606274807,1.28233603063,0.0133968661975677,973.0328954187356,973.02314514237,973.05166344294,7.111180155471368e-05,-2.2453182188655486e-05,Null
-1.0756659753519586,-1.24426269531,-0.89611816406,0.00943735303659131,0.044215880715670106,-0.14904785156,0.22534179687,0.011383479530739251,0.12347349186103092,0.03552246093,0.19445800781,0.0017468386403660992,1.089715549580103,0.9065212222,1.25544835865,0.009208001486070027,973.023348656831,973.01185948635,973.04101108684,6.858995881373814e-05,-0.00011329273911965055,Null
-1.0437609354621873,-1.14880371093,-0.92993164062,0.005610265228185368,-0.008098602294791667,-0.36059570312,0.22692871093,0.034331849946657535,0.14840825398406252,0.0146484375,0.27258300781,0.004955942613405137,1.0719113346346876,0.93754054617,1.19025005459,0.00703725268796273,973.019653983888,973.01396603456,973.02710278009,1.5059892354090644e-05,7.917448083104944e-05,Null
-1.0597953796355208,-1.32702636718,-0.82580566406,0.02450458543149697,0.03696695963395833,-0.19396972656,0.19372558593,0.009348952037728408,0.10327911376572917,-0.02905273437,0.19970703125,0.0027652397947196283,1.0713159477131249,0.84023177475,1.32990203229,0.023968522086511054,973.0526104372913,973.03260286441,973.07131403886,0.00015989077454769472,0.0003768606540558023,Stairs down
-1.0560159886098934,-1.30102539062,-0.7578125,0.03053035398212117,0.07075273229638297,-0.08447265625,0.2412109375,0.01009650038666327,0.09240852518010635,-0.04809570312,0.24255371093,0.006370108772937313,1.0698084970870212,0.76741585217,1.32014749274,0.031052170097830664,973.1068479173122,973.07064214584,973.14398357955,0.00043020175666646246,0.0006901934696728295,Stairs down
-1.058674264457447,-1.31848144531,-0.77478027343,0.02912914033661691,0.06694258020095745,-0.087890625,0.22741699218,0.00998386811690528,0.11464220411861699,-0.05969238281,0.27233886718,0.006997753842082166,1.0745164782378724,0.78473757498,1.35044851865,0.02976656811664009,973.1846160386028,973.14398357955,973.23626987619,0.0005827347170032399,0.0008344967685481252,Stairs down
-1.0220258996802127,-1.31420898437,-0.80163574218,0.023630671142073522,0.08752701130117022,-0.07067871093,0.35498046875,0.011518947532384199,0.11477596201478722,0.02734375,0.22302246093,0.0025980711900080397,1.0388386491525532,0.80822434026,1.33725054388,0.023784848808701433,973.2691041087178,973.23033063132,973.31546352931,0.0006736767352306341,0.0009240557291992232,Stairs down
-0.9906496794286958,-1.31823730468,-0.72119140625,0.030159329011796812,0.03845612898858696,-0.11926269531,0.12915039062,0.0034501062809529086,0.10151473335282608,-0.01623535156,0.22216796875,0.005100498473443704,1.0007936356481522,0.7336427203,1.32427929427,0.030200440415429564,973.3441277157403,973.31338939345,973.3693625275,0.0003570062851139274,0.0006101409847684062,Stairs down
-1.0928377541115053,-1.40417480468,-0.75012207031,0.030608789296017784,0.09121540028397847,-0.14685058593,0.32739257812,0.018744870500300385,0.14433042464311827,-0.02514648437,0.28881835937,0.007406616225434448,1.1170966427901075,0.75743477049,1.43846642619,0.032035385188312816,973.4030499472083,973.37185288134,973.44492796812,0.0004647530627018519,0.0007627667183312927,Stairs down
-0.7039103190058887,-1.47741699218,-0.07202148437,0.22636788147520892,0.07994384765677778,-0.14001464843,0.82568359375,0.04750375300559196,-0.3185519748266667,-1.07580566406,0.19750976562,0.25698746990784466,1.0427403165121112,0.76285129373,1.70114307839,0.041470198851147166,973.445116952818,973.42720556535,973.46104530118,9.229603779173635e-05,-9.863577626271338e-05,Stairs down
-1.0324322244365216,-1.359375,-0.03784179687,0.13976038416951758,0.1017694887902174,-0.12377929687,0.38586425781,0.02408023808587399,0.028410538380108697,-0.88854980468,0.34020996093,0.11009080785383785,1.1446644274794564,0.67747402412,1.39154670473,0.03819288871619834,973.4324805986656,973.40799226929,973.46497722444,0.0002511219421107695,4.6841348265114434e-05,Stairs down
-1.0795559353256667,-1.30725097656,-0.82922363281,0.018857111096541455,0.058157009547444447,-0.14379882812,0.34655761718,0.017825453795397753,0.14842800563866668,-0.00744628906,0.27392578125,0.005811009255775569,1.0998004505430001,0.83400572631,1.33115747045,0.01978830829745766,973.4452560098774,973.43423352827,973.46315896946,6.287011704443702e-05,0.00013396653957325675,Stairs down
-1.0483113606725554,-1.30322265625,-0.83325195312,0.010915541263898355,0.021379937066333333,-0.171875,0.31994628906,0.011158139035823286,0.14642198350255553,0.06848144531,0.24328613281,0.002956594391020796,1.065223470143889,0.86287355073,1.31622802818,0.011026847590287894,973.4532555921679,973.43390896467,973.52596306069,0.0005551584780432613,-0.0003057824850640188,Stairs down
-1.0039230872806895,-1.28955078125,-0.81555175781,0.016677315009452912,0.12338993466844828,-0.02661132812,0.30627441406,0.013301146373614868,0.1296134159446552,-0.00952148437,0.23779296875,0.00390747856587209,1.0279778479029311,0.83162785991,1.30964254227,0.016738110687790325,973.459289992199,973.44664849212,973.47966865732,0.00011257941705876045,0.000366055802425059,Stairs down
-1.1599539620494284,-1.42883300781,-0.9052734375,0.03209115472137934,0.06158621651685713,-0.0771484375,0.16027832031,0.006238215434830643,0.14249441964085716,0.041015625,0.27514648437,0.0060031815235239636,1.1750214596774282,0.91600717406,1.43794965967,0.03292181571677805,974.1601650272465,974.14291174962,974.19162109046,0.0001799486635323226,-0.00023679319346730387,Stairs down
-1.0475347283141572,-1.37683105468,-0.70935058593,0.0450957552001418,0.0625041147283146,-0.09826660156,0.24389648437,0.010865886931595813,0.14544060524505617,0.04650878906,0.32214355468,0.0058614215426871655,1.066402235038652,0.71826692601,1.4010114956,0.046829612064447364,974.1927825019517,974.1576404193,974.22842327978,0.0003987255301815642,0.0006456255031216105,Stairs down
-1.0872553045055682,-1.60693359375,-0.69226074218,0.06448390948343014,0.034181074662840906,-0.15588378906,0.29345703125,0.01538257060808668,0.17866793545511364,0.01806640625,0.35986328125,0.008019282571118842,1.111136032300909,0.70722027354,1.66848625356,0.06825406713623694,974.2556694477006,974.22617032318,974.32957337174,0.0004864514156847449,0.0006510006051826953,Stairs down
-1.1013835560145453,-1.57409667968,-0.66430664062,0.08273359617561382,0.052556818180681815,-0.12487792968,0.27319335937,0.015292445786465146,0.2119931307670454,0.01806640625,0.41394042968,0.012598564240788087,1.1328649178563637,0.68041984522,1.62842890379,0.08773056866474828,974.3076451604327,974.26823497768,974.3405378843,0.0004531825146197915,0.0007256402563795146,Stairs down
-1.0746172323960919,-1.33862304687,-0.89367675781,0.01256052195288331,0.06248035649896553,-0.09838867187,0.19250488281,0.005529169035735192,0.17499831626781612,0.06091308593,0.26782226562,0.0032566285244570317,1.0945547456402303,0.9137456785,1.355102715,0.012525238379137481,974.35304649917,974.33656734603,974.38385735531,0.00013000521691338923,0.0001630526144703318,Stairs down
-1.0507528615513952,-1.20129394531,-0.90881347656,0.006192983134631083,0.013796784157093024,-0.10498046875,0.16821289062,0.006481371898935935,0.18647517714,0.10021972656,0.23706054687,0.0011005967081681805,1.0708524769230232,0.93111075121,1.21953947222,0.006004489193867922,974.3559179883786,974.34736687495,974.37682966201,7.241789457270401e-05,8.666099139661153e-05,Stairs down
-1.0639915027790803,-1.23083496093,-0.89624023437,0.008829908809372625,0.028889973957126433,-0.12634277343,0.14916992187,0.0059077364294598846,0.13704427082919543,0.01904296875,0.26037597656,0.00493815633671863,1.0780983814293104,0.9079153692,1.24189789713,0.008950078107022013,974.3616756703012,974.35174105266,974.37681468939,5.6772325383845665e-05,3.142112477960341e-05,Stairs down
-1.0354678883243529,-1.26770019531,-0.82666015625,0.018389082560205845,0.058111213232941175,-0.056640625,0.18640136718,0.003712501165993875,0.12169548482999998,0.05615234375,0.21594238281,0.0017862397248233726,1.046515001868706,0.83240645639,1.27956769566,0.019017326227303216,974.3641270085222,974.34674067895,974.38584116496,0.00014831861887461685,-5.090237391476519e-05,Stairs down
-1.0458424287647057,-1.34729003906,-0.75952148437,0.01872439702113553,0.04979319852894118,-0.078125,0.22668457031,0.008843139389510304,0.13874511718388238,0.03100585937,0.2412109375,0.004039587080521732,1.062388951928941,0.78380564394,1.35776647131,0.018296195120029092,974.3607824508967,974.34361025039,974.39012906713,0.0001748469252705907,0.0003242804564213388,Stairs down
-1.073058363966235,-1.47839355468,-0.73913574218,0.049524974121491046,0.030990062038352945,-0.16955566406,0.19348144531,0.01387788028444116,0.1578124999977647,-0.01977539062,0.31591796875,0.008305987360798541,1.094481818822,0.75072354939,1.50042542742,0.05089291839800357,974.4013649882153,974.36670587052,974.44596026096,0.0004112744900197921,0.0007578490356965407,Stairs down
-1.0841878255167856,-1.53381347656,-0.71960449218,0.05435194535930467,0.06002807617,-0.1630859375,0.22302246093,0.011691520685620098,0.13414510090702383,0.00512695312,0.3125,0.007926687852595763,1.1017558240942857,0.72293602966,1.56532494283,0.05696331462640247,974.4637529865017,974.42953406463,974.51016120317,0.0005114729524304286,0.0008203871305816637,Stairs down
-1.0281011742249397,-1.32287597656,-0.736328125,0.03819689036847341,0.06932123023120482,-0.08471679687,0.24475097656,0.009655974767685725,0.1486684040807229,0.02392578125,0.29077148437,0.006222627879557115,1.0478559557528915,0.75127157064,1.34517136519,0.03980116087581727,974.5390692191778,974.49873582734,974.60549536814,0.0007455728992373476,0.0010336013025945034,Stairs down
-1.056605327556747,-1.46252441406,-0.69885253906,0.051036404592586196,0.04161421074831326,-0.15344238281,0.27819824218,0.009919896944528942,0.13621576147939762,0.00244140625,0.28747558593,0.006278274770640593,1.0730321249903614,0.71021172922,1.47595954371,0.05235870208164722,974.6158926707867,974.57412176503,974.67555836329,0.0007460342303597419,0.0010425056844091903,Stairs down
-0.6295886671646987,-1.53515625,-0.09191894531,0.27540066185404105,0.0652576124812048,-0.26989746093,0.71362304687,0.0858910240162411,-0.4398972844486748,-1.16955566406,0.30590820312,0.24919402292965742,1.0526283082384338,0.48965034804,1.63027049871,0.09034263616366038,974.6859197806566,974.65885313257,974.71048991758,0.00025916342699724564,0.00045370428600958345,Stairs down
-1.0758562785789023,-1.49426269531,-0.62744140625,0.06590888159894562,0.05657512385585366,-0.13940429687,0.36547851562,0.016252885333116446,0.1722933141159756,-0.005859375,0.35534667968,0.010095341717091517,1.0979752279282928,0.63609364019,1.50601143075,0.06841228446343181,974.733330707108,974.67230165469,974.77501599303,0.0010251917842419266,0.0012522934935044288,Stairs down
-1.0969863519396341,-1.43859863281,-0.85107421875,0.016767557110388135,0.014938726656341463,-0.10192871093,0.11145019531,0.003351839839343994,0.16085443263670732,0.03161621093,0.31408691406,0.005548710541408651,1.1129965886193904,0.87065327203,1.45045277785,0.016268441532713594,974.8098968613108,974.78172101039,974.83266362974,0.00015993261987553095,0.0004063381398107541,Stairs down
-1.0435418850001221,-1.23071289062,-0.91101074218,0.006781391409151899,0.006832960174268292,-0.13012695312,0.07885742187,0.004283342087192348,0.15501143292268293,0.02709960937,0.43090820312,0.005400934749919964,1.0596729311807318,0.92141451083,1.30482482758,0.006492219171375191,974.8267813688078,974.81356109408,974.83709264151,4.659943128665224e-05,0.00015521916147228528,Null
-1.1098512249181482,-1.337890625,-0.98327636718,0.009577484281911143,0.06980764129790124,-0.2275390625,0.26965332031,0.01601941390021267,0.2173695505365432,-0.11059570312,0.56066894531,0.033913141354999024,1.1519551528108642,0.99392149932,1.45371046372,0.015862881383714528,974.8282774405236,974.82059846117,974.83650456387,2.2323289897500194e-05,-0.00011479828949657148,Null
-1.0122221016546913,-1.158203125,-0.96911621093,0.00174023188016726,0.1061785662574074,-0.01147460937,0.20251464843,0.0032988097932133953,0.12143132715703706,0.02478027343,0.203125,0.0019944281398800476,1.0276327263987652,0.98942744466,1.16515609396,0.001549787896685888,974.831736212522,974.81757456673,974.84853482263,5.544503347802859e-05,-6.503728943939646e-06,Null
-0.9947357177699999,-1.00183105468,-0.98376464843,1.6602675754789526e-05,0.11228790282687502,0.09167480468,0.13366699218,8.760930003496991e-05,0.12217712402037502,0.10827636718,0.134765625,5.5050312348228163e-05,1.0085484759367502,0.99745392775,1.01625116559,2.2495348841132098e-05,974.8382597414026,974.82992311043,974.84929108929,2.721815610715845e-05,0.00020522007467284285,Null
-1.032672119137875,-1.16381835937,-0.94665527343,0.0048387541424246075,0.06965789794675,-0.24670410156,0.23266601562,0.020166579772116257,0.129872131345375,-0.10461425781,0.34594726562,0.019650411829003688,1.063882285234375,0.97161663368,1.18249997503,0.004580476856657341,974.8522284523276,974.843822262,974.86068123117,2.0300981197176767e-05,4.79930997014302e-05,Null
-1.0620376586868752,-1.134765625,-0.96032714843,0.003095177040125551,0.046195983885625,-0.17431640625,0.31811523437,0.019039555003794943,0.155113220210875,0.06494140625,0.39526367187,0.0067636889724007245,1.08564976587875,0.98586064959,1.2148463565,0.004070830464954262,974.859187611959,974.84725136214,974.87792473564,7.427650978620799e-05,0.00022611697194436123,Null
-1.0135575306530378,-1.10607910156,-0.94543457031,0.0016589517554862511,0.04204317889468354,-0.22924804687,0.26037597656,0.01505930057149329,0.13045762460113922,0.07983398437,0.21691894531,0.001163438020521656,1.0304718433522784,0.95424889917,1.12352705268,0.001892767630226907,974.8669685032581,974.85482768867,974.88217124446,6.183320425029398e-05,0.00017245995879221825,Null
-0.9980113355372151,-1.01440429687,-0.98559570312,4.223071301754682e-05,0.08638097062594935,-0.00476074218,0.20349121093,0.0016761988313385452,0.12369894679139246,0.07690429687,0.15100097656,0.0004939551101899033,1.0103905436635445,0.99405633835,1.0407832389,8.614691224942865e-05,974.8733745993912,974.86869903541,974.88024437215,1.1541638183101178e-05,1.1742676881710757e-05,Null
-0.9968809470120513,-1.025390625,-0.97094726562,0.00015234159474770569,0.06374730818910256,0.00048828125,0.12634277343,0.0013760408207045295,0.1399019681447436,0.12353515625,0.15905761718,9.37309238818158e-05,1.0093876679128204,0.9841653964,1.0394462006,0.00014764831220427448,974.8768945553692,974.87323030015,974.88021314832,2.6470034136581605e-06,-1.3346688814458182e-06,Null
-1.000025040060128,-1.00805664062,-0.98913574218,3.0993393091147746e-05,0.07421561998807692,-0.00561523437,0.19348144531,0.002778789816824862,0.13315836588128205,0.09643554687,0.15551757812,0.0002555554628128059,1.013057903604487,1.00015063194,1.02145337555,2.928829638544506e-05,974.8703459420069,974.85227660859,974.87677961235,4.8933989034446146e-05,-0.00022886772990418787,Null
-0.9995508438458973,-1.00415039062,-0.99438476562,6.729710256128302e-06,0.034750913959230786,0.00415039062,0.0625,0.00016320777155254897,0.14587402343346156,0.12963867187,0.15783691406,5.878140399673264e-05,1.0108460378966666,1.00636979272,1.01452408323,4.883030918221329e-06,974.8548446452993,974.85022246841,974.86335464943,8.411761195653079e-06,5.541840740429305e-05,Null
-0.994395720649487,-1.00476074218,-0.9853515625,2.512033337144885e-05,0.024913298776410256,-0.01440429687,0.07397460937,0.0008157457567515016,0.145415477259359,0.13342285156,0.17028808593,9.082555223642827e-05,1.0057235980897439,0.99557557185,1.01656334884,2.9350132813633716e-05,974.8572959173811,974.85196657128,974.86253309955,8.74623135889999e-06,7.434487558895548e-05,Null
-1.0005754743262336,-1.00903320312,-0.99169921875,1.7190001956243303e-05,0.03563501927415584,0.02160644531,0.04858398437,5.125127584905409e-05,0.13371455204493507,0.11975097656,0.14233398437,4.8442167597181265e-05,1.0101485147277922,1.0023064613,1.01945670721,1.627083314404657e-05,974.8606696386643,974.85624653994,974.8679941476,9.0975793095505e-06,9.629994210315223e-05,Null
-0.9977786415464474,-1.01477050781,-0.97094726562,7.44382618861303e-05,0.044857627465526316,-0.07458496093,0.125,0.00302461166100339,0.13908627158368422,0.08520507812,0.24084472656,0.0013078276630220363,1.01055411389,0.99569088137,1.02391223962,4.933967024100118e-05,974.875625568258,974.8631954622,974.88513291635,4.230081639287043e-05,0.0002634238126716675,Null
-1.0043206465836843,-1.03674316406,-0.97204589843,0.00029861930170976413,0.06148328279065789,-0.10363769531,0.19091796875,0.005860395188129341,0.12902992649736844,0.01025390625,0.26770019531,0.0035168939801969016,1.0189833942177629,0.98522062915,1.04902500741,0.00031445085108640814,974.8880500637051,974.87917419527,974.90203662139,4.3291015885848575e-05,7.868975153955096e-05,Null
-0.9989341817833333,-1.01525878906,-0.98071289062,5.588620246792232e-05,0.06791047126634407,0.02709960937,0.11474609375,0.00048630689843871295,0.13546523227064516,0.11315917968,0.16247558593,0.00015562485732468725,1.0106812066068818,0.99588723379,1.02619261123,4.647366475075623e-05,974.8953016124914,974.88822163816,974.89952382605,8.466308641099293e-06,6.417613427483836e-05,Null
-0.9974196027969304,-1.0078125,-0.98815917968,1.8481621063430577e-05,0.05167683516029701,0.033203125,0.08081054687,0.00017510690608645667,0.14444060372326734,0.12915039062,0.16003417968,6.667186421783077e-05,1.0092665069797029,1.00065220485,1.01887798938,1.843126974452082e-05,974.8967609590698,974.89067756529,974.91026351872,2.183355016662203e-05,8.491056038476208e-05,Null
-0.9969346788160001,-1.00231933593,-0.98815917968,1.6332826063822962e-05,0.041247558590333334,0.00134277343,0.08679199218,0.00045945538900022325,0.1494452582426667,0.12170410156,0.16931152343,0.00021064702082914543,1.0092460569417776,1.00065220485,1.01562462586,1.537569218647609e-05,974.8971671063481,974.8929967649,974.90075186502,4.592048420468077e-06,3.608619105037104e-05,Null
-1.0176838200232925,-1.2041015625,-0.87829589843,0.00414437745919753,0.03331775199878049,-0.16320800781,0.11535644531,0.004957412991621046,0.11068948884987805,-0.04162597656,0.25061035156,0.0028892252542422983,1.0280528390114634,0.91787905965,1.20429030251,0.004044054823238639,974.8983886763726,974.8922441171,974.90908685665,1.1971805219553921e-05,2.198139897219887e-05,Null
-1.0207879929278094,-1.28198242187,-0.82958984375,0.014032934985536923,0.041180710564,-0.08801269531,0.14477539062,0.003893032664151683,0.1553431919609524,0.05615234375,0.27172851562,0.004259495166894165,1.0376590588001904,0.85374714659,1.28512621905,0.013199040244016552,974.9029722088707,974.89183424182,974.91871332179,5.012878799305567e-05,1.4004643508580427e-05,Null
-1.0689067639771581,-1.25256347656,-0.94714355468,0.007296892830373045,0.04017783717073684,-0.09838867187,0.16381835937,0.006705747515809582,0.18410644530873682,0.06042480468,0.283203125,0.004275104340114367,1.0904640765478948,0.97935192743,1.27209371916,0.007119499105487322,974.9076217828579,974.89111584072,974.92182183611,9.370443745582324e-05,-3.7667488407350096e-05,Null
-1.081351964610588,-1.23962402343,-0.95031738281,0.007846074248785868,0.04563275505294119,-0.16259765625,0.19091796875,0.00945690138535922,0.16081255744152945,0.01794433593,0.30847167968,0.006442061484044576,1.1010796468330588,0.95695702401,1.26478726129,0.008453850464375546,974.9052018356024,974.893926158,974.9288462652,7.366436476334514e-05,-0.00015644213168168142,Null
-1.0948764462970886,-1.21020507812,-0.91040039062,0.007812446871290928,0.04089973546253163,-0.15759277343,0.22204589843,0.010285809214698911,0.12270229677202532,0.02819824218,0.24157714843,0.00458240041339942,1.1091630033779745,0.93554936769,1.23160592467,0.0077319388137327034,974.9014336760749,974.88749354885,974.91594712115,6.762028297589526e-05,6.974557360970166e-06,Null
-1.0541151963244155,-1.25231933593,-0.86206054687,0.011247300497664254,0.022719346083246755,-0.21411132812,0.16357421875,0.009946883106256736,0.16548136921467532,-0.07080078125,0.34899902343,0.01819701651117064,1.080814828135974,0.8779142843,1.25254553646,0.009906691058123526,974.8877923383673,974.86909295641,974.91647062648,0.0001314996353118144,-0.00020251832643898912,Null
-0.9997209821389526,-1.0859375,-0.9423828125,0.0007522228573336397,0.051474144343619056,-0.09887695312,0.22766113281,0.005018125787959176,0.16242443266019047,0.06188964843,0.20654296875,0.0008922232977217856,1.016956261768857,0.95545537787,1.0921846155,0.0008807950387635236,974.8586345129723,974.84695161903,974.87956822701,0.00011199103939250223,-0.00028314733376491147,Null
-0.9958637438283159,-1.00769042968,-0.98571777343,4.379954209582929e-05,0.03260690789094736,-0.00744628906,0.08972167968,0.000339449993818426,0.1754934210488421,0.15307617187,0.19897460937,0.00014569908882102383,1.0119628109108418,1.00019779335,1.02534630815,6.104015072132637e-05,974.8523049689054,974.84533379092,974.85827163216,1.5334013204590435e-05,9.925253640753246e-05,Lift up
-1.0033668695456974,-1.17395019531,-0.90856933593,0.003198336315659943,0.0787325127144186,0.01879882812,0.16870117187,0.0018536806025523137,0.16717529296511627,0.02770996093,0.25439453125,0.0028917655349040483,1.023050983264651,0.95479670085,1.1744499083,0.002134378928154858,974.8581585352313,974.85292117543,974.86389560134,9.596823918077103e-06,8.179832929806834e-05,Lift up
-0.9927164713516127,-1.00073242187,-0.98095703125,3.442924090785371e-05,0.06720298848827957,0.04772949218,0.103515625,0.00014398525315171352,0.1790377709134409,0.17016601562,0.18701171875,2.1906702838076767e-05,1.011049518228172,0.99787523619,1.0191821308,3.416381185954212e-05,974.8637625747194,974.85838829087,974.869205078,9.570384809737402e-06,5.30254220694795e-05,Lift up
-0.9911783048376237,-1.00720214843,-0.98217773437,3.2280353030724746e-05,0.06994508044207921,0.05407714843,0.08068847656,5.630478117831252e-05,0.17909286045425743,0.16845703125,0.18981933593,2.822418908048984e-05,1.0096919296565345,0.99925449268,1.02691987579,3.9247495649788884e-05,974.8659132470301,974.86306156478,974.869205078,4.538451167653085e-06,-2.352439122062946e-05,Lift up
-0.9886881510379999,-0.99353027343,-0.98352050781,8.129002006205013e-06,0.07622884114166667,0.06457519531,0.08679199218,3.4037667703754564e-05,0.18418782551833332,0.17309570312,0.19201660156,2.5817249602599413e-05,1.0086127568352221,1.00317149604,1.01326113484,7.874075634557146e-06,974.863961866778,974.85810123513,974.86956693503,1.134798560085844e-05,-4.609737155402042e-05,Lift up
-0.9906442901190124,-0.99645996093,-0.984375,1.154776984402852e-05,0.07314272279691358,0.06030273437,0.08508300781,2.1426048540407534e-05,0.18156979407358026,0.17004394531,0.19177246093,2.8449991417306874e-05,1.0098218342109877,1.00272617671,1.01704093093,1.4262282049989447e-05,974.8643026506522,974.85614971555,974.87012636515,1.3207636745920956e-05,5.139828087845651e-05,Lift up
-0.9928151140276767,-1.00012207031,-0.9814453125,2.143730013048212e-05,0.07382294625494949,0.05944824218,0.08666992187,4.6413495505620595e-05,0.18354319562555554,0.169921875,0.19287109375,3.684966238951222e-05,1.0123748057187878,1.00192707615,1.02175880669,2.0889321870568412e-05,974.8655048382662,974.85872065056,974.87192773547,8.5957106250722e-06,8.471900110532207e-06,Lift up
-1.0259723274025512,-1.05310058593,-0.99353027343,0.0003636623169155907,-0.0006128427942857144,-0.13439941406,0.11901855468,0.006983189231830206,0.19293462013285714,0.16174316406,0.23583984375,0.0003335101793603819,1.047404949602755,1.0136227605,1.08064393852,0.0003922243465793924,974.8606180498318,974.8473629955,974.86847607325,2.3924746716506614e-05,-0.0001165620229666415,Lift up
-1.0075614235584092,-1.05932617187,-0.96936035156,0.000712641134289751,0.08225874466943182,0.02819824218,0.17529296875,0.0018327699249082745,0.17685907536988638,0.12634277343,0.21630859375,0.0003014091176859307,1.02725610383625,0.98603320103,1.08658353538,0.000794046187245062,974.7654274240366,974.66473331819,974.8473629955,0.0029571838969249874,-0.0021113912028279135,Lift up
-0.9907804099435482,-0.99768066406,-0.98205566406,1.411645030762004e-05,0.06148405997677419,0.05029296875,0.07141113281,3.8013562315655645e-05,0.18218140960612905,0.16821289062,0.189453125,3.077556188480978e-05,1.0092987960646234,1.0011061124,1.01591718578,1.4284336124937297e-05,974.5560895264115,974.45307610082,974.66473331819,0.004094937234638687,-0.0023596207334265337,Lift up
-0.9909825088914851,-0.99877929687,-0.98315429687,1.928706865650556e-05,0.056355391393960376,0.03540039062,0.07836914062,7.894554055389991e-05,0.18181345722178213,0.16650390625,0.19543457031,4.082568506027186e-05,1.009153322318119,1.00056249474,1.0189364368,2.5906328109717167e-05,974.3515412907585,974.23982858759,974.45307610082,0.004040550946737491,-0.0021590158786426736,Lift up
-0.9916395399265555,-1.00280761718,-0.98059082031,2.7468781934858953e-05,0.023710123694333337,0.00415039062,0.05004882812,9.517724929227577e-05,0.18347574869355554,0.17102050781,0.2001953125,6.9662911844376e-05,1.0088300618872221,0.99784384676,1.01981544187,2.6874484491097463e-05,974.137059888394,974.03002159081,974.23982858759,0.004125868636574858,-0.0024506728411023172,Lift up
-0.9928596402350617,-0.99816894531,-0.98364257812,1.0639475085215816e-05,0.039439260220617285,0.02429199218,0.04736328125,3.158569244834552e-05,0.18115083670506174,0.17102050781,0.19323730468,2.599376954015887e-05,1.0099893576825925,1.00184418084,1.01505194415,1.0172139387622648e-05,973.920943229055,973.8118576708,974.03002159081,0.003981453307539424,-0.0026738754447666775,Lift up
-0.9947151515755432,-1.0087890625,-0.98193359375,5.522911955420633e-05,0.04399307914032609,0.02221679687,0.07104492187,0.00014222878562942848,0.17829032565891306,0.15258789062,0.19470214843,9.782411376211837e-05,1.011643853977826,0.99771131932,1.02500240424,5.039694278629868e-05,973.6927058092115,973.5951093243,973.8118576708,0.003971450240095576,-0.002344760970213909,Lift up
-0.9893583409892156,-1.01245117187,-0.97485351562,9.698071448581098e-05,0.041757621013235276,0.00170898437,0.16479492187,0.0014896011252739096,0.20566932827490197,0.1650390625,0.25939941406,0.0009806199667142367,1.0125945164092156,0.99919182932,1.02864100137,6.854893901090204e-05,973.4931398733943,973.4023986357,973.5951093243,0.003304696612248527,-0.0019355221568530447,Lift up
-0.9675279405347779,-1.00146484375,-0.92834472656,0.0004293782973772149,0.08697374131544444,0.05090332031,0.16479492187,0.0004052011633244156,0.19006212022199998,0.17370605468,0.21594238281,0.00013851533259729733,0.9900879764804447,0.94984574665,1.02360955459,0.0004919039942097531,973.2902584598663,973.19164199236,973.4023986357,0.0037867055565022362,-0.002346391992605108,Lift up
-0.9672023228199998,-1.00134277343,-0.93969726562,0.00040956188422461645,0.0752970377572619,0.05041503906,0.09118652343,9.252753361982966e-05,0.17480759393190476,0.16040039062,0.18859863281,4.123455651703895e-05,0.985821382717738,0.95897744481,1.0210464808,0.00040555733172995033,973.1248177182805,973.08938733046,973.19164199236,0.0008352693420314503,-0.0011319936999495217,Lift up
-0.9869845408272641,-1.04431152343,-0.92663574218,0.0006803686995468385,0.0904022792559434,0.04858398437,0.13232421875,0.0005793806904861118,0.19961490270915094,0.11071777343,0.26965332031,0.0020553349913996154,1.0123414379346227,0.96786134476,1.0595162725,0.0006115577647888049,973.0812492612988,973.06615200239,973.09291217161,3.339019272049752e-05,-0.00011351083051348551,Lift up
-0.9922212641252126,-1.09265136718,-0.89074707031,0.001607269819113057,0.09831594913276595,0.041015625,0.17248535156,0.0012739667068755892,0.19127508934170206,0.09912109375,0.28344726562,0.0027041359099994854,1.0172392178089362,0.93196042088,1.1219256966,0.0015217386787462958,973.0680691137549,973.05623729173,973.08186321155,4.9757237815496033e-05,-7.620547205702654e-05,Lift up
-0.9957157732451807,-1.0068359375,-0.98254394531,3.788624393270936e-05,0.07274655261421686,0.02026367187,0.09643554687,0.0005571116577296948,0.17143084054554217,0.10729980468,0.197265625,0.0005827177509972822,1.0135418130486744,0.99465957317,1.02326280253,2.7344053487544297e-05,973.0619128717229,973.05221913061,973.0668864797,1.3777932788360057e-05,-0.0001128507548687144,Lift up
-0.9948777418824358,-1.09851074218,-0.91979980468,0.0017262126107597984,0.07101205678871796,-0.05725097656,0.13842773437,0.002406661647023443,0.14893517126987182,0.0283203125,0.26049804687,0.004115639479642503,1.011464149198205,0.9224555079,1.13395941979,0.0021162891039315226,973.0529852380369,973.04146343201,973.06557157789,4.113518521044911e-05,-0.0001863585792582336,Lift up
-1.0092944335893999,-1.18786621093,-0.85888671875,0.008311165709738898,0.1249450683566,0.03381347656,0.27954101562,0.004734615597808047,0.1559436035119,0.0283203125,0.28894042968,0.005671034405325569,1.0335848370492997,0.86654468286,1.22414326048,0.008926225692338275,973.0374629785712,973.02530474067,973.05191185121,5.493090897163841e-05,-0.0001466221974642534,Lift up
-1.014771753424694,-1.18505859375,-0.89147949218,0.007026276789594088,0.09238605109663264,-0.091796875,0.22827148437,0.007728131476234791,0.1684184171672449,-0.10791015625,0.28771972656,0.009950104016924803,1.041237287282347,0.91412714379,1.19419068321,0.007010530246412109,973.0369065013962,973.02530474067,973.04963328468,5.169066068504637e-05,4.76978504735363e-05,Null
-1.0015231045773865,-1.103515625,-0.93005371093,0.001077678346552405,0.06443231755795455,-0.07312011718,0.17993164062,0.0032438828413392452,0.16189991343772728,0.00146484375,0.26745605468,0.003276846514613952,1.0198007843788637,0.93917938653,1.10452211105,0.0009407471684411682,973.03787740123,973.02971725586,973.04267350446,1.1420059461505964e-05,6.600230318727662e-05,Null
-1.013560901985,-1.1083984375,-0.931640625,0.0025465291931321475,0.0865936279275,-0.18371582031,0.2490234375,0.011483158294844087,0.23600352893920454,-0.01879882812,0.44738769531,0.01488415910095109,1.0568181984490908,0.97280756987,1.11502273609,0.002247944499814346,973.0378709443074,973.03041438241,973.05162098432,3.400348194656425e-05,-0.00013195113051459425,Null
-1.0183496567774757,-1.26428222656,-0.81872558593,0.011729389491457633,0.09918983237038838,-0.17211914062,0.26928710937,0.011008872316260352,0.09024788569388349,-0.07116699218,0.23767089843,0.009091003860561246,1.0368093220521357,0.82329791729,1.26628967774,0.01167939271709384,973.0355331523555,973.02570564401,973.05084803171,5.135533703379883e-05,-4.128969698671855e-05,Null
-1.0447082519485869,-1.26257324218,-0.81872558593,0.01727272083005302,0.056725543477173894,-0.1923828125,0.2705078125,0.015666850234529454,0.2703140922177174,0.07775878906,0.71765136718,0.03625867692696948,1.1004264295302177,0.82329791729,1.43924459554,0.0254876332300616,973.0337624177381,973.02133943807,973.04386652802,6.050830067311332e-05,-0.00016273634509464928,Lift down
-1.026766149005,-1.10668945312,-0.91906738281,0.002706803675313512,0.04743920302914633,-0.12487792968,0.18139648437,0.005867154377049372,0.15341409822560975,-0.23522949218,0.29528808593,0.014898512575798268,1.0491250803954877,0.91970940989,1.11450419932,0.0025894536348361544,973.029400093887,973.02213750308,973.03532415653,1.3630479514517433e-05,5.6702297834594546e-05,Lift down
-1.0064126547237662,-1.10473632812,-0.94543457031,0.0011917339282208658,0.03903396408246753,-0.0693359375,0.20043945312,0.009027035179391468,0.1870640345942857,0.00634765625,0.310546875,0.0032257172734184193,1.0303398773563637,0.97553699817,1.10530606747,0.0010665054910110987,973.0283634293914,973.02235453578,973.03573541332,1.2959371840473606e-05,2.691566970424801e-05,Lift down
-0.9972902807814852,-1.01916503906,-0.94848632812,0.00011382699601983837,0.04782255568792079,0.00866699218,0.12451171875,0.0004457706655747333,0.14848342744118811,0.09521484375,0.19116210937,0.00028495247707374075,1.0097884378300992,0.97553699817,1.02532660874,7.681397561100034e-05,973.0348351803204,973.02266581432,973.04315392831,2.5682457543567374e-05,0.00011412300671906171,Lift down
-0.9384174150248455,-1.38830566406,-0.13037109375,0.06202001842163571,0.13050071480092784,-0.03271484375,0.69006347656,0.03597693046377743,-0.023445050742680412,-0.90319824218,0.16918945312,0.0865803776334147,1.0236083301345362,0.67014749358,1.56372557258,0.03345267872654934,973.0341126961908,973.01032866255,973.04320371788,3.88658966079115e-05,-7.69723373803949e-05,Lift down
0.011342717309770114,-0.13037109375,0.05163574218,0.000718664020356068,0.03194874730275862,-0.03271484375,0.06127929687,0.0006319917528344408,-1.0153556034432185,-1.09094238281,-0.90319824218,0.001235904436522865,1.016608180101609,0.91314508583,1.09097714436,0.0011745191370311969,973.0154218492995,972.9972767426,973.03346593624,0.00010351364686599131,-0.00016319050327215904,Lift down
0.026095615339550567,0.00268554687,0.03747558593,9.711789569430959e-05,0.04698884084921349,0.03625488281,0.05517578125,3.533566463103024e-05,-1.0216393631457301,-1.03503417968,-0.99206542968,8.97282782160462e-05,1.0231149914491011,0.99327378618,1.03682078999,9.23580479579966e-05,972.9919956171842,972.98510527567,972.9974722148,1.2620547829462639e-05,-6.104449124524192e-05,Lift down
-0.7672486536676697,-1.51696777343,0.02282714843,0.20701387169097807,0.07773034549262135,-0.13806152343,0.44555664062,0.020343056555386495,-0.23901248672699035,-1.02697753906,0.20275878906,0.2537635046141609,1.0452528475959226,0.62554923005,1.56660135343,0.036085663514192616,972.9904620633573,972.96011759361,973.0195712865,0.0004001022398592422,0.0004601599172192496,Lift down
-0.9995720831865933,-1.0185546875,-0.99450683593,2.6356304237718666e-05,0.061072716342197804,0.04528808593,0.09631347656,0.00012043207630556133,0.1352431747901099,0.12426757812,0.15100097656,4.3264246106011436e-05,1.0105907942807693,1.00431560823,1.03021744851,2.962760255747547e-05,973.0309525998106,973.0195712865,973.03943478838,2.2833037384368394e-05,0.00015005115134390288,Lift down
-0.9786979951018073,-1.00231933593,-0.93200683593,0.0005425917570019741,0.054209513833253016,0.04711914062,0.06591796875,2.2461939451358158e-05,0.12781055863662652,0.10729980468,0.14331054687,8.56086160770995e-05,0.9885334811951806,0.93959646261,1.01192206471,0.0005752866328584014,973.0392459178428,973.03372215039,973.04243731486,4.058298773461733e-06,-4.343938355101825e-05,Lift down
-0.9787164503490322,-1.01428222656,-0.94982910156,0.0005474452237622608,0.05145066783838708,0.0341796875,0.06274414062,3.241054806549543e-05,0.1336407405036559,0.12182617187,0.14965820312,6.0585157198119305e-05,0.9891669324726885,0.95956734148,1.02575588441,0.0005814957380752385,973.0859132410874,973.03821177659,973.15041273597,0.0012736518285047915,0.0013081887282846228,Lift down
-1.0176367187458,-1.06005859375,-0.99145507812,0.0005798136585960968,0.055725097652700006,0.0341796875,0.0849609375,6.773932414324829e-05,0.13636108398080002,0.12145996093,0.15002441406,5.016430911358387e-05,1.0283473487684,1.00230093081,1.07049148343,0.0005827939948291493,973.2554505858237,973.15041273597,973.37948304466,0.003957341279864003,0.0021574199420854897,Lift down
-1.0294420030344444,-1.06005859375,-1.00231933593,0.00039368596453012277,0.055662706160000006,0.04248046875,0.07360839843,5.2789119666232746e-05,0.1380276150142222,0.12841796875,0.14636230468,1.939663316505289e-05,1.0401841172045556,1.01223995525,1.07049148343,0.00038274740220298464,973.4345285522335,973.37948304466,973.47929738877,0.001020082635888989,0.00119129483919168,Lift down
-1.0026924826847727,-1.01513671875,-0.99072265625,3.424264848531203e-05,0.054154829541363636,0.03869628906,0.06787109375,5.175470682979572e-05,0.13085521350829546,0.11633300781,0.14306640625,4.818845372762894e-05,1.0126941835434093,1.00190586774,1.02592019348,3.155749066738923e-05,973.4898228601498,973.47884859232,973.50296847184,4.4678552641117874e-05,0.00024466421804560426,Lift down
-0.9998918805770475,-1.01782226562,-0.98559570312,6.502073382272592e-05,0.05267043340361905,0.03271484375,0.06958007812,9.527461322520329e-05,0.14050525483304763,0.12121582031,0.19104003906,0.00023002778708161624,1.0112521314035237,0.99884476839,1.02787544358,5.5939290535480034e-05,973.5025040547264,973.49483458814,973.51205715001,8.03021172714918e-06,2.049895976343223e-05,Lift down
-0.9890680727713044,-1.01257324218,-0.96911621093,0.00016288029102609636,0.06813911769260868,-0.00756835937,0.15710449218,0.003082347518284728,0.21951293944913045,0.1455078125,0.26379394531,0.0012878656469124316,1.0175219888853262,0.99119227349,1.04146569777,0.00021973376827242065,973.5224888924204,973.51205715001,973.52980548718,1.883747117614793e-05,0.00011346978209839482,Lift down
-0.99156226181,-1.10925292968,-0.93078613281,0.001738659169207545,0.10138981516317072,0.04858398437,0.15625,0.0008976709515919996,0.16024408107463417,0.03002929687,0.26025390625,0.006418196976367477,1.0131522247101217,0.94984447592,1.12453060821,0.0016404603966709316,973.5274636763629,973.5200497472,973.53652529318,1.951242145066664e-05,-4.84484238389695e-05,Lift down
-1.0402817836979068,-1.22692871093,-0.85375976562,0.00846232368473761,0.04791969476581395,-0.09423828125,0.26354980468,0.007591772992155931,0.1303029614789535,-0.01086425781,0.26599121093,0.005158897920256572,1.055362531573953,0.85485880806,1.24361799752,0.008739226138754342,973.5275537787908,973.51340718869,973.54245348712,7.303856641115257e-05,-3.125020297118551e-05,Lift down
-1.056768564073173,-1.36254882812,-0.87231445312,0.0159686796236394,0.06550832894923077,-0.08325195312,0.23693847656,0.006728940772970081,0.18055372971326922,0.01232910156,0.34106445312,0.009353566377573699,1.0811359698303846,0.90621103827,1.40776925671,0.016699376441083574,973.5243521466382,973.50971899722,973.54249985748,9.84194541679718e-05,-0.0001360421350899665,Null
-0.9916182808216303,-1.025390625,-0.92687988281,0.00047288303757551795,0.06372999108076086,-0.04431152343,0.13598632812,0.002259384221054777,0.1639815620718478,0.12353515625,0.29516601562,0.0007156789555568191,1.0085437662372825,0.9352086517,1.03761465978,0.0005138042710348158,973.524788654255,973.50971899722,973.5352946936,2.6434205780482076e-05,7.171392374549896e-06,Null
-0.9822736467592856,-1.00073242187,-0.97082519531,5.9185283523770207e-05,0.0028730119955952377,-0.05578613281,0.07495117187,0.0006554631030456483,0.25050426664357145,0.19714355468,0.34191894531,0.0018063930071214095,1.0148818662852381,1.00110847162,1.0424706559,0.00012952739589395937,973.5245268291286,973.5190917406,973.53054133594,8.680787533703482e-06,-4.314443518026206e-05,Null
-0.9835881903585147,-0.99096679687,-0.97705078125,1.0871730819608902e-05,0.019920424654158414,0.00183105468,0.06628417968,0.00016653082157480514,0.2265733775486139,0.19946289062,0.23791503906,6.472799153321636e-05,1.0096568790618812,1.00397471183,1.01581986831,1.0874386688125665e-05,973.5101894655312,973.50392242735,973.51966082262,1.6437326394724394e-05,-0.00012786616927936285,Null
-1.0026402424250516,-1.04235839843,-0.92687988281,0.0010532194498979127,0.04185249879154639,-0.07385253906,0.1650390625,0.0036584353039993693,0.1564677130286598,0.10217285156,0.19946289062,0.0010576804561487684,1.017927333896392,0.93979695584,1.05910760295,0.001066022964396868,973.5000914569106,973.49160696853,973.51090033913,2.3129669337893194e-05,-2.7960585771408182e-05,Null
-1.0283497777457469,-1.19580078125,-0.82836914062,0.010787625633555481,0.06610598509103448,-0.0546875,0.19982910156,0.0037849319549452766,0.12328119387068964,0.00024414062,0.21813964843,0.004293027734503227,1.0417261603774712,0.83554646446,1.20579708298,0.01064927112709451,973.4947489437851,973.47675311692,973.509307772,8.31936701952607e-05,-0.00014702538625091464,Null
-1.0146175336197467,-1.33312988281,-0.78833007812,0.023008805234071592,0.06729164606316455,-0.09265136718,0.22326660156,0.006850690210218028,0.1621773635250633,0.02697753906,0.26086425781,0.004106519981352551,1.0351115483020252,0.80599476818,1.36013173821,0.022645198921710092,973.4850057207113,973.46578485475,973.51538560066,0.0002215142256169697,-0.00018637014242198398,Null
-1.0092619243387368,-1.33178710937,-0.73486328125,0.027170162962532583,0.07000154193978946,-0.06384277343,0.24475097656,0.007384433317210545,0.14198062294210526,-0.01257324218,0.27697753906,0.0056574289068084165,1.0278697949913684,0.75422919476,1.35702657089,0.02722737427745308,973.4888281057343,973.46852636938,973.52834880296,0.00026654984871468874,0.0003602032762003122,Stairs down
-1.0557592773398,-1.47131347656,-0.67956542968,0.043582723171203874,0.03882202148379999,-0.17431640625,0.24475097656,0.0110853794406876,0.1432324218731,-0.01257324218,0.30041503906,0.008004785041460854,1.0745125154380002,0.68594716006,1.50739356629,0.04456499056612025,973.5490368973817,973.50293992058,973.60783843153,0.0005293396104588125,0.0006729283222682309,Stairs down
-1.066942536425281,-1.47131347656,-0.68273925781,0.06453698996022507,0.07182809208101125,-0.08410644531,0.31127929687,0.012707165631147,0.17245929160483148,-0.02709960937,0.33618164062,0.00851972417103465,1.0913850330023596,0.69613904794,1.51790526508,0.06770756769690901,973.604266055236,973.5722717897,973.64565669569,0.0004656277953699771,0.0006143468828039437,Stairs down
-1.0107843308188096,-1.40454101562,-0.6806640625,0.0477923479760134,0.10634794689035712,-0.04541015625,0.27990722656,0.0072560826624168675,0.15002441405940478,0.02661132812,0.28869628906,0.0045639761241305435,1.03195887127,0.69477604949,1.43284716902,0.0500617707724497,973.6755920041645,973.64413959824,973.71033911984,0.0004621705511785589,0.0006651491644215049,Stairs down
-0.9953325379522642,-1.34423828125,-0.76989746093,0.03304081773522799,0.06967566148037735,-0.04748535156,0.24060058593,0.006452466477708851,0.08574978810226416,-0.14001464843,0.29846191406,0.010821058401917941,1.0097631278399057,0.77689956549,1.36022432694,0.033428048680073603,973.7573373163758,973.70569884619,973.79885017261,0.0007078870398284301,0.0008117331842061583,Stairs down
-1.0615065554321275,-1.37622070312,-0.796875,0.029579899195984978,0.06269089718829786,-0.02783203125,0.14904785156,0.0020376810970198227,0.11885622714095748,0.0068359375,0.25244140625,0.005870352633645065,1.0733063927772337,0.80457166189,1.38769432996,0.030277734453449053,973.8371511241023,973.79885017261,973.88253646002,0.0005331282835747098,0.0007611679797626807,Stairs down
-0.9708899072810843,-1.27172851562,-0.70349121093,0.027734423678424658,0.10300675357301207,-0.08544921875,0.44030761718,0.018969194851778465,0.1469314759006024,-0.0283203125,0.27917480468,0.006429894042081831,0.9974797173678314,0.71691172248,1.30115480758,0.032748586445306725,973.8917048909901,973.85377877934,973.93690332845,0.000518360416719756,0.0008658864840063006,Stairs down
-1.118378468045,-1.58752441406,-0.78991699218,0.027403235894635693,0.02381779597371795,-0.12866210937,0.20288085937,0.012132513824678294,0.19680707882205128,0.02868652343,0.40698242187,0.006055327663942681,1.1428276844538459,0.79853120429,1.63909618353,0.029399082819066124,973.9464340334242,973.91664093621,973.97063938161,0.0002232066697027574,0.00041838594770937567,Stairs down
-1.1197016552208081,-1.26843261718,-0.962890625,0.007845131693649504,0.03399349944626262,-0.16467285156,0.2255859375,0.011173525130782054,0.16449406170737374,0.04113769531,0.23913574218,0.0033287656286274,1.1388049310739397,0.99554934864,1.28687420839,0.007264045111378134,973.9594666100646,973.93805511625,973.99181861327,0.0002072583770947125,-8.367149045608161e-05,Stairs down
-1.0773190868106124,-1.21215820312,-0.96923828125,0.006257462052837807,0.03694246253010204,-0.17004394531,0.15747070312,0.007813368994707904,0.15185048628418368,0.06762695312,0.212890625,0.0017293774339398825,1.0930864689315307,0.99773826978,1.22775929978,0.005900897066869482,973.9490109188969,973.93328761903,973.97558090058,0.00013273630815153906,-9.182435196437092e-05,Stairs down
-1.0765408921474713,-1.26428222656,-0.88549804687,0.01150535566056266,0.007649739582413793,-0.15734863281,0.15405273437,0.006834258057753139,0.17954718929298852,0.10461425781,0.24609375,0.001211514143299582,1.095423619478391,0.90773898334,1.28323407186,0.010732866589895565,973.9313460569189,973.91614146856,973.96384883325,0.00013156443959742436,-0.0001551199687899571,Stairs down
-1.028039139304944,-1.20031738281,-0.69067382812,0.020217002591381674,0.02127040905988764,-0.10510253906,0.14392089843,0.0047101758690361135,0.1579562412183146,0.03479003906,0.25085449218,0.003982278764624598,1.0446388543310112,0.71004871733,1.2055271802,0.01980388785996109,973.9244483879,973.90640930135,973.94611169806,0.0001353516670409616,-7.758872497873753e-06,Stairs down
-1.0798138368447574,-1.39892578125,-0.72106933593,0.04047404787624925,0.05057503413097088,-0.18774414062,0.25671386718,0.014352900439985852,0.157406705093301,0.05236816406,0.27075195312,0.004352118993652589,1.0985996491668932,0.73696343817,1.41972471964,0.040825518903527556,973.9477506207355,973.92162701342,973.99126661229,0.0004719814556523309,0.0005196617326197079,Stairs down
-1.0541308057141758,-1.39758300781,-0.72399902343,0.04281490750043453,0.06483006739285715,-0.20532226562,0.25659179687,0.015264954714562988,0.15582610748373626,-0.05480957031,0.29760742187,0.008361162192335474,1.0776191957983514,0.73606192838,1.42896386369,0.04461451041897103,974.0060846274348,973.96904994754,974.04909180794,0.00048258067819322725,0.0007112090109703463,Stairs down
-1.021957948980482,-1.39758300781,-0.67919921875,0.0479132247396114,0.06909767978096386,-0.11938476562,0.27429199218,0.01565503307247762,0.14993175827951805,0.01696777343,0.31616210937,0.005519675260068489,1.0447381720927715,0.69624939493,1.42896386369,0.04902037804693672,974.0889399113939,974.03444425351,974.13801403057,0.001040825898648142,0.0011142914536888622,Stairs down
-1.0227895883376923,-1.31555175781,-0.72497558593,0.040577333201262555,0.0695299979953846,-0.21276855468,0.32006835937,0.018651325375118107,0.1812759790632051,0.08178710937,0.36694335937,0.00552612949248983,1.0517135332556409,0.73824009452,1.34294868574,0.042157668594347913,974.1624142513963,974.12410988114,974.19872549947,0.0004833777781274308,0.0008032234076805182,Stairs down
-1.085390152466129,-1.48181152343,-0.79943847656,0.03952838629883129,0.00202662970344086,-0.19677734375,0.17028808593,0.010449053197374573,0.19365339381311825,0.04736328125,0.32385253906,0.005794227847907391,1.1094326593525805,0.82290477784,1.51247106358,0.04034246352123355,974.2333419181213,974.18701885174,974.27210894112,0.0005560812749483502,0.0007571438332713864,Stairs down
-1.1005114746057,-1.70727539062,-0.68115234375,0.08015953046298473,-0.0075000000001,-0.21789550781,0.19494628906,0.014044861094290042,0.17634155273109994,-0.05236816406,0.38818359375,0.010865327111973015,1.1237480244817002,0.69706433593,1.75124065239,0.08433080597575657,974.2888076344731,974.26067935955,974.35542965277,0.0003596712600091224,0.0005231166301772377,Stairs down
-1.0897176106736668,-1.44812011718,-0.74047851562,0.03523544195324074,0.046107313366111104,-0.21484375,0.17199707031,0.00858924604628166,0.16712782117588887,0.01733398437,0.32458496093,0.005987213047895642,1.1099783967635557,0.7655826187,1.45815664197,0.03513889028128574,974.3469779480109,974.31175983816,974.37260987294,0.0003473115653487904,0.0004495244045698305,Stairs down
-1.0785656440513414,-1.27392578125,-0.86694335937,0.014557887284830085,0.02496337890609756,-0.21484375,0.14416503906,0.006421794953482099,0.16329732754999998,0.03479003906,0.24243164062,0.0034506939255010325,1.096061934698537,0.88464932382,1.27926239666,0.013538823655563019,974.3779040606951,974.35892682851,974.41178426515,0.00021214707319684148,0.00016014038414613048,Stairs down
-1.0371127975284111,-1.16015625,-0.93615722656,0.0041850786890369664,-0.002561194874485981,-0.08679199218,0.07263183593,0.0022816090032392444,0.13058671327018692,0.02612304687,0.23254394531,0.0035191781620347727,1.0482538335237381,0.94730006676,1.16276120409,0.0037539281437622284,974.3786013907202,974.36535671456,974.39814996328,8.617089159496571e-05,0.00010194526838084213,Stairs down
-1.076739372086915,-1.2138671875,-0.912109375,0.00848229909056127,0.033560245595,-0.14147949218,0.15771484375,0.007578158326548278,0.1398198553826596,0.02624511718,0.21545410156,0.003101590922858758,1.092142304216489,0.93409468168,1.23318400448,0.007989378948557748,974.3803892602874,974.36592075598,974.40117683313,0.00011649858869256304,-0.00016183664636560348,Stairs down
-1.093510167735647,-1.23486328125,-0.912109375,0.007599697030311785,0.022111960017411763,-0.15148925781,0.154296875,0.008432644872310229,0.12783921185270586,0.03698730468,0.18786621093,0.0022171981111958837,1.1060459887745884,0.93409468168,1.24549636751,0.007380226252293853,974.3782308900064,974.36592075598,974.39028198865,5.658238053723909e-05,6.398208379232853e-05,Stairs down
-1.0709197215515385,-1.3193359375,-0.8408203125,0.012826223642321923,0.01460618239051282,-0.13317871093,0.2412109375,0.007476757805648092,0.12110001001397439,-0.02758789062,0.25329589843,0.005952423616131335,1.0844009662382055,0.85230496612,1.32159751793,0.011893424524547546,974.3783678548397,974.36446123287,974.39962939019,8.23799634989825e-05,0.00015287028938759062,Stairs down
-1.2274044721515383,-1.63830566406,-0.75964355468,0.058512215719086144,0.04630064352846153,-0.24609375,0.43774414062,0.04408459621031167,0.17986121544012823,-0.01281738281,0.33654785156,0.008647869747595533,1.2625841323752562,0.80056113962,1.67046524041,0.05745188376341804,974.4145832452076,974.38778244179,974.44482194398,0.0002977081096974028,0.0006895902525399767,Stairs down
-1.1127096871313085,-1.44116210937,-0.7607421875,0.04201848821755909,0.06037004417149532,-0.14038085937,0.2626953125,0.015858149818401484,0.17069080387962624,0.05358886718,0.26684570312,0.002427937628862193,1.1349976196817755,0.78114601396,1.45486840394,0.04282435301263913,974.4646990664476,974.43367550577,974.52650386961,0.0006660148368695398,0.000682940968167779,Stairs down
-1.0838116584893618,-1.40612792968,-0.71704101562,0.050288202432226474,0.07382786527468084,-0.1142578125,0.35107421875,0.0170226579640916,0.17679027800457447,0.04333496093,0.361328125,0.007648756803942391,1.11049441981883,0.72968818656,1.45210117758,0.05287993770948075,974.5319931751121,974.48530761824,974.61348396838,0.0010615821976079844,0.0010292880215340544,Stairs down
-1.0468849359510464,-1.38464355468,-0.71618652343,0.047398291691352734,0.12614689316744188,-0.09167480468,0.45703125,0.02418796394782566,0.12905954759860463,-0.04516601562,0.29931640625,0.006771704093804461,1.076875529682907,0.73342536846,1.41376708301,0.0468683698867692,974.6054030747952,974.55741329118,974.65851864245,0.0007640227931000061,0.0009680498153166113,Stairs down
-1.1192357113438947,-1.62377929687,-0.68994140625,0.06632272334104027,0.016763466282947368,-0.19519042968,0.24584960937,0.019572053639954144,0.2082982113445263,0.05017089843,0.39794921875,0.007953712020605543,1.149914380800842,0.72380598212,1.67186679125,0.06762712770212856,974.6933785245152,974.63007150499,974.73435112412,0.0007633812736930405,0.0008468057393660228,Stairs down
-1.1907910156216,-1.7607421875,-0.67651367187,0.09064973421720918,0.020489501953,-0.27124023437,0.29724121093,0.030640519137885236,0.15918457031039998,-0.23522949218,0.48791503906,0.023686944811420658,1.2230002323896,0.73512105381,1.82716658321,0.09246530076573134,974.7746809717775,974.72592125436,975.3342749108,0.010149763870006516,0.0014948077836571343,Stairs down
-1.2461719298589886,-1.72973632812,-0.85827636718,0.058929025194453956,0.12084823779797751,-0.23193359375,0.64855957031,0.06515272520140586,0.12308802229404496,-0.31994628906,0.45385742187,0.04321713032388191,1.2981415721158427,0.87378391841,1.83172003292,0.06366232031042388,974.8288913442651,974.72577170922,975.3342749108,0.016434812378200908,-0.00137656323223799,Stairs down
-1.09370269774925,-1.24291992187,-0.90808105468,0.010136506034516364,0.05728454589550001,-0.11450195312,0.17895507812,0.00526653059447858,0.196270751950125,0.05810546875,0.34765625,0.007882609435202343,1.1183689307801248,0.92461332861,1.26043737672,0.010364383279856178,974.8612975134305,974.84294959873,974.88594876934,0.00012859414010845356,0.00018590493584231513,Stairs down
-1.0802587890591,-1.27319335937,-0.91455078125,0.011556714917494677,0.03993652343549999,-0.11181640625,0.17504882812,0.007430258940604887,0.1757897949184,0.07019042968,0.3134765625,0.005245741646439385,1.101284349531,0.93196002115,1.29104109838,0.010726463705325722,974.8699404015316,974.85566831076,974.89103225514,0.0001413781345192382,5.7810407116131555e-05,Stairs down
-1.0509656010804083,-1.18286132812,-0.94543457031,0.005284007444903341,0.02113186583173469,-0.111328125,0.13940429687,0.005159628416077039,0.17961400868683675,0.09118652343,0.25817871093,0.00337665650633266,1.0703828735661225,0.95814074606,1.20957204066,0.005249784708240887,974.8683985833468,974.85626881779,974.88167547191,8.746242390725207e-05,7.371652632227656e-05,Stairs down
-1.0665130615193184,-1.28466796875,-0.92138671875,0.01129326046615556,0.022868763315568183,-0.11450195312,0.16101074218,0.007098288332268682,0.1830472079163636,0.09118652343,0.27331542968,0.0028072242686260494,1.0867785237410226,0.94262500082,1.29903161312,0.011480145504973562,974.8660333503867,974.8507043589,974.88627684918,9.525984295995813e-05,7.926265835851091e-05,Stairs down
-1.023675006365761,-1.22998046875,-0.75207519531,0.015228198571613394,0.059677787447391314,-0.07788085937,0.20532226562,0.006071448273947524,0.14838575279934782,-0.14245605468,0.2568359375,0.008215721568156734,1.042662678585435,0.76739602683,1.23412359067,0.015710138859572943,974.8560952877407,974.84141576717,974.87790243597,0.00014347050176550537,-0.00015821108111190843,Stairs down
-1.052611071650707,-1.40698242187,-0.69470214843,0.04078050003237315,0.04911418876232322,-0.10229492187,0.294921875,0.011834123657502965,0.14737585818717172,-0.07580566406,0.27893066406,0.008076701071194363,1.0729743170508081,0.71193618635,1.42216765881,0.040113421826250883,974.8733118291644,974.83997022491,974.95056391544,0.0008082766553435623,0.0007487572871662328,Stairs down
-1.084095472695955,-1.46801757812,-0.78869628906,0.038752309178923285,0.01834209313516854,-0.26342773437,0.18725585937,0.016557855540210262,0.1584609813869663,-0.01062011718,0.2890625,0.005965581481474505,1.1055880253547192,0.80229701358,1.4962641965,0.03941454180687111,974.9402695522052,974.90186913922,974.98758564564,0.0004987708718969992,0.0007882830954954783,Stairs down
-1.08418731688975,-1.48815917968,-0.66418457031,0.05469129279537065,0.05331878661962499,-0.11669921875,0.25341796875,0.01117544373848431,0.16333465575875,0.01184082031,0.35571289062,0.008979074730107678,1.1060228032918749,0.68661464774,1.50641146482,0.05631092466329375,975.0111835908499,974.96943127767,975.08316308346,0.0010827121832120991,0.0012512026038578913,Stairs down
-1.1014303620295878,-1.38012695312,-0.76330566406,0.038252105523597875,0.10969968186051544,-0.16711425781,0.72485351562,0.052205587079986654,0.19413332594649485,0.07580566406,0.33605957031,0.004455512354492507,1.1465713450113402,0.78163430298,1.44151047844,0.04261884953299355,975.096879431785,975.0503053161,975.14852988418,0.0008693461524401556,0.0008406781483064221,Stairs down
-1.0156712582193683,-1.373046875,-0.70520019531,0.048643256178364104,0.05832648026252628,-0.13940429687,0.396484375,0.01738957150590414,0.20766087581905265,0.09741210937,0.37561035156,0.00504571589893065,1.0474087065654736,0.72049570587,1.40813308837,0.0519250517068776,975.1844937866929,975.13613533553,975.27568268174,0.0012923681950606609,0.0010992253929854796,Stairs down
-1.0398107192061175,-1.35729980468,-0.72985839843,0.03804721001648207,0.05364056755447058,-0.1572265625,0.24230957031,0.01360286466240102,0.1762221392424706,0.01550292968,0.29919433593,0.00418358796202244,1.0631666734627057,0.74592205888,1.39466676133,0.04046739204658838,975.2741571071917,975.22400525525,975.3505784544,0.001155510347757838,0.0011667479319325796,Stairs down
-1.1153633031919101,-1.56457519531,-0.63903808593,0.07199976232860784,0.04509057891449438,-0.09057617187,0.22998046875,0.01131962866402665,0.1592153484875281,-0.06628417968,0.39709472656,0.018261479112540904,1.1399401801166291,0.65985185049,1.59888594201,0.07321654113869573,975.3545219522263,975.30417448703,975.4011669832,0.0008820923455967476,0.001040625101375498,Stairs down
-1.158931847770606,-1.68676757812,-0.87023925781,0.042814385968273166,0.04761482007373738,-0.14758300781,0.29455566406,0.013750319522522871,0.21332095367444442,-0.01586914062,0.48156738281,0.011913245534274293,1.1888255742287879,0.89749396992,1.75426623042,0.04583905753467599,975.420204875029,975.38681351957,975.44417249238,0.00022752318450490925,0.00039110903528417424,Stairs down
-1.073742812934944,-1.31701660156,-0.8515625,0.013161002250026853,0.031459851210224724,-0.103515625,0.17541503906,0.004935862661606769,0.16628719715348317,-0.01782226562,0.29846191406,0.006765779362683075,1.0920346682650561,0.87622219966,1.35188817637,0.0137629949227991,975.4517964617502,975.43504853282,975.47081215708,9.484404935435104e-05,0.00011613767863758196,Null
-1.061433410640125,-1.25048828125,-0.94421386718,0.0059118941404058606,0.023246765136625,-0.22509765625,0.31921386718,0.014358324281035884,0.175500488278,-0.1328125,0.45593261718,0.019184431471022532,1.090350011919,0.96875086907,1.34523126554,0.008182315924618272,975.4569821767145,975.44167043698,975.46988595466,4.3557222465852844e-05,3.263769852527644e-05,Null
-1.0228544194601061,-1.14306640625,-0.92041015625,0.003134424377018565,0.05305643284340426,-0.10290527343,0.39392089843,0.010190765014905363,0.0605053191475532,-0.29748535156,0.20947265625,0.011296914326151547,1.0360026956287232,0.92127395691,1.16725470491,0.003806113784524334,975.4501674147367,975.43510484729,975.46628798629,8.203946629847644e-05,-0.00012862065215384012,Null
-0.2228676707458763,-1.05773925781,0.27746582031,0.12378685068036478,0.29179083440494846,-0.380859375,0.67700195312,0.09235849915626525,-0.7925912129475257,-1.25146484375,-0.29748535156,0.06359926054924171,0.9975637346149485,0.61944790263,1.43212312631,0.04520600252411036,975.4392247077701,975.30627640805,975.95556311449,0.029334173381308906,-0.0017103814774866405,Null
-0.29370257498114954,-1.056640625,0.26037597656,0.17697028451503202,0.37886696300034467,-0.59045410156,1.1083984375,0.28960168621112625,-0.5422756151189654,-0.96716308593,0.0732421875,0.11271522679021101,1.0378534616452875,0.71978471746,1.21082709024,0.01957817356602037,975.3621770890285,975.30351373633,975.48493851965,0.0018647061665947972,0.00035516240508272833,Null
-0.4719990575010467,-1.60083007812,0.52368164062,0.28498057097599644,0.14295001362558143,-1.15905761718,1.64465332031,0.48852132099229223,0.238386287243721,-0.98034667968,1.97875976562,0.5691778842663799,1.1610375866080234,0.46877512864,2.49183549756,0.28238836747579377,975.4622423105292,974.43718715436,978.2380925683,1.0291491657206988,-0.020091731056939795,Null
0.47196975556504944,0.27185058593,0.69396972656,0.009186308637805077,0.4326244391976236,-0.12878417968,1.13403320312,0.1000863635003904,-0.6553411200464354,-0.87524414062,-0.22253417968,0.038933405421806296,0.9803766416606933,0.6062969573,1.35902770308,0.02524158702707829,975.3363650523688,975.09989715916,975.53433333597,0.010836978446430397,0.0003825242632374099,Null
0.41217176649055554,-1.25305175781,0.72412109375,0.1796844023138175,0.7008070203962222,0.10168457031,1.06958007812,0.0794485644994802,0.06501193576244445,-0.54406738281,0.41235351562,0.09476776738231207,0.986839847815111,0.56155234884,1.5350049068,0.04182291434778732,975.3419189824344,975.09152342456,975.99341962332,0.07765115727830944,-0.006118717690643172,Null
-1.0153296199806172,-1.43176269531,-0.85705566406,0.012991692075246461,0.2382722077516049,-0.05200195312,0.97229003906,0.0804431921897798,0.08086329330456789,-0.06298828125,0.166015625,0.0049066655104273976,1.0770505005987654,0.96342175055,1.72072483529,0.031687635506122164,975.3840190608147,975.3334932434,975.42580260214,0.000951666592845252,0.0012662239756388801,Null
-1.001257919680244,-1.01037597656,-0.98913574218,2.7652761459896936e-05,0.11061356706951217,0.07824707031,0.13549804687,0.00016422298290610197,0.11438732612024391,0.10290527343,0.12243652343,4.1872022900155156e-05,1.0139232900559756,1.00235433892,1.02276056776,2.8044387120309764e-05,975.4327305552181,975.42176573891,975.4446819558,3.5496054049756106e-05,0.00023241761179520175,Null
-0.7097670611190195,-1.55078125,0.52893066406,0.346577759233806,0.29412123735852935,0.068359375,0.84191894531,0.07460001393498421,0.13535204120392158,-0.13635253906,0.69421386718,0.03502615726736616,0.9900450512982355,0.25936945484,1.73999462338,0.08093235208454837,975.7071129835839,975.44413625024,976.64641912232,0.15927407861472964,0.010144137642964837,Null
0.5079440646673333,-0.15734863281,0.74340820312,0.034744057168800066,0.6698255750846667,-0.52563476562,0.9912109375,0.14489607914526612,-0.19937337239355557,-0.91589355468,0.53564453125,0.0770478482314583,0.9914669466308889,0.47938907858,1.14971667044,0.01744625230099682,975.2077971159069,974.90124792391,977.19700217504,0.20991553896372958,0.001381720307297773,Null
-0.6428443265201205,-1.134765625,-0.13208007812,0.09962221222143457,0.6947771554938553,-0.52563476562,0.97595214843,0.10106998566692567,-0.05610675122325302,-0.91589355468,0.38256835937,0.07229002354576333,1.0741849502578311,0.79657520938,1.24683552371,0.015114161448583902,975.3483863609329,975.1708285621,975.43882079696,0.006306131691839055,0.003173729695578092,Null
-0.7379188144297937,-0.95837402343,-0.45495605468,0.02042780613309722,0.6824926002707218,0.47119140625,0.94323730468,0.019623255661229803,-0.14084145457206185,-0.26733398437,0.03308105468,0.004407375897239108,1.0360989269074228,0.99246657944,1.09217106065,0.0006625891986947723,975.4497938415501,975.38151018431,975.65169699891,0.0064776724689801215,-0.0003826300559750905,Null
-0.5083187705567368,-1.12561035156,0.28479003906,0.08503421252251502,0.7859452096989472,0.19311523437,1.44750976562,0.06358214858066964,-0.1831607216263157,-0.41943359375,0.29797363281,0.033205235183848554,1.0282341347793684,0.4277509747,1.4921134461,0.03263143268508143,975.4725996058523,975.425805279,975.75154086575,0.005566949470132952,0.0013258701785568816,Null
-0.8028353987037931,-1.79150390625,0.11706542968,0.21987520789255635,0.6242872216201149,-0.23010253906,1.48120117187,0.19825205687463476,0.5077830347486206,-0.16223144531,1.24108886718,0.13362674171329864,1.2895908885226437,0.66858985534,2.29059948926,0.17651912497659641,975.6269020706084,974.33092118147,978.49238464607,1.4760577799072407,-0.011860794719641304,Null
0.3247054662452565,-0.34057617187,0.88330078125,0.1348174351721418,0.3130148863165384,-0.37719726562,1.01159667968,0.13890205483965595,-0.5620602338703845,-0.96179199218,-0.22058105468,0.050753175569523766,0.9031425850037181,0.53080646849,1.19609459366,0.025666517863222996,975.2753321085786,974.94041184091,975.85505613383,0.04000973833637742,0.00234967791012157,Null
0.5283270941803333,-0.18115234375,0.85461425781,0.09656968456973407,0.5935465494762222,-0.22119140625,1.32958984375,0.126619511440941,-0.13007948133500002,-0.68676757812,0.48120117187,0.0810339506725442,0.9301504460008889,0.30958179248,1.55291601594,0.08495467443334703,975.261281285764,975.13434940109,975.45563772666,0.0066632396123279475,-0.0013553853119431334,Null
-0.9878066705163264,-1.39807128906,-0.56909179687,0.02871355595151854,0.37505729830602025,0.04235839843,0.72033691406,0.044033044762130685,0.019559899155612244,-0.28015136718,0.24987792968,0.021011829621350703,1.0918743262941837,0.89918776988,1.48516068997,0.017604388840236643,975.3830898288865,975.28911303011,975.43550339691,0.0016699513163891085,0.001384647588208831,Null
-1.2182850355477528,-1.43029785156,-0.92028808593,0.013214798771652514,0.10952038711202247,-0.16870117187,0.37353515625,0.02065151485339971,0.15363166037303372,-0.04211425781,0.40869140625,0.017792143608504566,1.2502353639047192,0.92551522919,1.4803939891,0.01563071791509495,975.4346299030182,975.42681009868,975.44052792911,1.0168975294334708e-05,-7.5096975227653455e-06,Null
-0.069767761232125,-1.36291503906,0.20861816406,0.14532023930072568,0.92490692138325,0.5458984375,1.16662597656,0.026163712500004672,0.288606262203375,-0.015625,0.43530273437,0.017388858653100133,1.0429293765175,0.7139671767,1.5329024828,0.04296115871722989,975.3910828990589,975.35966692402,975.43119838459,0.0006237268453582247,-0.0009920935096024977,Stairs up
0.14061795747884615,0.01135253906,0.20849609375,0.0038211822587699454,0.9334646371656733,0.72473144531,1.21838378906,0.02451090871313088,0.30976632924817304,0.14196777343,0.46862792968,0.007148547779784054,0.9985713826326925,0.81978610269,1.29155181622,0.025322980286339232,975.3366031399133,975.30940588188,975.36454794543,0.0002653694422377863,-0.0005283171946417782,Stairs up
0.055498206094456506,-0.10754394531,0.17333984375,0.004754535634594127,0.9963232952571738,0.78747558593,1.23168945312,0.01999562285827924,0.24510922638934782,0.08093261718,0.3603515625,0.006652856529734638,1.0319122881661955,0.8189006281,1.25805893847,0.02227956907679139,975.2887407805518,975.26483769485,975.30072833124,0.00013354471575581427,-0.0003659045037504456,Stairs up
0.06947859798301205,-0.04345703125,0.15771484375,0.0029345684731388526,0.9566032685391567,0.77099609375,1.2060546875,0.015530632535719355,0.33304752211722893,0.16333007812,0.75927734375,0.021476896473743685,1.0270289085993975,0.84093961855,1.24760415428,0.01569937837510364,975.2298191674348,975.19379878995,975.26709364079,0.0006357690859491792,-0.001032233218506065,Stairs up
-0.6003257349876314,-1.64086914062,0.07702636718,0.3270479147990317,0.5849304199180263,0.1611328125,1.18395996093,0.12172958299497097,0.27516415244328946,-0.02600097656,0.74914550781,0.03691210735030222,1.0906094099369736,0.54503202521,1.7005549866,0.06902822859553276,975.1594690393525,975.12882337883,975.22140720425,0.0005393252443762392,-0.0008809503747004291,Stairs up
-1.1506666703623865,-1.494140625,-0.89672851562,0.026427761403613814,0.08776578035897728,-0.07006835937,0.32824707031,0.0078658821173734,0.27393271705886363,0.12536621093,0.43774414062,0.005772840140220715,1.1899487848852273,0.90800793098,1.56143360464,0.030758350733035025,975.0837321732571,975.04403515229,975.13023286709,0.0008465585973852182,-0.0010956587250107476,Stairs up
-1.0587569256174492,-1.20483398437,-0.80310058593,0.01121976447599091,0.1789239377352041,0.07409667968,0.28234863281,0.0034562620648787836,0.18444948779857145,0.00427246093,0.36767578125,0.007942125814241441,1.0944081153120406,0.8304291914,1.24324490268,0.011780053233830226,975.0178308580863,974.9904897919,975.03709483172,0.00022204957708935155,-0.0004975552265643141,Stairs up
-1.1299664786655057,-1.34765625,-0.90539550781,0.01131925040878053,0.0659824328460674,-0.20837402343,0.29650878906,0.019019221069850847,0.29056574789,0.06860351562,0.55517578125,0.015610955857240066,1.1817364913401123,0.92618467498,1.38714082768,0.01470359378759669,974.9561486516815,974.91575967965,974.99132825219,0.000591019203358192,-0.0009288923379128618,Stairs up
-1.0549509932314636,-1.43762207031,-0.77478027343,0.020823416323624444,0.12993342701707317,-0.03369140625,0.29577636718,0.009898168419241767,0.162484517907561,0.00756835937,0.31494140625,0.008892895182369331,1.083444957670976,0.79514440847,1.45772455201,0.02174914583028903,974.8928769732245,974.8665324044,974.91920593782,0.00030726641735901675,-0.000707601402666599,Stairs up
-1.0901672363248,-1.23742675781,-0.90356445312,0.0064818769918646825,0.12043212890350002,-0.07983398437,0.3232421875,0.014694172378220082,0.14291381835640002,-0.03247070312,0.32727050781,0.00936430974891662,1.1160912371376002,0.91375721618,1.2467062769,0.008048652745238784,974.8596969474769,974.85210427107,974.87312270788,3.0252756676813957e-05,-0.00014488157775918706,Stairs up
-1.064642723567021,-1.16064453125,-0.95495605468,0.00356411408908646,0.10528304728691489,-0.06799316406,0.26159667968,0.007211840834534274,0.14290667594446807,-0.02014160156,0.30053710937,0.010793787185495495,1.0871224973068088,0.95636547052,1.19760342386,0.004524047701921262,974.8558411069386,974.84927853346,974.86519881488,1.9005728529320115e-05,-2.4353318312189638e-05,Stairs up
-1.0342160179458333,-1.15356445312,-0.89538574218,0.007020885965801944,0.08200945172690477,-0.05200195312,0.17810058593,0.002500754580555039,0.08640107654214287,-0.01977539062,0.22814941406,0.005853130077343454,1.0452582713099998,0.89793810855,1.16560034968,0.006497705510341638,974.8555849564834,974.84654318271,974.86285470298,1.7696571837941373e-05,-7.070380590076145e-05,Stairs up
-1.0474587464902565,-1.15600585937,-0.9697265625,0.002876447643335316,0.08974828475217948,-0.02746582031,0.1962890625,0.005212678788166063,0.1371146960094872,0.01025390625,0.27038574218,0.006874750258639094,1.0660186667510254,0.99331029304,1.17334228845,0.002432439452602231,974.8520798814257,974.84654318271,974.85773566663,1.3560278917699472e-05,-1.745247682254262e-05,Stairs up
-1.0620789259960675,-1.13977050781,-0.96899414062,0.0026665526395498688,0.09190385796808989,-0.03381347656,0.23376464843,0.004057102521605013,0.13852785945955057,0.00122070312,0.2666015625,0.0069551273374028715,1.0799906000419102,0.99128511649,1.17011330746,0.002825066454796857,974.8582008801963,974.84612468813,974.86276214892,2.5286625597642606e-05,0.00014939974382769438,Stairs up
-1.069044941599899,-1.26904296875,-0.8701171875,0.013964811973054119,0.07126563486212122,-0.03942871093,0.30798339843,0.0053694885834516155,0.15146706320626263,-0.08862304687,0.31213378906,0.01323610585641249,1.0903719597731314,0.87522573624,1.28283202961,0.014353536070543703,974.8386765928796,974.81740010257,974.86362131208,0.00019774904002533883,-0.000467307668908895,Stairs up
-0.9164081920254546,-1.59240722656,0.68981933593,0.3592105934130767,0.289260864255,-0.09912109375,0.79577636718,0.08691260743008684,0.22304465553636363,-0.03857421875,0.66552734375,0.044013312680092606,1.1813854791746592,0.68138945359,1.74253192199,0.062833891871492,974.7862140884209,974.73036783148,974.81334229044,0.0005695865667481642,-0.0008756963463651938,Stairs up
-0.3498896846064197,-1.779296875,1.03112792968,1.0880836421322684,0.38092417775456794,0.08288574218,0.7451171875,0.025092494147851467,0.1987967785485185,-0.09313964843,0.45727539062,0.037877910973968365,1.1612211148722222,0.66459143273,1.87283317611,0.09664839566104302,974.6920551452339,974.66486189103,974.73469189735,0.0005390850387626167,-0.0004967709767265128,Stairs up
-1.1785731551623762,-1.39050292968,-1.01599121093,0.015114040572547007,0.14824170405069306,-0.11560058593,0.34924316406,0.018654976808252753,0.21714012221247528,0.05285644531,0.333984375,0.007074234400135201,1.2174958007909902,1.0448970756,1.43430887934,0.016465985326589275,974.6600945258403,974.62684908213,974.68783729998,0.00026869820419339103,-0.0005203240227756952,Stairs up
-1.1751137591386172,-1.40649414062,-0.89526367187,0.018271473371229228,0.13420462100691485,-0.06750488281,0.35144042968,0.009382184256137238,0.23479315574840431,0.05261230468,0.3984375,0.008023777793110472,1.2118494527821277,0.9065714792,1.45349922283,0.02097296184287702,974.5996411818504,974.55488538482,974.62696081663,0.0004382037370658712,-0.0007368575453294131,Stairs up
-1.0828145345013094,-1.38598632812,-0.8681640625,0.019938131128594553,0.12007649739392859,-0.04919433593,0.28369140625,0.010175380840332067,0.15866379510464285,-0.07788085937,0.34814453125,0.013970740355093788,1.1110032031429762,0.88357600389,1.40834140495,0.021567965121066218,974.5154365070679,974.48331827568,974.55488538482,0.00041223623653368344,-0.0008133471280034267,Stairs up
-1.1450623351214284,-1.3740234375,-0.92712402343,0.01372132166684018,0.020943777901038962,-0.12902832031,0.15612792968,0.005310897931959985,0.24205433238337665,0.01574707031,0.4384765625,0.013838305356570794,1.1779980160685715,0.92758231272,1.40763192093,0.01515785742506158,974.4669477705429,974.45093601401,974.48562934474,0.000149479588596272,-0.000475318798198489,Stairs up
-0.993554996535443,-1.2080078125,-0.83361816406,0.011656436163705885,0.039782560323291145,-0.11865234375,0.1416015625,0.006343560185899718,0.15095462074417723,-0.04077148437,0.29113769531,0.00783916975575277,1.0129347666325321,0.84780232977,1.22800843848,0.011137711055053389,974.4402396337566,974.42873145229,974.45093601401,2.566111879896687e-05,-0.0001330971447695726,Stairs up
-1.0980639411364075,-1.22192382812,-0.96691894531,0.003236920679674694,0.11608175629291262,-0.08459472656,0.25048828125,0.010277548790019863,0.16206552449533984,-0.01379394531,0.31164550781,0.01096535513619792,1.1251465465139805,0.97070055372,1.24727343381,0.0038090131816332913,974.4314801632189,974.4253143872,974.43569258857,1.0080707129608862e-05,-3.803220363965067e-05,Stairs up
-1.0437237283424998,-1.17492675781,-0.93762207031,0.0034765204654579334,0.06430849821500001,-0.06860351562,0.15979003906,0.004500046512595974,0.09926041312543478,-0.056640625,0.28820800781,0.008699266983019364,1.057178563481739,0.94322612761,1.17908137583,0.003115623534568224,974.4306208887011,974.42690750055,974.43817646846,1.0246592594852724e-05,1.6671686070850278e-05,Stairs up
-1.0584893284037349,-1.17846679687,-0.99438476562,0.0025421087089002197,0.08092379282614456,-0.06042480468,0.24108886718,0.008105872528482747,0.15090096714590362,0.02221679687,0.25573730468,0.00553111555536355,1.078467815988675,1.00349508392,1.20143026658,0.002642596780739103,974.4293860729528,974.42319956784,974.43604622106,1.271932342186351e-05,1.6170271681229213e-05,Stairs up
-1.107058289227204,-1.20446777343,-0.9931640625,0.0031462535192369576,0.10369151125483872,-0.10864257812,0.25354003906,0.01089386721695904,0.14543037003946238,-0.03369140625,0.30407714843,0.013710942211440709,1.1319865143497847,0.99823474049,1.23288427948,0.0035776428109810902,974.4200596430563,974.41421389762,974.42538921852,9.388760345138245e-06,-6.344336878379865e-05,Stairs up
-1.0920509805454082,-1.20666503906,-1.00610351562,0.002755704821228903,0.09530826490530611,-0.0400390625,0.2919921875,0.009122148248389705,0.16270602479000001,0.04064941406,0.27661132812,0.0053754820290464675,1.1141855549284692,1.01242016077,1.23861110517,0.0038392660021214524,974.4094862545048,974.38895240408,974.42150836534,8.233577819217952e-05,-0.00025879767232143286,Stairs up
-1.0415979144185057,-1.25756835937,-0.85034179687,0.011099199119214545,0.06045567304114942,-0.07287597656,0.13391113281,0.0028515056876702487,0.18868141612448278,0.00439453125,0.31994628906,0.008633990791803697,1.0656684882727585,0.88421625593,1.28793619252,0.010983805649810375,974.368272508552,974.34449349402,974.38972200511,0.00023067091792116273,-0.0005759162177337063,Stairs up
-1.0914244832830378,-1.19812011718,-0.96667480468,0.004065636220229369,0.09136267553101265,-0.04577636718,0.23083496093,0.00473126262667549,0.17615364170936712,-0.05822753906,0.39978027343,0.017476018383406157,1.118659633061899,0.97632080901,1.22049245008,0.005191333779849343,974.325218149272,974.29910002385,974.34449349402,0.00023390956242790793,-0.0006327565537291701,Stairs up
-1.1101363332601313,-1.30603027343,-0.94262695312,0.012414665567296056,0.0838976408293421,-0.1240234375,0.2822265625,0.011675399070914553,0.21652542917078949,-0.02185058593,0.4423828125,0.013444981018191502,1.1438301563135524,0.94870298211,1.378973038,0.015218737571236944,974.2657928807337,974.22785317821,974.29450121494,0.00037190014061931815,-0.0008531618233045405,Stairs up
-1.1163797581408508,-1.38220214843,-0.79382324218,0.025149020170082224,0.10761796666861702,-0.10363769531,0.25256347656,0.007068236418245639,0.23262575839095745,0.11547851562,0.33337402343,0.003930651817230025,1.1498743289145743,0.83399247784,1.42207269027,0.02582727675734312,974.2032014803232,974.18128334582,974.23338228302,0.0002937368196407968,-0.0006044776342927842,Stairs up
-1.0751177469843751,-1.36901855468,-0.78869628906,0.028078913098720047,0.10331217447479167,-0.02453613281,0.22351074218,0.004512808092685574,0.1696713765433333,-0.0546875,0.31396484375,0.008530708792669768,1.0991739986707292,0.8399088546,1.40910990562,0.02814370689401094,974.1381723279713,974.09385024667,974.17689619164,0.00047013297903908944,-0.0007615639740437777,Stairs up
-1.1070237593189773,-1.29028320312,-0.87109375,0.012085630117386737,0.061452692203181815,-0.1025390625,0.19616699218,0.00719004414576204,0.2187749689239773,-0.04162597656,0.49328613281,0.020815471177025865,1.1418221495487502,0.89032667584,1.32640304011,0.013167902394955416,974.0661307829542,974.03200121631,974.10095530529,0.00046229162982746257,-0.0008262915583840415,Stairs up
-1.0673117335801265,-1.32739257812,-0.75695800781,0.02245730910845739,0.05585412133936709,-0.0947265625,0.150390625,0.0037935570058814628,0.14504579954151903,0.00402832031,0.33837890625,0.0075286721078832095,1.0836817481993672,0.7736509202,1.33797227373,0.02258399457001094,973.9961341778898,973.96247030061,974.03200121631,0.00034116612105331126,-0.0007577680673083747,Stairs up
-1.0178815230542717,-1.20825195312,-0.81359863281,0.009930146051450414,0.08777803587291262,0.01159667968,0.18591308593,0.002235120327200362,0.1455492926994175,0.02551269531,0.27587890625,0.006280632449614947,1.0366892600007769,0.86877112946,1.21631382497,0.008598041928107938,973.9481974977399,973.93443749284,973.9724678733,0.0001031364156704189,-0.00031171543974915447,Stairs up
-1.0380938130001074,-1.15930175781,-0.951171875,0.0027288916987468852,0.09295588667440861,-0.03356933593,0.17663574218,0.004378895598558441,0.10639018396774196,-0.0322265625,0.29516601562,0.007626544689401904,1.053359855731613,0.96262913184,1.17083838708,0.0026356860541840526,973.9364319937413,973.92991754085,973.94101112311,8.96937093101116e-06,-7.04606336140935e-05,Stairs up
-1.0141439782538555,-1.224609375,-0.857421875,0.007357587454978253,0.128982727783253,0.02380371093,0.24304199218,0.003312444072972585,0.20826813111445777,0.04162597656,0.30529785156,0.005141714277411812,1.0472619342718075,0.89884708853,1.26527572451,0.007453654060668312,973.934741925638,973.92825167473,973.94076591403,1.4235151268477104e-05,-4.658903189659732e-05,Stairs up
-1.0029200503655262,-1.08740234375,-0.94116210937,0.000990253592807212,0.0975727282036842,0.02014160156,0.16613769531,0.0018459710321494583,0.11177143297368419,-0.04541015625,0.17333984375,0.003610982831972308,1.0165260584696054,0.95839675489,1.09484441362,0.0009110537232140434,973.9364471994877,973.93189193068,973.94423081032,1.0650820422983913e-05,-2.908794609532744e-05,Null
-1.0099970829911686,-1.20190429687,-0.90014648437,0.0035539381536647627,0.13712776480935066,-0.03833007812,0.32824707031,0.005119611466365549,0.09841879311714286,-0.08154296875,0.20166015625,0.005171026507023788,1.0286092450374027,0.92265735984,1.23146291866,0.004267611353551334,973.9404508340816,973.93403721191,973.94608625846,9.203822174130153e-06,8.899762317385966e-05,Null
-0.9206941565642857,-1.20935058593,-0.2041015625,0.05647186605443881,0.36359888193244894,0.0537109375,0.74975585937,0.07352661248933796,0.001057527502142857,-0.65246582031,0.26611328125,0.051730354711339126,1.0687541577261226,0.89118793331,1.30300244571,0.017702642198513585,973.9372480252543,973.91816265432,973.95088033325,7.437087006521041e-05,-0.0002284626067170897,Null
-0.6032020970365262,-1.89697265625,0.31311035156,0.466236655586321,0.3211747018881053,-0.072265625,0.634765625,0.03724357004190481,-0.33202739514821056,-0.982421875,0.28161621093,0.19683596125428485,1.0654450078949471,0.332175975,1.9990547487,0.1364559007314722,973.9061717733845,973.85959064994,973.95972926821,0.000668300584633292,-0.0005593393585960517,Null
-0.9911357081175581,-1.01184082031,-0.96594238281,0.00015945054805074,0.1275365075366279,0.03735351562,0.20141601562,0.00205992754813311,0.14748222882965123,0.09313964843,0.18969726562,0.00048110772297190444,1.0113327533630228,0.9769248824,1.0334782946,0.0002445508928329926,973.9202245760906,973.90203865604,973.9344369442,0.0001104430628946918,0.0004115531220539282,Null
-0.9917351217791764,-1.02307128906,-0.97314453125,0.00013823233314329728,0.12065716911399998,0.06787109375,0.22180175781,0.0019060544941373804,0.1330437155292941,0.095703125,0.16625976562,0.0002916895290984554,1.0089258999027055,0.98375404542,1.03882497209,0.0001764329401292518,973.9354921982354,973.93232257239,973.93920137492,4.230055796006155e-06,-1.6520519580128372e-06,Null
-0.9919385249039604,-1.05810546875,-0.93359375,0.0005574524166684119,0.14327066251148513,0.00439453125,0.28588867187,0.003953375550730921,0.1705793626185149,0.00231933593,0.28637695312,0.0030173736723010103,1.0197312439138613,0.93360697365,1.11797489748,0.0011793709918527231,973.9431554185791,973.93600132017,973.94845027936,7.74781320415821e-06,6.0324871660320095e-05,Null
-1.0572618272526666,-1.29150390625,-0.92419433593,0.009941426771587967,0.08113471136899998,-0.04174804687,0.23132324218,0.006052646797622496,0.1463378906218889,-0.03637695312,0.29370117187,0.009406153137474926,1.0773000664987777,0.92585169045,1.31520923786,0.010458970453668195,973.9467722528161,973.93841266261,973.9511814642,1.2515371729766333e-05,2.668860795682235e-05,Null
-1.1001199861804878,-1.26892089843,-0.92761230468,0.008196383393924719,0.062028094035,-0.13061523437,0.19665527343,0.006730927273378788,0.11224960699036586,-0.01745605468,0.26635742187,0.005977524339443139,1.1132858463125608,0.94045318542,1.2843362923,0.008054186900706996,973.9483772942954,973.94369418314,973.95394846199,1.1636573322913197e-05,5.366563726930594e-05,Null
-1.0726125616736841,-1.27111816406,-0.67456054687,0.022308306317517526,0.12920500102552634,-0.08032226562,0.421875,0.021690956510873844,0.15032958984052636,-0.15747070312,0.29040527343,0.012143558859306897,1.1066248662478948,0.70910304103,1.30660537991,0.02085047949745714,973.9361042864668,973.92554075205,973.94404923369,3.182840820418913e-05,-0.00020451905051343283,Null
-1.1169722707613154,-1.28857421875,-0.92602539062,0.010980527746259905,0.08154778731407895,-0.07507324218,0.30456542968,0.010740117406613034,0.10978618420539475,0.0009765625,0.224609375,0.0053458296624598846,1.1320955061497369,0.93071741869,1.30243479817,0.011552206165546553,973.9239799819334,973.91833830335,973.93065927548,8.284334490716535e-06,-8.308706872588345e-05,Null
-1.0034493927864356,-1.13586425781,-0.892578125,0.004273137346965872,0.14633088064247526,0.05078125,0.34216308593,0.004043424026190181,0.1640806292512871,-0.04138183593,0.30163574218,0.00927405815861529,1.0338240885688117,0.92582118274,1.14653735712,0.0036884527846645977,973.9304372921313,973.91833830335,973.93755375758,2.4830715700288664e-05,0.00011612321435767988,Null
-1.0046360746304253,-1.11975097656,-0.97033691406,0.0009687888938278273,0.11779915017968086,0.02844238281,0.15698242187,0.0008302829260771634,0.1303555103019149,0.04174804687,0.193359375,0.0008967525966018654,1.0208388612522343,0.99481972393,1.12088987776,0.0007257265841541976,973.935525011049,973.92868174031,973.9445543897,2.1785775344490687e-05,0.00014142230903731187,Null
-0.9962474149781176,-1.01135253906,-0.97314453125,9.4126077252987e-05,0.12625517003247055,0.1044921875,0.15356445312,0.0001540988015760059,0.11533059512458824,0.08410644531,0.16088867187,0.00048575695573276924,1.011133060705647,0.99210785373,1.02654396951,8.6726595413164e-05,973.9509407626058,973.94081825983,973.96361786767,3.174529607741873e-05,0.00019925503874270928,Lift down
-0.37276905980241376,-1.33557128906,-0.07800292968,0.19104455955125504,0.08327440283850575,-0.10363769531,0.73681640625,0.062489826154557254,-0.753589147805517,-1.13977050781,0.111328125,0.15468754028726187,1.0424570061928735,0.72030170498,1.53409437771,0.030956938875422172,973.9438192685485,973.92056153035,973.9778051942,0.00042216316432802165,-0.0006821153555791044,Lift down
-0.8006785175550494,-1.48449707031,-0.07849121093,0.20915639332996913,0.06455827467237625,-0.25390625,0.58093261718,0.04184201092332354,-0.1328777653162376,-1.01391601562,0.39392089843,0.23563688801247232,1.0494506965927726,0.50044921722,1.64206818728,0.05515701481489682,973.9393889050001,973.92095909999,973.96723647231,0.0002130383694466606,0.0003594531661867492,Lift down
-1.0007488807894382,-1.03759765625,-0.98559570312,0.00010708895292749016,0.0021369162566292135,-0.07873535156,0.10766601562,0.002500197468318772,0.13362858804044944,0.09313964843,0.19213867187,0.000662841104481647,1.0111729387167416,0.99528245236,1.05212152367,0.0001235490700553459,973.9644606778625,973.9559711481,973.97327930395,1.3334443770880474e-05,8.392276913208155e-05,Lift down
-1.003736877438625,-1.01916503906,-0.99304199218,3.147407942303414e-05,0.00720214843625,-0.02844238281,0.03991699218,0.000589942252891189,0.09383087157825,0.04663085937,0.14147949218,0.001119071902950479,1.008976398076125,0.99735202975,1.02171649082,2.9552188503071948e-05,973.9659656063443,973.96198973303,973.97176465202,1.1775094381594718e-05,-9.833625854849863e-05,Lift down
-1.0060004692541555,-1.01147460937,-1.0009765625,9.374816531657845e-06,0.04208889254844155,0.03393554687,0.05590820312,3.314776548892529e-05,0.07045042359597402,0.05725097656,0.08471679687,4.347113818861132e-05,1.009379782037143,1.00470471078,1.01499051302,9.13233335056931e-06,973.9504828687626,973.9426973646,973.96488951064,3.5931666280354936e-05,-0.00021922754763132742,Lift down
-0.9707656488154878,-1.00854492187,-0.95166015625,0.0003956112022733865,0.042708234084634145,0.03442382812,0.05187988281,1.9248165536926278e-05,0.07349079410902438,0.05895996093,0.08447265625,4.709224832000278e-05,0.9745087441408535,0.95492400347,1.01259446262,0.00040479719711274397,973.946824952148,973.93776740439,973.95899712225,4.435110598907859e-05,0.00020547450324909897,Lift down
-0.9949612759084158,-1.01782226562,-0.95593261718,0.00041274431912168507,0.04650516320772276,0.03686523437,0.05944824218,4.0770010791359184e-05,0.07831475285782179,0.06481933593,0.09948730468,6.719364976522979e-05,0.999180686968614,0.95986086536,1.02165027533,0.000401352305233372,974.0346240818816,973.96431184971,974.12730063548,0.0024776131649196435,0.0016869817056096527,Lift down
-1.0094074626506593,-1.01794433593,-0.99926757812,2.4587843883842346e-05,0.046223064042417585,0.0341796875,0.05700683593,3.952722408896168e-05,0.07367144573791208,0.04809570312,0.08740234375,7.628048879637167e-05,1.0132038972681316,1.0021976522,1.02137433365,2.446335708532317e-05,974.2328622601766,974.13729255113,974.33358488956,0.00382607124780448,0.0023338227375529915,Lift down
-1.0059137918826506,-1.02221679687,-0.99645996093,3.5555352890058234e-05,0.04585431569626506,0.0322265625,0.06286621093,4.256047064000849e-05,0.07326277766927711,0.05920410156,0.08947753906,5.0934647387360256e-05,1.0096660293051807,0.99967347715,1.0254714062,3.50365992391883e-05,974.4496626604281,974.34625595052,974.5504190128,0.004018980650622722,0.002621911213903707,Lift down
-0.9929653735835106,-1.54833984375,-0.69018554687,0.03542821925959486,0.10929578415670213,-0.12854003906,0.53588867187,0.025840343232463772,0.15786937956872338,-0.12036132812,0.44836425781,0.023431987587585162,1.0420848409412766,0.88076724228,1.5583214247,0.020929865396766216,974.6811213055232,974.56930319894,974.77135008025,0.0039332908045507636,0.002285525026089364,Lift down
-0.7646169760760825,-1.4609375,-0.20764160156,0.19271519105812604,0.17776835333216495,-0.25122070312,0.71130371093,0.061480553118634464,-0.3603163257077319,-0.95324707031,0.23779296875,0.16985452515197944,1.0515994065230927,0.60768195468,1.52456520108,0.06050967850618804,974.8710928620549,974.78246011652,974.9830354303,0.0030318025591892354,0.0019164201679300035,Lift down
-1.0031864560844828,-1.02648925781,-0.96899414062,0.00013491928385513246,0.006234004578275862,-0.09558105468,0.03039550781,0.0011710388689543814,0.09903410110931034,0.06335449218,0.21374511718,0.0017855115088934203,1.0095612856617242,0.9875234933,1.02978423739,7.246056570164218e-05,975.0953378584935,974.9830354303,975.21579502278,0.0045758055948564216,0.002667350035851779,Lift down
-1.0489548308898733,-1.0654296875,-1.03210449218,8.576475773546693e-05,0.01630797566898734,0.00024414062,0.03466796875,4.3184909688589565e-05,0.08293209799911391,0.07177734375,0.11987304687,6.898714327453513e-05,1.0524090924654435,1.03549063697,1.06883505321,8.14850286758253e-05,975.3141282259616,975.21579502278,975.39040770996,0.0028331998148898078,0.002296003856013285,Lift down
-0.997993870781842,-1.03466796875,-0.9775390625,0.00015366607328553408,0.06206311677499999,-0.05798339843,0.16491699218,0.006041588887303496,0.18329339278039475,0.10278320312,0.24365234375,0.0014720155560401529,1.0201768885246054,0.9945760122,1.04558696792,0.0002488401286325171,975.416285651022,975.39272411461,975.43594917933,0.00017346938206502582,0.000583735936570829,Lift down
-1.0057329963189412,-1.05505371093,-0.95007324218,0.0007172586829491142,0.10421357996129411,-0.0322265625,0.31958007812,0.01028762247277749,0.15383013556600003,0.08459472656,0.22192382812,0.0014538616568063648,1.0283765886841179,0.98955776867,1.08761935045,0.0007860495978289623,975.4384345458001,975.43077658614,975.44494149698,1.2136117227792107e-05,4.0413374232947725e-05,Lift down
-1.0044384765586,-1.01574707031,-0.99853515625,1.218599502172087e-05,0.0426000976528,0.0283203125,0.05712890625,5.4957884729698976e-05,0.10867065429360002,0.09448242187,0.12878417968,7.130968901499124e-05,1.0112597083487997,1.00455445762,1.02111193283,1.1721128837146604e-05,975.444936964029,975.44073506815,975.45003068648,8.533316549363944e-06,7.956554386953539e-05,Lift down
-1.0015502929645557,-1.01599121093,-0.98583984375,4.1843950740438395e-05,0.06107313367788888,0.03332519531,0.0888671875,0.0002753924266608266,0.12164713541211113,0.10095214843,0.14636230468,0.00013762350833665805,1.0109559862582223,0.99546899089,1.02664069134,4.928995037643561e-05,975.4522426084444,975.4485521323,975.4584015454,9.395445716761897e-06,-7.289713849626658e-05,Lift down
-0.998762921584756,-1.01550292968,-0.97509765625,8.518010090560528e-05,0.041724228275,-0.03344726562,0.13525390625,0.0022840957724346712,0.1536731254730488,0.11267089843,0.18383789062,0.00044575959301128255,1.0127120146137807,0.98865722018,1.02900415127,7.976825531797367e-05,975.4524077672136,975.44830937178,975.46094278298,9.345534032642195e-06,5.6914730844140175e-05,Lift down
-1.0035236791196906,-1.01220703125,-0.994140625,1.344911408341562e-05,0.09557098702958763,0.06994628906,0.11181640625,8.4091185934557e-05,0.0927382007056701,0.08032226562,0.11267089843,3.713181824834464e-05,1.0123810152634019,1.0025050333,1.01957557844,1.2049891658429911e-05,975.4585184507407,975.45362899461,975.46472294621,6.832998199942613e-06,3.114572844477856e-05,Lift down
-1.0038007100388542,-1.021484375,-0.99609375,3.666928561397502e-05,0.07279841104729166,0.04162597656,0.11315917968,0.000530363421610091,0.09843063354114583,0.08044433593,0.12194824218,9.558415039972154e-05,1.011549068300625,1.00363358086,1.02570640424,2.8558243004657693e-05,975.460022751393,975.45158773981,975.47000672696,1.7467834764372336e-05,9.963076029334398e-05,Lift down
-0.5491063317544184,-1.08715820312,-0.15063476562,0.1482711650516317,0.6758195743980232,0.060546875,0.99438476562,0.1161172120927884,-0.09475637036488373,-0.20959472656,0.1005859375,0.013111430033110003,1.017120509572907,0.82872687366,1.15155720133,0.007049536023989679,975.4497905494874,975.4331672701,975.46632571059,0.0001299528370244701,-0.00043277038758188647,Lift down
-0.19312149438602563,-0.21630859375,-0.16540527343,0.00021486386753726455,1.0003380408621794,0.986328125,1.01342773437,5.060934519146261e-05,-0.13590807792153847,-0.166015625,-0.10522460937,0.0002830094232044326,1.0280738153257691,1.01463445629,1.03832492607,4.9427972673294305e-05,975.4465832799801,975.43398122146,975.46566170935,0.00012763122332570215,0.00044575126883392727,Lift down
-0.18267661646460526,-0.26721191406,-0.15124511718,0.0008305388662491537,0.997802734371842,0.97497558593,1.02416992187,0.00016188144685605469,-0.06988364771565789,-0.20947265625,0.20385742187,0.013449869351389965,1.023700445493553,0.9953635288,1.05682076066,0.00015648356776806746,975.431464087647,975.41661442456,975.45356724557,0.00017693704976334295,-0.0005179165718656219,Lift down
-0.2822765672022892,-0.44738769531,-0.06274414062,0.008934068256979674,0.979349527010723,0.91650390625,1.04028320312,0.0006561598469810522,0.052385812780120486,-0.07238769531,0.20385742187,0.005344646417337909,1.0268678640785542,0.97242632986,1.13256678711,0.001869682114501462,975.4314146243424,975.41559752593,975.46353169955,0.00013363314307057204,0.00012762501937842494,Lift down
-0.20908106435227725,-0.2822265625,-0.05114746093,0.005000912343687921,0.9567532680965347,0.90319824218,1.02380371093,0.001111394202335326,0.2235747988819802,0.0517578125,0.34375,0.010456680832483063,1.0123743893938617,0.96338715044,1.05842221548,0.000586236194316175,975.4437766654972,975.43924349389,975.44961050025,1.1534876406705734e-05,9.363301319374765e-05,Lift down
-0.2678697374098889,-0.30822753906,-0.23132324218,0.00039993701843083694,0.8960923936592223,0.86767578125,0.92687988281,0.0003116782108077828,0.2941596137106667,0.25866699218,0.33959960937,0.0004193887654056481,0.9808180202702222,0.9537026734,1.02111361833,0.00038437172722324543,975.4775908146721,975.44678824712,975.54283938689,0.0007380254589571658,0.000998316159606182,Lift down
-0.48680464043289157,-1.01489257812,-0.26586914062,0.07244710428492285,0.7466276237733734,-0.0419921875,0.9443359375,0.07747689496820888,0.3415174369316868,0.18383789062,0.73559570312,0.014149014372136112,1.034482380021446,0.94936618523,1.17762197208,0.0030448469151974802,975.7087254693266,975.54283938689,976.723845209,0.062158940840218044,0.007268066773624509,Lift down
-0.8801053365041668,-1.21496582031,-0.615234375,0.030761219324145078,0.00311279296875,-0.16735839843,0.15979003906,0.01132373276414875,0.5016187032025,-0.09729003906,0.81555175781,0.07678772124563958,1.067699341159479,0.98684015863,1.21966011959,0.003909675215069322,975.7559378227055,975.38558748403,976.723845209,0.1357703594823818,-0.005542669168367101,Lift down
-1.0034586588495833,-1.06677246093,-0.974609375,0.0005150229261743871,0.1745694478315625,0.11364746093,0.22082519531,0.0009550531427559786,0.15083440144427082,0.10192871093,0.17858886718,0.0002605545269304284,1.0302209048211457,0.9998377728,1.08243984123,0.0005176716703495269,975.9479770565799,975.80488511622,976.02337387196,0.00442321002977892,0.002286057804807777,Lift down
-0.9910775118058137,-1.00805664062,-0.98193359375,3.2778216771220525e-05,0.15533305323127908,0.11596679687,0.1923828125,0.00020278648216665618,0.15018764761709305,0.13012695312,0.1640625,9.702325234292213e-05,1.014493198768721,0.9998377728,1.03355044925,5.219859288102632e-05,976.0396077048299,976.0267679192,976.04642500438,4.050970617283918e-05,0.0002317389306803147,Lift down
-0.9888352614142304,-1.01098632812,-0.97924804687,5.02748505997012e-05,0.15627660506384616,0.12060546875,0.17053222656,0.0001388899101073974,0.15141726762461544,0.14135742187,0.16857910156,6.122536314769744e-05,1.012590516287308,1.00235864266,1.03570139943,5.3046848216701683e-05,976.0418509579441,976.03136942762,976.04776349219,1.4724327115198134e-05,-0.00014365633828011736,Lift down
-0.9860133120856578,-0.99658203125,-0.97314453125,4.165063824423828e-05,0.13644891035789475,0.05310058593,0.16687011718,0.00044674687218222356,0.1706671463776316,0.15161132812,0.25939941406,0.00043752733031946704,1.0103724946106578,0.99690621096,1.0198393389,2.9381956937057842e-05,976.0311579474895,976.02541122841,976.037002774,1.1119474359974367e-05,-7.589225486841812e-05,Null
-0.9826660156215385,-1.20617675781,-0.89965820312,0.004300956876516865,0.13609431339730768,0.02526855468,0.24865722656,0.004315380421744105,0.23856999323519232,0.09606933593,0.32006835937,0.005657634126675232,1.0251711730327884,0.90528753572,1.23187805486,0.004271663438613807,976.0354116755747,976.02794446129,976.04157059435,1.560075824172524e-05,-2.733688785720545e-06,Null
-1.013223399283587,-1.27380371093,-0.85278320312,0.014111759279052805,0.14621104364456522,0.01977539062,0.31176757812,0.005733558558380399,0.1920298700715217,0.0009765625,0.31860351562,0.00744751863973595,1.0484204659430438,0.88778670945,1.28827605098,0.012824900024348577,976.032919151837,976.01978053416,976.05258330838,3.577825418530634e-05,-3.801842650984737e-05,Null
-1.0049918038461905,-1.30383300781,-0.80444335937,0.013009069561390607,0.16410609653666672,-0.09399414062,0.40344238281,0.011247458458516622,0.21317400250785712,-0.10766601562,0.33459472656,0.012484259691541677,1.0529238853589284,0.86760589884,1.31164300846,0.010158110978022942,976.027191002456,976.01783236021,976.03471703393,1.7380647834563727e-05,-1.4549755423535784e-05,Null
-1.0471615998601087,-1.20275878906,-0.93273925781,0.006664661730652728,0.08699367357000001,-0.22900390625,0.20788574218,0.016028614631550357,0.26567674719402173,-0.02575683593,0.40209960937,0.01578767818168432,1.0992765246184784,0.99230033503,1.22854559638,0.004401093154367569,976.0243743424238,976.01873316094,976.03492175185,1.2605927919931985e-05,3.5957027123174205e-05,Null
-1.0808205117949998,-1.29467773437,-0.93859863281,0.009759337838603067,0.11823630819153062,-0.20654296875,0.21960449218,0.009405291214258356,0.15940140704438777,-0.15283203125,0.3642578125,0.01960921666833389,1.1126105443008163,0.96989095318,1.3047490705,0.00812044448242067,976.0229001084688,976.01666674563,976.02940030992,1.5443989387888147e-05,-2.356902890086967e-05,Null
-0.9988666881172729,-1.00769042968,-0.98596191406,2.8764361919474866e-05,0.11059292879602273,0.06494140625,0.14392089843,0.00021182667840482816,0.1348821466575,0.10693359375,0.16540527343,0.00021171669473816235,1.0141861604894318,1.00014187134,1.02395646572,3.262044993142108e-05,976.020011307693,976.014008741,976.02496620193,8.516900817936271e-06,5.3288685320140516e-05,Null
-0.9921813192206327,-1.14135742187,-0.86926269531,0.0040448945679048545,0.1669952778849367,0.03771972656,0.32580566406,0.006353073003489662,0.12870537479860758,-0.01184082031,0.25891113281,0.004753460501095792,1.0195870752603797,0.90871441303,1.19059575763,0.004332947794645699,976.0273944714169,976.02192337295,976.03519928547,1.4503299454387834e-05,7.727436164090934e-05,Null
-0.5566615054448685,-1.04833984375,-0.02453613281,0.12064409470044386,0.726204320000263,0.25073242187,1.02893066406,0.034398246342239536,-0.18552438836157895,-0.52575683593,0.09265136718,0.037670184655144,1.0258091583130262,0.79143171316,1.16601272403,0.009683869332955371,976.0292266595906,976.00230397043,976.0861360122,0.00040641459267374815,6.906142858547577e-05,Null
-0.38168674044744444,-1.18347167968,-0.06506347656,0.10244543056062737,0.834225802947,0.45141601562,1.00402832031,0.030520805474830173,-0.18484971787822227,-0.373046875,0.21398925781,0.014617420060952038,1.007899961806889,0.85457649033,1.28788003729,0.005934317888583861,975.990058890414,975.97512076847,976.01049452258,0.00012134864221497554,8.330180799130947e-05,Null
-1.024401732161313,-1.23815917968,-0.84143066406,0.013419285871210633,0.16227090237868688,-0.00390625,0.46069335937,0.012044812595324937,0.16918082188727268,0.00207519531,0.27954101562,0.005933588637661301,1.0582390492279798,0.84144229014,1.28788003729,0.015722370369325625,976.0048821881061,975.9868029511,976.01485857345,4.586024290702733e-05,0.000195709221005439,Null
-1.017453248469885,-1.06872558593,-0.97021484375,0.0006291800379959781,0.130098890981954,-0.03344726562,0.23071289062,0.00554172025877838,0.19196749281172404,0.06079101562,0.43981933593,0.010008592057873182,1.0506313117572417,0.98886454561,1.15179883713,0.0011691590969182966,976.0186770160886,976.00940525723,976.02860046044,2.164821270973274e-05,0.00014650441699154437,Null
-1.002441406246543,-1.03405761718,-0.94616699218,0.0005741134285795898,0.0723801601045679,-0.03344726562,0.12670898437,0.0014709764515622034,0.10238233024407409,0.06079101562,0.1328125,0.00036142775216707363,1.01114519388,0.95470780134,1.04544161411,0.0005791565900823665,976.0378491054933,976.0304985285,976.04546503214,2.260107313851664e-05,0.00017002589820647241,Null
-0.997528378322277,-1.01123046875,-0.98291015625,5.696308790649843e-05,0.05127678294752476,0.00622558593,0.09338378906,0.00035078341422952895,0.15511631729247524,0.12939453125,0.17102050781,0.00011474261780650705,1.011050020295842,0.99828570917,1.02483799892,4.890252168357509e-05,976.038594391497,976.02653857513,976.04821116916,2.449971196452412e-05,-0.00014672022747371616,Null
-1.0015029086819354,-1.02136230468,-0.98803710937,5.726645125219427e-05,0.06880959130913977,0.02026367187,0.11535644531,0.0005675110410272896,0.12428857946462364,0.08837890625,0.16430664062,0.0005690622665244092,1.0120764050511828,0.99799436367,1.03381746196,7.363178853939068e-05,976.0230648316781,976.0156684378,976.02811907436,1.0647203629686995e-05,-8.589447680107937e-05,Null
-1.0013011259152942,-1.01525878906,-0.98962402343,3.7545445753264866e-05,0.09205824907658823,0.05529785156,0.11840820312,0.00027625232685215905,0.09756002986729413,0.07189941406,0.12194824218,0.00021405202083576202,1.0104841853037645,0.99680280693,1.02418759209,4.045236630667202e-05,976.0212826752487,976.0156684378,976.02659766173,7.295282149646623e-06,-1.1925899286940076e-05,Null
-1.000987805815,-1.00769042968,-0.99291992187,1.6468833929980953e-05,0.09271561471684209,0.08154296875,0.10144042968,3.364303655593818e-05,0.09998361687565788,0.09155273437,0.11767578125,3.4724209916746395e-05,1.0102663604326314,1.00212543336,1.01838405419,1.5298332261465555e-05,976.0178753597731,976.01013419179,976.02307531669,1.4160016070787308e-05,-0.00010495058990295589,Null
-1.0033654501232556,-1.01013183593,-0.99255371093,2.046456782588144e-05,0.09129298010267439,0.08215332031,0.09997558593,2.8481482233875486e-05,0.10382363962186049,0.0927734375,0.11108398437,1.965891849262948e-05,1.0128705503410464,1.00266392352,1.01838405419,1.7238800002271077e-05,976.0114251692819,976.0058675519,976.0149450418,5.470437259901078e-06,2.4148646443850205e-05,Lift up
-1.0042443847615998,-1.01794433593,-0.99340820312,2.199647853300365e-05,0.08527832030940002,0.07287597656,0.09655761718,3.667913300960287e-05,0.1087243652305,0.0927734375,0.11962890625,5.309511163948891e-05,1.0137496518041,1.00326581483,1.0267363954,2.2687187656988217e-05,976.013928942876,976.01064010576,976.01739824447,2.4117181626301986e-06,1.837775488371302e-05,Lift up
-0.9954399956553333,-1.03503417968,-0.94555664062,0.0006772012894974547,0.13575439452866667,-0.09240722656,0.40051269531,0.006122233844122298,0.25659993489200006,0.09838867187,0.52038574218,0.02584490608603612,1.0517206942913335,1.01066554419,1.14615546452,0.0013538171017372438,976.037321603782,975.88720640628,976.2188093816,0.006192351265747863,0.0001872027999023974,Lift up
-0.5974407431503703,-1.05932617187,0.46313476562,0.3160014969337509,0.4284939236083951,-0.16198730468,0.87976074218,0.0910398326803916,0.3072117934950617,-0.12121582031,0.51428222656,0.027225964078819588,1.013987828365432,0.63450370666,1.27606296197,0.03610192600618421,975.8816686358775,975.80687554838,975.91074392708,0.0011002918572302054,-0.001053408632226703,Lift up
-0.6087733677432652,-1.37329101562,0.12719726562,0.24037014923253494,0.6397642797317346,0.22863769531,1.30249023437,0.08481048228015153,0.1948790258270408,-0.24536132812,0.630859375,0.053917270382413784,1.0592287417841837,0.5447518962,1.50905962743,0.0718786659121456,975.7437746680357,975.53509483041,976.08368834016,0.01754723932033654,-0.0012723315894898047,Lift up
-1.0074642783691579,-1.54931640625,-0.46618652343,0.025711673361595935,0.2453600431701052,0.15539550781,0.48608398437,0.008665252395982037,0.17964509662442105,0.12731933593,0.58605957031,0.008279728372138667,1.0622190856301053,0.89020658167,1.62757273732,0.021583630666099713,975.4852880112454,975.40281882479,975.55989734369,0.0018851908364374088,-0.0015422378447350555,Lift up
-0.9850407090259302,-0.99475097656,-0.97790527343,2.109150921589141e-05,0.20815685183139532,0.19616699218,0.22192382812,4.070695750351495e-05,0.13566837753883723,0.12658691406,0.1552734375,5.144626922259396e-05,1.015940769192209,1.00870493623,1.02437668578,1.6859539406851666e-05,975.3021466679501,975.19869127867,975.40281882479,0.0037962649344405073,-0.0024595578400719896,Lift up
-0.9626274604276621,-0.98999023437,-0.93041992187,0.0004136237129315372,0.21042385348662343,0.19482421875,0.22265625,5.88044279751471e-05,0.1271306818144156,0.11938476562,0.13745117187,1.6911463297837544e-05,0.9935499757236361,0.96194118713,1.02247593385,0.0004391697268950649,975.0869543056413,974.98241639579,975.19869127867,0.003963648497789692,-0.002803274678256062,Lift up
-0.9651893707603614,-0.98852539062,-0.9375,0.00033177319794853375,0.20882553651686753,0.19384765625,0.22375488281,5.06322321800139e-05,0.12596185522903616,0.11267089843,0.14135742187,4.909256521740631e-05,0.9955639229855422,0.96705036115,1.01839311146,0.00034798213452575104,974.9256580403609,974.89695587359,974.98241639579,0.0006125860001876535,-0.000983927092340161,Lift up
-0.9814791537710889,-0.9873046875,-0.96862792968,1.9548570759524028e-05,0.21043229810871286,0.19641113281,0.22729492187,5.1355072760262725e-05,0.12964834080722776,0.12084960937,0.13635253906,1.755228137318055e-05,1.012157283098515,0.99887387376,1.0171943424,1.7157923521922197e-05,974.8865423446433,974.87173018732,974.90256405746,5.53647387642349e-05,-0.00023585045980954413,Lift up
-0.9875045608641759,-1.00720214843,-0.96899414062,9.450730895900757e-05,0.21158407022274728,0.16564941406,0.24426269531,0.000363494454001697,0.1290524660842857,0.10876464843,0.1552734375,0.00011440853933430379,1.0183336803483518,0.99015372134,1.04649467107,0.00015192050711560566,974.8733230403831,974.86497536221,974.87879035575,1.2042209136484285e-05,-3.028474547066093e-05,Lift up
-0.9770984184403658,-0.99597167968,-0.94860839843,0.00022613294189182683,0.1828628167837805,0.13464355468,0.216796875,0.0005110279623332418,0.17086717558731707,0.1181640625,0.357421875,0.0046151607165076216,1.011220165907683,0.99443285231,1.04382292812,7.749125824773196e-05,974.8740259186644,974.86766337197,974.88239496177,1.724141914670218e-05,6.314876876981246e-05,Lift up
-0.987372644165567,-1.12426757812,-0.93225097656,0.0016338185620833204,0.1143622644128866,0.01977539062,0.18212890625,0.0021221938821426515,0.21144214118567012,0.04370117187,0.357421875,0.008785207640601209,1.021535373663608,0.96172391299,1.14356332673,0.0015849946978482151,974.8764406379373,974.87218550094,974.87950952442,5.536214360270056e-06,-1.927512700194754e-05,Null
-0.9877492804236842,-1.1787109375,-0.88586425781,0.0043809835314717995,0.1424933182532632,0.03173828125,0.22705078125,0.00248875106704879,0.18054327713421062,0.04565429687,0.29272460937,0.006370911095634417,1.0186480535033682,0.89489679488,1.19017992536,0.004048895159289268,974.8756536726321,974.87123024491,974.88029252559,6.3991723965868065e-06,3.5230764439933954e-05,Null
-1.0143077761583719,-1.23498535156,-0.87719726562,0.011243617926139357,0.14827568586034887,-0.0859375,0.31665039062,0.0074462373260830465,0.16007392350651165,-0.0693359375,0.30114746093,0.009513686489145294,1.0455335635375578,0.89538488511,1.26473459664,0.011296116064215867,974.8720776425779,974.85696189534,974.88777330997,5.8855914800414604e-05,-0.00019555806060654967,Null
-1.0366555238346153,-1.18896484375,-0.97155761718,0.002720252607353255,0.12310165013705131,-0.05432128906,0.32348632812,0.008829233184671142,0.26618840143730776,-0.02392578125,0.61022949218,0.024868227921031705,1.0915063291146152,1.00760404515,1.2647891699,0.005297628181511726,974.8645918570912,974.85606598993,974.8699186738,1.3554987563225728e-05,-5.6936002008557313e-05,Null
-0.9960183536274511,-1.00952148437,-0.97802734375,6.248633580829754e-05,-0.05174345128303923,-0.09716796875,-0.00439453125,0.0005854448747323783,0.1620184206460784,0.12072753906,0.21691894531,0.0003477997963367982,1.010889450090882,0.9936529211,1.02655442813,6.908002696666924e-05,974.8646054752826,974.85888041694,974.87125426521,1.0612542136764005e-05,9.550676734261835e-05,Null
-1.0132623487870966,-1.50671386718,-0.716796875,0.030920591252289017,0.009434853830215053,-0.40270996093,0.2763671875,0.032403829815831516,0.19209404401591396,-0.01745605468,0.36950683593,0.013714863808145074,1.054461892334946,0.75045894448,1.52083346996,0.028315213426475007,974.8764813432041,974.86570120105,974.8948353122,6.492376813983534e-05,-6.033002171217682e-05,Null
-1.0459187825482144,-1.34411621093,-0.8505859375,0.014057534585891917,0.09123593284595237,0.00109863281,0.20581054687,0.003409802956474941,0.1363728841111905,-0.01196289062,0.27099609375,0.006944449850311155,1.0639272881835713,0.87509333589,1.35463747374,0.013204754440237497,974.8615642585636,974.84906654785,974.8728954061,2.8190567963489563e-05,-8.377181291541429e-05,Null
-1.0589214124147366,-1.23498535156,-0.90148925781,0.007330944329855443,0.10722656249715788,-0.10656738281,0.22314453125,0.007994717866529364,0.17439093338494735,-0.05871582031,0.32678222656,0.009566787802842537,1.0866192491638949,0.9387977122,1.27813839474,0.007188996220477173,974.8549980964483,974.84101849322,974.86458416437,3.185332343619042e-05,3.2054506074461154e-05,Null
-0.42824427286572925,-1.45837402343,0.32531738281,0.37353399426773787,0.5666605631473959,-0.06433105468,1.18432617187,0.18723913765792147,0.14296722411885415,-0.40454101562,0.60375976562,0.05257483165802476,1.0515355714883332,0.7956324876,1.47192472912,0.026094760177567383,975.4914796207216,974.25781537509,980.24741539088,2.1306005573466114,0.026316026589191344,Stairs up
-0.4372558593722989,-1.56860351562,0.205078125,0.2736008080618827,0.633608061687701,-0.21313476562,1.18896484375,0.1342132808368404,-0.06561630073540228,-0.48950195312,0.53747558593,0.07895536264456121,0.9649132927881611,0.2449098295,1.76376242421,0.14878426303554734,974.1607359600705,973.4375685184,975.62292070074,0.27768647273444674,0.0008282395329419553,Stairs up
-0.36668826372128205,-1.09582519531,0.37683105468,0.25612886856843037,0.7379745092115383,0.37622070312,1.09973144531,0.03549128064243288,-0.04809570312641025,-0.53295898437,0.54431152343,0.11585251464210491,1.0233166788233332,0.68801187836,1.38971029694,0.03692488175909424,974.6001324597318,974.39520585529,974.86269593701,0.013383569139964122,0.0005655477421564621,Stairs up
-0.8795796488632968,-1.14685058593,-0.62573242187,0.025200246229129943,0.5038499098518681,0.27917480468,0.79479980468,0.014727699527276652,0.0327389895254945,-0.15710449218,0.25463867187,0.013238366185994827,1.0263578113796703,0.69895133973,1.29529066861,0.028077182023900256,974.6888708076374,974.66351249304,974.69887077963,4.147027618432077e-05,4.11833024764287e-05,Stairs up
-0.4802719427597959,-1.17077636718,0.51843261718,0.26539026941887645,0.72184535435,0.44543457031,1.17687988281,0.03092219265741008,-0.06699916294469388,-0.69323730468,0.22521972656,0.03895809846941539,1.0230895988544897,0.71637734341,1.46095742502,0.041774113995339444,974.6475670053651,974.5522675449,974.67970726813,0.00148824040887627,-0.0010414091410640386,Stairs up
-0.2922418767761364,-1.83325195312,0.53881835937,0.7273050525724176,0.6402393687817045,0.17590332031,1.17687988281,0.08540911232086673,-0.28039134632159096,-0.74047851562,0.39526367187,0.14014974936632196,1.1871144447422728,0.50613479775,1.93747223557,0.10795302015918071,974.5511274779142,974.43871666271,974.75430038028,0.00799511978511858,-0.002221291690735508,Stairs up
-1.1722597532599999,-1.40539550781,-0.9111328125,0.01374198423297125,0.08483732199240507,-0.12585449218,0.34899902343,0.02245550831612574,0.13662294798037972,-0.15295410156,0.37878417968,0.029779062312410468,1.2044166442601263,0.9596586479,1.45779543618,0.014764984392609391,974.5041919378875,974.49181458523,974.51017785072,1.9529621445813746e-05,-7.72988251258822e-05,Stairs up
