avg_accX,min_accX,max_accX,var_accX,avg_accY,min_accY,max_accY,var_accY,avg_accZ,min_accZ,max_accZ,var_accZ,avg_magnitude,min_magnitude,max_magnitude,var_magnitude,avg_pressure,min_pressure,max_pressure,var_pressure,slope_pressure,Label
-0.9503646358322579,-0.95715332031,-0.94360351562,1.5145745048481e-05,0.26604502687709675,0.25231933593,0.27807617187,3.473540439980363e-05,-0.2278225806413979,-0.23950195312,-0.216796875,5.030280910786632e-05,1.0128933992072044,1.00532106235,1.02094788622,2.2334329605903402e-05,980.0358464006074,980.0261798922,980.04707125092,3.190317932145728e-05,0.00017146865193167908,Null
-0.9514721679647999,-0.95983886718,-0.9345703125,2.4575904151803555e-05,0.27665283202739993,0.26171875,0.29113769531,6.225410737340976e-05,-0.226655273433,-0.23779296875,-0.21606445312,2.46110347713882e-05,1.0165138972234002,1.00183378404,1.02314339117,1.869923675786146e-05,980.0341094671385,980.02793700757,980.03986834509,1.3967116797779919e-05,-6.523047667708281e-05,Null
-0.9662084960888001,-1.05041503906,-0.92114257812,0.0011215202074256734,0.29711181640280004,0.20690917968,0.39001464843,0.002798042760914752,-0.12231689452720003,-0.24011230468,-0.00012207031,0.005531436560106087,1.0226110403288002,0.98360028889,1.07624795855,0.0004230927087649786,980.0660378930236,980.01323682914,980.16889358426,0.0019051186961126397,0.0008327166265381676,Null
-0.9511816406212,-1.00158691406,-0.90930175781,0.000353018346430739,0.2897729492138001,0.12866210937,0.40979003906,0.008293702560309951,-0.20175537108979996,-0.25280761718,-0.15075683593,0.0010575708054409432,1.0192720063554,1.00174142783,1.0380290564,0.00011306179010465086,980.013387144206,979.94040091311,980.05994384972,0.0011283836213805856,0.0009135810856995961,Null
-0.9516210937465999,-0.96630859375,-0.94177246093,4.2539317210240084e-05,0.2764794921832,0.24133300781,0.31420898437,0.0006648264991147945,-0.22129638671500002,-0.23803710937,-0.1953125,0.00011378828323346686,1.0157515955893999,1.00376800594,1.02887744066,5.7924291796414406e-05,980.0372928784958,980.01336975762,980.05078770499,0.0001275211736314321,-0.0003308383136583772,Null
-0.9777880859339999,-1.19372558593,-0.87048339843,0.006057451445560189,0.28641357421560004,0.22302246093,0.33947753906,0.0009156774089852893,-0.16906982421539996,-0.2353515625,-0.07153320312,0.0029914671062716103,1.0352377181449999,0.90999357873,1.23123411565,0.004883534223636197,980.0670647515664,979.90528456461,980.18679453623,0.004558796962772557,0.001184934058627399,Null
-0.9488403320282001,-1.173828125,-0.76904296875,0.017814186636722597,0.2884204101514001,0.13610839843,0.48083496093,0.011978116788006345,-0.09187744140340001,-0.19506835937,0.03601074218,0.005223897135175298,1.0030485660176003,0.80448804624,1.23612920839,0.02069230876766697,980.0116959331001,979.90528456461,980.14784040147,0.004525112218869412,0.0002993133246318193,Null
-0.9974707031218,-1.166015625,-0.89038085937,0.0042555567230982425,0.22385742187140004,0.04333496093,0.35949707031,0.00876321958763607,0.0822851562488,-0.21301269531,0.44372558593,0.032024023411312386,1.0456070241253999,0.90928753337,1.18626337537,0.0031607259355307315,980.0153796939336,979.93410455542,980.13899161446,0.0029948710127910183,-0.0005373309639308041,Null
-0.9653857421847999,-1.01953125,-0.90185546875,0.0007627342445745881,0.2665991210904,0.18981933593,0.35021972656,0.002045739473810221,-0.1154296874964,-0.18029785156,-0.00524902343,0.0019883898773800776,1.0102236081392,0.94205776004,1.05047944141,0.0005716079302431332,980.0394667598943,979.97706792841,980.09608923962,0.0010812549299763653,0.00024339881235142834,Null
-0.9697631835902001,-0.98120117187,-0.96228027343,3.499831214017063e-05,0.27386962890160005,0.18981933593,0.34143066406,0.0013278958833982829,-0.1324218749962,-0.18322753906,-0.11291503906,0.00037508059030368134,1.0171465798574,0.9996579673,1.04034216677,0.00011534240553618056,980.0328038655877,979.96168279654,980.0951355667,0.002169414547460753,0.0008729501093557917,Null
-0.9635644531201999,-0.9716796875,-0.95837402343,1.637335979779386e-05,0.274619140622,0.24560546875,0.29211425781,0.0001850455939299218,-0.1729589843716,-0.18347167968,-0.16418457031,4.5006708662292364e-05,1.016864259914,1.00998998101,1.02606010743,1.815788464308155e-05,980.0645019743025,980.02007187374,980.10294565498,0.00044808125085867896,-0.0006775627747419125,Null
-0.9676831054645999,-0.97692871093,-0.96118164062,2.3961554862354376e-05,0.24244873046479995,0.20727539062,0.26794433593,0.00026354465220767626,-0.18778076171480002,-0.21569824218,-0.17199707031,9.147762648251249e-05,1.0152678056521998,1.00231858516,1.02893043958,6.0677553178756e-05,980.0935688221122,980.00897200045,980.17116179211,0.002452448602472958,0.0005803250464395968,Null
-0.9661853027317,-0.97802734375,-0.95629882812,2.7172642228503326e-05,0.24861694335590007,0.23742675781,0.25769042968,3.064673808146162e-05,-0.1912499999968,-0.21313476562,-0.17456054687,5.604524805588946e-05,1.0158707820121,1.00567370432,1.02673141738,2.047118393700173e-05,980.0088945664108,979.98320035085,980.07661420483,0.0005148027567398617,-0.0001575113739550999,Null
-0.9668530273403999,-1.00744628906,-0.92114257812,0.00045662017184717747,0.24951049804340003,0.1552734375,0.30444335937,0.002249415021564827,-0.11442382812190002,-0.19116210937,0.06115722656,0.005742597916807312,1.0088570956061,0.94109779464,1.04455931603,0.0007319040183310893,980.0185541582186,979.94228815311,980.06270864264,0.0008162404888275265,-0.0002630088772169314,Null
-0.9810963640276767,-1.21545410156,-0.78283691406,0.015070970268274465,0.227896642199192,0.09204101562,0.36218261718,0.008177557542587244,-0.09017296993101011,-0.1611328125,0.01123046875,0.002847926791350888,1.0161117248782827,0.8046370833,1.27034800152,0.016130874279057184,980.0241393460328,979.90832405894,980.14990640568,0.004939198189909808,-0.0006679976017067499,Null
-0.975754095579796,-1.2041015625,-0.76940917968,0.016147799871397046,0.2293402224139796,0.07690429687,0.42749023437,0.011653058326497372,-0.12441082389612246,-0.17468261718,0.0234375,0.003143739155053837,1.017100790497755,0.81922122484,1.22522298598,0.016473965573674063,980.0230977100815,979.91840220678,980.21525538974,0.006876266791151799,-0.00019606725781101637,Null
-0.9860241948298981,-1.19885253906,-0.77917480468,0.017563400270147717,0.23850421515908166,0.07397460937,0.45056152343,0.01231306177604724,-0.08261295240561224,-0.19714355468,0.04443359375,0.005373619512272943,1.0248059324173466,0.79680392004,1.26442998229,0.018637324119288052,979.9989826937814,979.87152645173,980.1650303406,0.006814483707833847,-1.5828269289756958e-05,Null
-0.9875971476211457,-1.15551757812,-0.80517578125,0.008851517338163188,0.21749496459624998,0.07971191406,0.45153808593,0.010508369992476833,-0.03991063435875,-0.19897460937,0.171875,0.008700154131295686,1.0209621433827083,0.87139327198,1.24557102085,0.009750664914643688,979.9963089110312,979.91466791417,980.08047116686,0.002334399548776496,0.0007892939685687522,Null
-0.9789466857879167,-1.09289550781,-0.912109375,0.0017829568616033154,0.28072611490479166,0.16284179687,0.47839355468,0.007161083634396646,-0.05484517415197917,-0.18322753906,0.21984863281,0.010569099035797627,1.0285914937009375,0.99021144893,1.14566180794,0.00147655586870331,980.0585686342638,980.00634045143,980.11891613903,0.001358724462439012,0.0009766267974784918,Lift Down
-0.9654528166085263,-1.03332519531,-0.90319824218,0.0011717726242220484,0.259137284123579,0.18835449218,0.34143066406,0.0015508947755194598,-0.1282933285329474,-0.197265625,-0.07385253906,0.0018003018544713633,1.0097406292587368,0.96746363141,1.0664581873,0.000616157814645785,980.0239606876346,979.96988951864,980.0676171498,0.0008897116077892834,0.00019815351978855772,Lift Down
-0.9696558902103157,-0.98010253906,-0.95751953125,3.874098333241222e-05,0.25030196340168426,0.17797851562,0.3017578125,0.0007317569795193457,-0.15575786389400004,-0.17687988281,-0.13232421875,0.00018282946520214644,1.0139445426584208,1.00125922701,1.03421320874,6.73646241925038e-05,980.0299106429204,979.97086271159,980.10073149181,0.001906928751478289,0.0014017764177683067,Lift Down
-0.9661904611858063,-0.99206542968,-0.93298339843,0.0002427066965001164,0.28456427460978495,0.17797851562,0.43859863281,0.003691795386131037,-0.11744607904505378,-0.18078613281,-0.03540039062,0.0019403948244658773,1.0168738866724734,1.00392914534,1.03492850911,7.444016305616334e-05,980.017541719613,979.92228340468,980.06609581439,0.002362038687257653,0.000778026559718741,Lift Down
-0.9692252950434043,-0.97485351562,-0.96264648437,8.40889128438663e-06,0.23667355800840434,0.228515625,0.24328613281,1.2025922308431576e-05,-0.17827460106021278,-0.18640136718,-0.16882324218,2.6477116841655336e-05,1.0135046319420213,1.00558862838,1.01950237627,9.329698172745225e-06,980.037573055853,980.01374174877,980.05324619949,0.0001307328578319675,-0.00035527678472401794,Lift Down
-0.9676098113319147,-0.97570800781,-0.9609375,1.588449464078067e-05,0.23904743599978717,0.22106933593,0.25427246093,8.471146844696343e-05,-0.18002124542510642,-0.19763183593,-0.15673828125,7.405594326618666e-05,1.012896827010851,1.00270828433,1.02434722129,3.3237782833352037e-05,980.0350025917788,979.96548029438,980.14146006665,0.0025995841099357418,-0.0008538444021581409,Lift Down
-0.9668047505007527,-0.970703125,-0.96105957031,5.47870554574739e-06,0.2465059013733333,0.23669433593,0.25549316406,2.3669494880624195e-05,-0.17571430821247314,-0.18481445312,-0.16430664062,4.050573451660519e-05,1.0131206172821507,1.00731316105,1.01861195389,7.705775282501888e-06,980.0117970003358,979.98000370698,980.02308474787,8.666488654595162e-05,0.0002863572137331976,Lift Down
-0.9701544510649474,-0.97778320312,-0.962890625,1.1102276179421075e-05,0.2452045641411579,0.23547363281,0.26379394531,5.68329220045434e-05,-0.18451377466705265,-0.19763183593,-0.166015625,0.00010994102423691679,1.0176126548115791,1.00921079197,1.0234905331,1.0873303434965558e-05,980.0271528625171,980.00541670778,980.04219685136,9.24612249524905e-05,0.00019112987075085486,Lift Down
-0.938785634138085,-0.97302246093,-0.91027832031,0.0004072544081826958,0.2294389440618085,0.20837402343,0.25830078125,0.0001750196047188668,-0.18248213097946808,-0.20007324218,-0.16870117187,8.513769413321408e-05,0.9835741102526596,0.95490702557,1.02225089261,0.0005081106992465866,980.01881980833,980.00591992589,980.03645794818,8.561642390930275e-05,-4.2333057721669556e-05,Lift Down
-0.9466460853466666,-0.9736328125,-0.91174316406,0.0004574631337440786,0.23618767850795697,0.20837402343,0.25830078125,0.00028617678333553524,-0.17969800066881722,-0.18859863281,-0.17077636718,2.3041942820912594e-05,0.9921477599045163,0.9520812182,1.02420423629,0.0006227586384510781,980.0931759008328,980.03526202761,980.17375973723,0.0016159205940050134,0.0014742049739590553,Lift Down
-0.9680865743843478,-0.97631835937,-0.95971679687,2.005640765144009e-05,0.24908049209750005,0.24487304687,0.26013183593,1.2737856815190255e-05,-0.17780204440891306,-0.19140625,-0.16357421875,4.376204594709654e-05,1.0153339453508696,1.00786689493,1.02339336067,1.9186185434967233e-05,980.2833771295606,980.17375973723,980.40021141998,0.004148420759440561,0.0024010355355791814,Lift Down
-0.9653759216951685,-0.97094726562,-0.95703125,1.4315358339998053e-05,0.25313130924808985,0.24206542968,0.2666015625,3.6515329759734776e-05,-0.18201918012235954,-0.18835449218,-0.17663574218,1.052158967421815e-05,1.0144949213339325,1.00611321662,1.02099939945,1.8031965051026024e-05,980.5043594425385,980.40021141998,980.62871233181,0.00371655097603568,0.002338794689553312,Lift Down
-0.9893965287601136,-1.02368164062,-0.96069335937,0.0005247459952008797,0.25462618740795456,0.24304199218,0.26342773437,2.831427522349347e-05,-0.18343422629249997,-0.1904296875,-0.17626953125,1.191694090869218e-05,1.0380193227751136,1.0093895232,1.07335867696,0.00046786097658732,980.7237166571193,980.62871233181,980.82090188785,0.004024808882731389,0.0024656156793885276,Lift Down
-0.9943209561402273,-1.02307128906,-0.96496582031,0.0004451285070760604,0.24047712845806818,0.22448730468,0.25073242187,3.0752055374610326e-05,-0.18981517444613638,-0.20629882812,-0.17919921875,5.1561254483983674e-05,1.0404715940511364,1.00991873991,1.06963278774,0.00047896651544231046,980.8946564044928,980.82090188785,980.92369640912,0.0006844217813325697,0.0009345913914100975,Lift Down
-0.9713106703441379,-0.98779296875,-0.96704101562,2.3317190458181992e-05,0.23467526490229892,0.22497558593,0.24060058593,1.5335652931795993e-05,-0.1827911727697701,-0.189453125,-0.17224121093,1.7695521264261765e-05,1.0158551695729885,1.01044313733,1.03294137043,2.3759353918225656e-05,980.9487352836582,980.92369640912,980.97698833434,0.00020520927711972225,0.000551768974122601,Lift Down
-0.9679361979125285,-0.98779296875,-0.95678710937,4.394791384402489e-05,0.23311360676747128,0.22485351562,0.24133300781,2.3381192556701187e-05,-0.1897730334013793,-0.20397949218,-0.169921875,7.816914949633269e-05,1.01358233604069,1.00099237196,1.03294137043,5.150705967590217e-05,980.9776209300447,980.96515130979,980.98737486664,3.421428016570874e-05,0.00016648796143737675,Lift Down
-0.9646649027941858,-0.97924804687,-0.95739746093,2.376040909609271e-05,0.2392251657852326,0.18688964843,0.26318359375,0.00035025632542569845,-0.1849194903673256,-0.19689941406,-0.17028808593,4.717958772915201e-05,1.0111432742077904,1.00566839238,1.01722504682,7.942616244615619e-06,980.9775592519679,980.96342453374,980.9841394225,2.5476396724584527e-05,-0.00012510759388528045,Lift Down
-0.9942215320638372,-1.12255859375,-0.88928222656,0.002653532733153166,0.19249352743081397,0.04931640625,0.34594726562,0.0057717371083913244,-0.10276333120895348,-0.17321777343,-0.03344726562,0.0021435744131715513,1.0219830918232558,0.9587180162,1.15928799798,0.0021115791524208014,980.9767908127264,980.86389831052,981.06438986402,0.0032670884733476432,-0.0011061414388250346,Lift Down
-0.9777228860268236,-1.11865234375,-0.84326171875,0.0055011871396946615,0.21034150964658832,0.04321289062,0.341796875,0.009835664861231974,-0.0656953699415294,-0.14624023437,0.06396484375,0.004480727788728929,1.009136547003647,0.854275398,1.15413985499,0.005797541839948207,980.9887132940343,980.88603924232,981.10363777899,0.003012510750043103,0.00022318422301995406,Lift Down
-1.003580250455294,-1.17980957031,-0.84130859375,0.00827627713769908,0.21932157628305884,0.04321289062,0.40368652343,0.008863707103899627,-0.06320657168811765,-0.17468261718,0.08239746093,0.004615166035895439,1.0356636886075297,0.88782699162,1.22027719009,0.0082675402454349,980.9704237306098,980.87965813715,981.14294050181,0.007531299314734586,-0.00015399700210669704,Null
-0.9700099400085713,-0.98510742187,-0.94750976562,7.829363113105642e-05,0.29207502092261906,0.2509765625,0.34448242187,0.0008141549813972421,-0.04102870395773808,-0.09887695312,-0.00708007812,0.0004126537341380758,1.0144607376324999,0.99280646684,1.02883829255,7.026987092915644e-05,980.981626618092,980.92411033681,981.02702720258,0.0007859224471190168,0.0009800722967377709,Null
-0.9891473679283332,-1.07019042968,-0.91198730468,0.0010460836409369248,0.2209399995315476,0.05432128906,0.30639648437,0.005249473830032066,-0.057378859745595236,-0.16088867187,0.05651855468,0.0028188422156325494,1.0190553734483332,0.95741318847,1.11033710883,0.0010640403379478798,981.0080927204439,980.92621288407,981.06005470681,0.0006438372901214599,-9.556058764583931e-05,Null
-1.003365022586024,-1.32019042968,-0.81323242187,0.012877582119822581,0.23717379282397588,0.0654296875,0.35144042968,0.006570881380808949,-0.04821041980168675,-0.1376953125,0.07885742187,0.003381229882048282,1.0364332807443373,0.82263535004,1.37253717373,0.01384451390366135,980.9770713368043,980.84945073073,981.04657517931,0.002647777407993433,-0.0008616950929361524,Null
-0.9600859492624095,-1.22082519531,-0.74377441406,0.02601587044625423,0.22851415426939758,0.0693359375,0.4970703125,0.017042177295504918,-0.05255788779831323,-0.1640625,0.09924316406,0.004538752775367426,0.9976597621193974,0.75361021683,1.31900385045,0.02879130760417306,980.9507010498369,980.8480891048,981.19391978807,0.008534559577388329,0.000547331088975328,Null
-0.9629876929557832,-1.20788574218,-0.732421875,0.021195700531621967,0.2732389518979518,0.154296875,0.40612792968,0.006098416051710595,-0.025150896553975913,-0.15209960937,0.06665039062,0.0032502854179021455,1.0051713571061442,0.76597838128,1.22349026299,0.02271804055833612,980.9672842972418,980.82591431163,981.16644504143,0.009979281317404989,-0.00039330503022314657,Null
-1.0157666618408643,-1.27844238281,-0.83068847656,0.015124087950912754,0.1959017529860494,0.03674316406,0.349609375,0.010436582114744576,-0.017074773340246912,-0.11022949218,0.16809082031,0.005971114852009131,1.0424298888001235,0.84478475557,1.28261891947,0.015120053903200942,980.9334024893137,980.84857708212,981.06689699672,0.003690707176559987,0.0004080913580637253,Null
-0.9802588486063415,-1.17980957031,-0.80334472656,0.0075204873801432625,0.138850514477439,0.02160644531,0.29711914062,0.005586576018350777,0.017661490091097562,-0.11547851562,0.15258789062,0.005005739307945698,0.9954724040291464,0.81584545203,1.19195122683,0.007517083303260356,980.912080033121,980.82202890118,981.0375094778,0.0031495071993208417,-0.0006874687946491131,Stairs Up
-1.0120774257298766,-1.15637207031,-0.87817382812,0.0056546976214820925,0.17001079041,0.04382324218,0.37329101562,0.008666563038918577,0.03749367042691358,-0.07263183593,0.16149902343,0.004398058768337238,1.0329444455392593,0.89259786604,1.17120532928,0.006200700858534335,980.848701197522,980.76148141027,980.94378090065,0.002039696703283701,-0.00032339078617979374,Stairs Up
-0.999508704664074,-1.17797851562,-0.85034179687,0.007474223515278916,0.13458628713037038,0.00610351562,0.30212402343,0.008756334739512268,0.03838885271950617,-0.04541015625,0.15979003906,0.003738946508683949,1.015253782114568,0.86342255484,1.17931582425,0.007682393328265175,980.8142621094782,980.72799291038,980.95046654123,0.0039411851600188895,0.0002313339389732905,Stairs Up
-0.9865585327107501,-1.171875,-0.86389160156,0.00850383163777035,0.1630645751915,0.05541992187,0.30834960937,0.006847234004253143,-0.001979064941,-0.06970214843,0.08154296875,0.0025629166156591675,1.0043947501605,0.8860409032,1.18598036405,0.0088840042257349,980.7445105072366,980.65951565187,980.87933654701,0.0039014918851108605,-0.0005662876517134459,Stairs Up
-0.9950692864872152,-1.17260742187,-0.86645507812,0.006300520979991079,0.20958545539556966,0.07592773437,0.39013671875,0.009189114269824055,0.005301560028607595,-0.0546875,0.10815429687,0.0029955573887093037,1.0230211759535444,0.90220010117,1.18123700523,0.005870237777508627,980.647305324744,980.58488125354,980.78082189192,0.0035370135579482964,-0.001255409420409358,Stairs Up
-0.9903411865203751,-1.20739746093,-0.80810546875,0.010323510281337248,0.17294006347212498,0.0341796875,0.39965820312,0.009165634827992576,0.029447937011000003,-0.08020019531,0.17651367187,0.005892311939029185,1.012801997235875,0.82223250623,1.2111698666,0.01098472455192179,980.5755924673351,980.49025974255,980.73931279751,0.004580667953657153,-0.00022641910369987058,Stairs Up
-0.9698609943605062,-1.16149902343,-0.82531738281,0.006811620178455461,0.2227335096879747,0.03491210937,0.390625,0.013567236439087624,-0.01625080349848101,-0.09582519531,0.08435058593,0.002002650104343845,1.0025295511927848,0.85123036408,1.16549620568,0.007633981504948069,980.5333768057668,980.42262433692,980.70549321104,0.0060800764405847885,-0.001505108092989625,Stairs Up
-0.9834359975916663,-1.20861816406,-0.826171875,0.010764562196483397,0.24658829126230758,0.11059570312,0.45092773437,0.010265735409905533,-0.04985946263794871,-0.1728515625,0.10083007812,0.005227992150260364,1.0232854171394876,0.90698536272,1.24788891623,0.009366800029064188,980.517490056334,980.40699169218,980.77004131232,0.008783663274413666,-0.0006767686070590001,Null
-0.9769224509174359,-1.21020507812,-0.84985351562,0.008828821854821164,0.2910218850121795,0.115234375,0.40747070312,0.006226588726547108,-0.05351374699282051,-0.1728515625,0.10278320312,0.004801928312059576,1.0255604712478203,0.9215665479,1.26204269195,0.009890208767936363,980.4862417078774,980.38460263796,980.62158905182,0.002923919583643986,0.00034925683530268167,Null
-0.9842216296032051,-1.04699707031,-0.91198730468,0.0013344901087151953,0.24001370943192304,0.10571289062,0.36853027343,0.005855703917960902,-0.0031550480758974356,-0.19836425781,0.29846191406,0.0238167434831314,1.0277225884238461,0.95790745854,1.06930222131,0.0007135937742573118,980.5081176274109,980.43448542525,980.58666571975,0.0018452980578925924,-4.245769211288423e-05,Null
-0.9800391259090909,-1.0009765625,-0.96960449218,5.9177848231476296e-05,0.25233835987844155,0.22998046875,0.28540039062,0.00014669058546047022,-0.07672515472415584,-0.1201171875,-0.056640625,0.00021644037978928927,1.0150840738545452,1.00301696486,1.03416380901,6.001221439431864e-05,980.4692245150192,980.44238908226,980.50808515086,0.0003292716471990445,0.0002865272626447181,Null
-0.9742067014990909,-1.02490234375,-0.96057128906,0.00020692500039248154,0.26276823761831175,0.19189453125,0.29150390625,0.0005191142071512097,-0.09399889660805193,-0.13830566406,-0.06604003906,0.0002756014629473439,1.0138158724727273,1.00500345201,1.05184446666,0.00012932512660292445,980.4834724775415,980.46650521619,980.52400133676,0.00015340043809874003,4.807511097042914e-05,Null
-0.985139128445714,-1.17736816406,-0.76599121093,0.014346257010022836,0.2841067623749351,0.12072753906,0.509765625,0.011993982391819659,-0.06277109121129869,-0.19262695312,0.08654785156,0.00503438539514546,1.0343245190737662,0.81717157767,1.26766146957,0.016510336041419202,980.5114790465932,980.33370980089,980.65841099431,0.006219395793238571,-0.0009488919870009612,Null
-0.9513116133803946,-1.18811035156,-0.74133300781,0.02060043680812152,0.2672295821298684,0.10302734375,0.50085449218,0.01026452291145294,-0.04662925318539474,-0.14636230468,0.11938476562,0.006063118176457141,0.9963481490567104,0.77023881246,1.27196438543,0.02260976751600975,980.4684404424809,980.35258437186,980.66619617616,0.009518292455976421,2.404043647159101e-05,Null
-0.9681059184788156,-1.19604492187,-0.77709960937,0.01508827749833344,0.2838070518053947,0.12023925781,0.44226074218,0.008865658797575669,-0.022240889699078947,-0.130859375,0.10180664062,0.003997752673922807,1.0144469131876317,0.80596890317,1.26355992901,0.016974886909147956,980.4634656562033,980.36478897078,980.64948194588,0.0073502529114473315,0.00036805554146480344,Null
-1.0282226562465333,-1.21936035156,-0.81799316406,0.013366534903251796,0.20173665364293333,-0.05200195312,0.34448242187,0.012291933544917935,-0.005476888020933333,-0.11328125,0.12622070312,0.0043778444997785255,1.05542623373,0.85263220943,1.24205281469,0.013865674128682153,980.4455549614465,980.33408635037,980.70323363403,0.0066248717875586555,-0.001196786820468858,Stairs Up
-0.9866782740503947,-1.26281738281,-0.8583984375,0.01167578035262601,0.19233623303539474,0.0927734375,0.31518554687,0.0038736263779076403,0.041311163649605256,-0.08129882812,0.16064453125,0.004144908691332572,1.0104962687959214,0.89303425292,1.27004483911,0.010707210048198038,980.435725358614,980.36232237443,980.53276396335,0.003274893441664612,-0.0004260999799785413,Stairs Up
-1.005249023434,-1.25915527343,-0.85729980468,0.011960843527589898,0.17793457030919999,0.03576660156,0.32080078125,0.007853577926464433,0.004868164062,-0.08215332031,0.09521484375,0.004033959378752758,1.0270684931007998,0.87385228361,1.2638856981,0.011017623999747804,980.4001131277333,980.29749226477,980.598666689,0.00674323258686783,-0.0014775010567947306,Stairs Up
-0.9795647698427027,-1.14245605468,-0.85900878906,0.005767039615285331,0.1845587653041892,-0.00500488281,0.36218261718,0.011967868089990548,-0.02130951752364865,-0.08605957031,0.09436035156,0.0030081158142681265,1.0041537386185138,0.88035522548,1.18544970621,0.006286100621256258,980.2989011974973,980.23152258102,980.43039808816,0.0030186910195291235,-0.0003787833816747003,Stairs Up
-1.003688502952162,-1.25500488281,-0.84130859375,0.013140806706977483,0.15979993665067568,-0.02734375,0.34362792968,0.011439667889647754,-0.025022764462027027,-0.12536621093,0.10314941406,0.0037258869542739752,1.0238487905460811,0.86482467595,1.26015095103,0.013391229258344187,980.224317499626,980.12198772647,980.36006553961,0.0050610415506991,0.0004784079312144661,Stairs Up
-0.9880024677967565,-1.20837402343,-0.86694335937,0.00848142027868439,0.1316495328304054,0.00354003906,0.294921875,0.007369654726761458,0.017406566723243245,-0.06323242187,0.13391113281,0.0039060250202050373,1.0025517319455404,0.86915578078,1.20949351447,0.00827543154527205,980.2003296463951,980.08763299539,980.43376162936,0.012204023130765324,-0.003281543064069989,Stairs Up
-0.9946915910012162,-1.29638671875,-0.78442382812,0.014844693240726294,0.19039834511932435,0.02001953125,0.30993652343,0.00815192520650735,0.017167374893378377,-0.08984375,0.17272949218,0.005433426561976625,1.0198390538902704,0.82061133618,1.29889815292,0.014122615320234276,980.0919103617111,980.02450998551,980.25866352592,0.004101872023397835,0.000532064787927593,Stairs Up
-0.9851036850254081,-1.28210449218,-0.80004882812,0.016481824281795378,0.2011232959934694,0.04321289062,0.40881347656,0.010927229732602736,-0.01468206911632653,-0.11206054687,0.11364746093,0.005722491943520685,1.0129812431752043,0.82018984831,1.28411527406,0.017940954492057126,980.0778800712937,979.96142636899,980.21046139364,0.006096575105448358,-0.0005345669112137785,Stairs Up
-0.9632105777103157,-1.20434570312,-0.81115722656,0.014421606374275246,0.2651482833026316,0.09143066406,0.43676757812,0.010961532932973863,-0.06626105057389474,-0.15600585937,0.05639648437,0.003133888667561703,1.00816284334,0.84616588943,1.25072242007,0.014445342248772228,980.0190987032114,979.91202517992,980.19133347866,0.006196777472598343,-0.0008462996020605451,Stairs Up
-0.9690069154223256,-1.17529296875,-0.80126953125,0.014529704005790324,0.24987225199499996,0.16625976562,0.45263671875,0.005974130387633401,-0.005128372546395349,-0.14270019531,0.1142578125,0.006567551982066419,1.0063187607418602,0.83246472309,1.23274348274,0.015698540417166573,980.0166801043514,979.91706025079,980.20814255735,0.008640748085645137,0.0005674481120332915,Stairs Up
-0.9743384384491462,-1.20568847656,-0.81335449218,0.013670691378423097,0.3066823075420731,0.17175292968,0.48498535156,0.007949551027500237,0.035919933783658535,-0.06848144531,0.18481445312,0.006415643003859427,1.0280360805289022,0.86646676398,1.29190105829,0.015639547379167156,979.9885568844588,979.91342969284,980.06128565433,0.001896589273678662,0.0008478244876680359,Stairs Up
-0.9894209641646154,-1.23950195312,-0.80871582031,0.01811255054846821,0.2354724590555769,0.12438964843,0.38854980468,0.005324123407802245,-0.014965350809711538,-0.11779785156,0.13134765625,0.005944889297114401,1.0221697366373077,0.82779933715,1.28000011188,0.019076591513703146,980.0312143635898,979.95568988074,980.19707247684,0.0062795813010982785,-7.974508690573469e-05,Stairs Up
-0.9953095809241306,-1.42932128906,-0.81811523437,0.02894498661119171,0.19510816490967386,-0.06872558593,0.34875488281,0.013997927507008023,0.017904530400652173,-0.07690429687,0.10437011718,0.003999742867978374,1.0207122719150001,0.82100443041,1.47315603725,0.031858006214696574,980.0031428634509,979.9308035494,980.20353701093,0.005134032196901721,-0.001651410467063358,Stairs Up
-1.0143439797759999,-1.20678710937,-0.89794921875,0.00747058527212432,0.1831140854738824,0.06457519531,0.31848144531,0.006026727027946647,-0.014695829502588235,-0.13049316406,0.11437988281,0.006159964449665121,1.0373553564654119,0.93762929342,1.21132824653,0.006031280334503249,979.9350221634245,979.84669079177,980.0853778837,0.004938128858968209,-0.0019325109021605823,Stairs Up
-0.9960541167771427,-1.18310546875,-0.88879394531,0.006597530073887882,0.19486860795155841,0.087890625,0.32861328125,0.005293527680468741,-0.02931272828636364,-0.14819335937,0.05944824218,0.003677198506359006,1.0200542296877924,0.91826314872,1.18789707622,0.005888730585929349,979.877891517543,979.81013122398,979.9819953262,0.0026578581853807614,0.00014030894952305617,Stairs Up
-0.7106052673929897,-1.19201660156,-0.46655273437,0.04798845969813922,0.6408917928438144,0.24011230468,0.98168945312,0.05673183511077288,0.16245796753979383,-0.07739257812,0.31701660156,0.014608359892053226,1.0248595977413404,0.84858620079,1.24205667178,0.009958661310545245,979.6543831365635,979.54366875587,979.89296884956,0.006995079386895856,-0.0008031818833651231,Stairs Up
-0.9902023161259595,-1.27551269531,-0.43981933593,0.045499355691192546,0.3610482264023232,-0.08215332031,0.71203613281,0.05285459916567904,-0.04781703756111111,-0.12841796875,0.12878417968,0.004581803885920684,1.0911528110302018,0.79274066219,1.42628279447,0.024673693543296325,979.7278011531223,979.56641047765,979.87121899635,0.008455599506323361,-0.0010966180887191123,Stairs Up
-1.0713137508743822,-1.20092773437,-0.89404296875,0.0067081865192785695,0.2539940308958427,-0.00756835937,0.40905761718,0.01292376863261515,-0.08500482794674158,-0.26135253906,0.19995117187,0.018464481371659295,1.1182448884206742,0.96318885254,1.2578710104,0.006724250892082717,979.6623748857951,979.49026154084,979.83098322214,0.010578565949988898,-0.00035681636373109714,Stairs Up
-0.9811026331849396,-1.17504882812,-0.85705566406,0.008562225560508474,0.3123132177106024,0.23999023437,0.43322753906,0.0040866486681961295,-0.07219355939192772,-0.17553710937,0.02478027343,0.0037121500313128278,1.0355037216171086,0.91358522034,1.23318327947,0.009322093195513923,979.5645724249141,979.4982390787,979.69474527194,0.00427621717752999,-0.00021922818242389546,Stairs Up
-0.9750538951901886,-1.13928222656,-0.79760742187,0.007228590814586236,0.3348434736110377,0.22387695312,0.4404296875,0.0028031780393241255,-0.13271115860566038,-0.25915527343,0.06372070312,0.0071046467254726135,1.0444265437692453,0.90708100102,1.22083530778,0.006673404561646333,979.5609006234906,979.46934897862,979.80156491768,0.007482959753821892,-0.00044141101983841407,Null
-0.9820702594225,-1.10852050781,-0.85815429687,0.005247797233265382,0.3459870711580435,0.19775390625,0.4677734375,0.0048468863272591155,-0.12006013289402177,-0.29650878906,0.07678222656,0.009991808399202405,1.0552008333930432,0.96184045345,1.19945748652,0.0050578214130122335,979.5524592078601,979.46007877526,979.74856538542,0.005976709773440531,8.785477662120074e-05,Null
-0.955480063829878,-1.05139160156,-0.57885742187,0.008825927048431907,0.39058480611256097,0.17236328125,0.90014648437,0.030960528958649234,-0.08089986661439025,-0.27856445312,0.09057617187,0.012259051773054199,1.0584728039846343,0.96207483177,1.1877307793,0.0031277039825320964,979.5423878037391,979.42687925679,979.75499617481,0.007988821091211946,-0.0001576922584090268,Null
-0.11307565789434211,-0.58190917968,0.33764648437,0.10158782450556124,0.9294144479817105,0.73486328125,1.16882324218,0.011856733905394287,-0.028718647204736842,-0.31042480468,0.14855957031,0.017946009383970722,0.9965077695722367,0.82841791514,1.32760584726,0.014243505485906882,979.5463515185926,979.44645028834,979.81014637436,0.012471300266752536,0.003491989004102894,Null
-0.7069958102276344,-0.76623535156,-0.51843261718,0.004761225043574072,0.7014278288766665,0.63879394531,0.97351074218,0.005462822079743336,0.20680023521150537,-0.10095214843,0.34545898437,0.007269883111039427,1.0248844414912905,0.90054837911,1.14469527022,0.001544727103799759,979.5426329775792,979.44947249318,979.60105787271,0.0019143529878611158,0.0014173549078594022,Null
-0.7588550801157143,-1.00183105468,-0.5498046875,0.011949162252294847,0.6560295260638775,0.42785644531,0.86877441406,0.012660448593796739,0.0864544304017347,-0.28918457031,0.21276855468,0.020382293351799228,1.0251067426610203,0.75612612017,1.19724538141,0.008426796789243646,979.5825660392821,979.53983769215,979.61931096219,0.00045280184351635357,-0.0002874134630524139,Null
-0.4934817227415909,-1.05322265625,-0.16564941406,0.0643272408605699,0.7389734441548864,0.49462890625,1.14001464843,0.03727344079966575,0.4321469393606818,0.11303710937,1.02368164062,0.07458336721204152,1.0579339274647728,0.70626017639,1.37620858157,0.03167464066960038,979.54956925929,979.47257150065,979.65452189456,0.0032863895032923026,-0.001452026888590086,Null
-0.6979848103316866,-1.30261230468,0.02978515625,0.2164258208255109,0.5089170157154216,0.09558105468,0.83422851562,0.052905124826896355,0.31428840361048194,-0.07043457031,0.71374511718,0.06048266823405352,1.067222968989759,0.82645173439,1.41624598766,0.03221980576295256,979.6006785148072,979.30266945948,979.89919330862,0.033686200203709424,-0.0013575844599191095,Null
-0.9820383899581132,-1.28588867187,-0.73364257812,0.024444314252121322,0.33768448739349055,0.0361328125,0.64392089843,0.02051591117117821,0.026401735701037737,-0.16748046875,0.17297363281,0.008043070847925842,1.0528366818169812,0.78536989142,1.34836511627,0.023386073959422004,979.5577018426543,979.3894232039,979.81366065315,0.012442972223274257,0.0008241356240076639,Stairs Down
-0.9793491158396774,-1.39416503906,-0.71264648437,0.030542815387118772,0.2124653477794623,-0.04748535156,0.42736816406,0.013526287614085041,-0.022262737315268805,-0.20422363281,0.09216308593,0.007565428352901948,1.011336868537957,0.71843634893,1.46712681174,0.03339802237190052,979.6232709634304,979.51343948403,979.71113524466,0.0029467648992596816,-7.021114128738455e-05,Stairs Down
-0.9597733660406097,-1.28100585937,-0.69982910156,0.029803860038203556,0.2963658774734146,0.20385742187,0.47827148437,0.004911211466030817,-0.05305592606646343,-0.20239257812,0.06713867187,0.007213446649011224,1.0107183689619512,0.73116002548,1.31268271241,0.032069240484805424,979.711478525605,979.61806660204,979.87238269066,0.0050318309363888356,0.0003474999543351347,Stairs Down
-0.9876723691612049,-1.32568359375,-0.71704101562,0.030287516369687066,0.3035035650381928,0.20715332031,0.50207519531,0.0050597066323044395,-0.025092067489156634,-0.16357421875,0.10510253906,0.007718820852264362,1.0389239650102409,0.7516078503,1.35926904484,0.03180813598349675,979.7980664385634,979.66160267916,979.93578709355,0.00886550761812326,0.0013320473938315779,Stairs Down
-1.0128784179646078,-1.30249023437,-0.77954101562,0.02423880411550748,0.28367106119509805,0.12841796875,0.39306640625,0.0046361929954454794,-0.04177317899764705,-0.16589355468,0.07788085937,0.005763794625326945,1.0568413529817646,0.81130607622,1.34685941718,0.0257752075018192,979.8677586745924,979.75742519696,980.02508418983,0.005009294174898392,0.001061666124193609,Stairs Down
-0.9957071940067778,-1.35791015625,-0.72595214843,0.03600957663236809,0.2590847439191112,0.07373046875,0.54052734375,0.013462298029569409,-0.06232774522544443,-0.24719238281,0.04626464843,0.0077213939295982005,1.0373965691137776,0.73666571409,1.43642111387,0.04328961044659872,979.9507524370209,979.82336282283,980.21111392098,0.011125399240884716,0.001383122487938696,Stairs Down
-0.9944353801406098,-1.25756835937,-0.65478515625,0.031758378299405025,0.2758967701945122,0.12866210937,0.41650390625,0.0058684989707850094,-0.07457900628414633,-0.18090820312,0.0234375,0.002637697922590265,1.0376863414007316,0.68983697337,1.3257457571,0.03397774465581356,979.9780186972079,979.90827645161,980.10498659035,0.005123244925542485,0.0010368131319477554,Stairs Down
-0.9956323242152999,-1.33642578125,-0.7138671875,0.03212116781524946,0.29795166015300006,0.185546875,0.47961425781,0.007799570421863514,-0.04287597656059999,-0.12976074218,0.04504394531,0.0021712452230305515,1.0429422276953,0.7704820133,1.40055043945,0.036201858070387595,980.0005062121868,979.91841039694,980.18968651723,0.008538687955012563,2.3932656017488803e-05,Stairs Down
-1.0318834806701052,-1.35205078125,-0.76354980468,0.024986611178199124,0.3011962890586316,0.14819335937,0.44677734375,0.007753188749690936,-0.05437911183831579,-0.19653320312,0.04541015625,0.0028212887941296647,1.0802021173696845,0.83204135978,1.40685338215,0.027095169438086368,980.0185752887857,979.91956574982,980.22154325447,0.006872811001045837,0.0005028488144157454,Stairs Down
-0.9347728056031763,-1.27880859375,-0.67016601562,0.03087979290920497,0.3605138442055294,0.15661621093,0.86694335937,0.049885604490980985,-0.024880801930117644,-0.24243164062,0.0849609375,0.00748916579681851,1.0304197472671768,0.77978665632,1.31345986848,0.030196151768164543,980.0096816816932,979.89740257749,980.18668478593,0.007276611907487891,0.001593386111111145,Stairs Down
-0.7539157619685714,-1.06774902343,-0.46984863281,0.018955570210526285,0.2676748300488312,0.06506347656,0.57312011718,0.022945801810506233,-0.5674652495903895,-0.77575683593,-0.33813476562,0.007702107273251521,1.0014885334067534,0.8448351928,1.1936767643,0.008141327526690903,980.1044495153965,980.01065978281,980.3884402661,0.005489276768560469,-0.0017389462184973033,Stairs Down
-0.8040016410238144,-1.0400390625,-0.56652832031,0.01307201275081913,0.23700643322804124,0.10546875,0.41833496093,0.00422869280249706,-0.5990116080017526,-0.77062988281,-0.48779296875,0.004955177345733043,1.0370244112343299,0.90954770057,1.24080812894,0.006716310362097667,980.2096778138153,980.11013344524,980.31843921821,0.0037674170755045817,0.001731157238482385,Stairs Down
-0.932009379065521,-1.37121582031,-0.5419921875,0.0494135812644312,0.23768234252520834,0.03637695312,0.44421386718,0.015319103340809145,-0.10582097371427084,-0.79187011718,0.17004394531,0.06060004920265642,1.0125935186472919,0.69655392225,1.38881500193,0.035382576083975346,980.2455456414272,980.14538150693,980.3085559583,0.0023890591909606082,0.0005972474521668139,Stairs Down
-1.0514682503590695,-1.47302246093,-0.69030761718,0.05401834636811762,0.34951853197290694,0.09692382812,0.76904296875,0.032114633457533195,-0.04414970930034884,-0.22058105468,0.1318359375,0.008437301986467974,1.1278243664069771,0.73093962154,1.53744263774,0.051782834428503496,980.3974817106707,980.26017341148,980.56430482908,0.00499040366629626,-0.00021708145211475592,Stairs Down
-1.009911825487093,-1.31372070312,-0.74926757812,0.02751019941338162,0.3432574604801163,0.17492675781,0.56506347656,0.016246764957144978,-0.03851176416953488,-0.126953125,0.11608886718,0.00374726538915958,1.073681145645465,0.79818308746,1.41717984976,0.033784227750256635,980.4779842464421,980.37232856473,980.67880956745,0.010438728802262315,-0.0005322518905005448,Stairs Down
-1.0242345473301961,-1.26379394531,-0.8154296875,0.020624528340099996,0.2896812289329412,0.17297363281,0.46472167968,0.008576309698369845,-0.0479532877585294,-0.15771484375,0.04113769531,0.003070302258273639,1.069388457055196,0.85939256476,1.34653005121,0.023868226860132274,980.4426200506274,980.36068962036,980.61010287357,0.005967231792239721,1.1220856412122511e-05,Stairs Down
-0.930091688365111,-1.24658203125,-0.63488769531,0.032268006026672014,0.34496934678444446,0.19030761718,0.67236328125,0.020977966736878927,-0.11446804470155555,-0.37512207031,0.07775878906,0.013632145164725532,1.0180580057473332,0.74303129315,1.2970971641,0.02473862476880828,980.4850600437342,980.37691075656,980.66100390064,0.006754471010196575,0.0014747346002522926,Stairs Down
-0.39889413338790125,-0.89721679687,-0.07543945312,0.037598077125476824,0.45954951533259253,0.27197265625,0.73193359375,0.0188424361664833,-0.7697618272533333,-1.00341796875,-0.28503417968,0.04078214392085237,1.0219992456638272,0.78704903799,1.19955586842,0.014555170204969405,980.5477593686747,980.3841252767,980.66105508507,0.007803092768121625,-0.0018468268140963274,Stairs Down
-0.7844761439693405,-0.99353027343,-0.359375,0.01935492030190561,0.20971947973538457,0.06359863281,0.39282226562,0.006514083338403157,-0.6405310997561537,-0.88781738281,-0.53381347656,0.005857220979865205,1.047403837782967,0.92529723636,1.20368455904,0.00403226639998496,980.6017584154407,980.43731582683,980.72387299053,0.006494796704250881,0.0025202172442778327,Stairs Down
-0.9474337830803061,-1.41943359375,-0.65246582031,0.04910533775871377,0.2469768913390816,0.08154296875,0.42553710937,0.009303550376333911,-0.35734464684091843,-0.82531738281,0.06945800781,0.09311762248849875,1.097256838627245,0.81986963033,1.45388360884,0.0326646190664132,980.7218061735739,980.63114897213,980.89969129499,0.004185263192318454,2.5022697484107954e-05,Stairs Down
-0.6791470988362921,-1.16711425781,-0.39196777343,0.03784781318085203,0.7071834949932584,0.3583984375,0.95935058593,0.030256673788696634,0.053686249122808984,-0.49865722656,0.72680664062,0.116675661427286,1.0565878359191012,0.74000353472,1.36631658335,0.03090484822487333,980.827910861778,980.66226569538,980.94802849751,0.006118537222098084,0.0004892361673565393,Stairs Down
-0.6926140280291764,-0.94714355468,-0.375,0.03270978410415121,0.7020909926427058,0.47265625,1.06909179687,0.022911240865842262,0.1967084099255294,-0.12805175781,0.51025390625,0.02799286744610326,1.028241158668235,0.64547706334,1.34717748126,0.03712726282510931,980.9166920734932,980.80449057043,981.07972116074,0.0060567813609202865,-0.0018300152081508901,Stairs Down
-0.7958089192674286,-1.03198242187,-0.46618652343,0.028221506988519714,0.6702404203826666,0.42492675781,1.05871582031,0.03013920053144664,0.12526506696238096,-0.21118164062,0.51025390625,0.029512670307532757,1.0722388088142858,0.64876099066,1.37930839877,0.035907798526134946,980.913885424034,980.81428145611,981.08839841704,0.004984142233676881,0.00020956977580672385,Stairs Down
-0.7704224945359138,-1.06860351562,-0.48059082031,0.024687127504811317,0.6161033056082796,0.3466796875,0.87243652343,0.02375465399812901,0.15032630838053762,-0.17651367187,0.41345214843,0.02120467683190333,1.016437996010753,0.68591056588,1.31380853251,0.03182568588921547,980.9335221853336,980.81294247386,981.07850761441,0.005443190765042633,-0.0006571814026498917,Stairs Down
-0.7371546733771083,-1.11096191406,-0.47351074218,0.027852622955993722,0.6744575960045782,0.47351074218,0.96508789062,0.01432644575211428,0.06163080054469879,-0.20874023437,0.27087402343,0.022893696803603467,1.0166191173236143,0.67257837693,1.41006675499,0.0304535190527093,980.9306825214076,980.85062495452,980.99502102776,0.0011378718168944463,0.0008867267844092653,Stairs Down
-0.665791320797625,-0.98486328125,-0.27673339843,0.03779369194446274,0.67845458983975,0.47937011718,0.86047363281,0.010407269604671284,0.154409790037125,-0.10620117187,0.72155761718,0.03961163486560137,0.994905360683625,0.66562910974,1.22696278351,0.02460694564620216,981.0555856858024,980.95662973483,981.25762146887,0.009212644668161464,0.0033590499332888106,Stairs Down
-0.9361979166625491,-1.30383300781,-0.20617675781,0.0569690738377271,0.3738044289955882,0.26098632812,0.63464355468,0.0068657015627927994,0.07739736519519606,-0.12182617187,0.53552246093,0.021124541440207006,1.0417026057810783,0.66815372605,1.36024812084,0.02137829705822779,981.1134149487092,980.98240966909,981.2727170902,0.0050275944006479365,0.000418747164247946,Stairs Down
-1.0484806941061537,-1.35534667968,-0.73693847656,0.027522820870702628,0.2666471711843956,-0.01416015625,0.50378417968,0.018660133298085867,0.07162039620351648,-0.08776855468,0.28503417968,0.008224903306705373,1.095845461166044,0.77150081182,1.39754599919,0.028791040198082426,981.2660918703563,981.14399161705,981.61184235538,0.015364323743950041,0.0015469368698704236,Stairs Down
-1.0430158132490361,-1.44714355468,-0.73522949218,0.029692918727784946,0.3364463714193976,0.07824707031,0.59753417968,0.021854945733261417,-0.036544615962289154,-0.18566894531,0.15710449218,0.007229686404660147,1.108992559816024,0.76107575102,1.48083485024,0.03099194326653744,981.3623896438075,981.28627539433,981.46857802772,0.002813915241144525,0.001102012802494234,Stairs Down
-1.0382394692297938,-1.29455566406,-0.7470703125,0.027804319833245373,0.3368725334205154,0.20520019531,0.55749511718,0.010560187786285724,-0.002206074822371134,-0.11462402343,0.16223144531,0.004040874927610313,1.0970611566392783,0.79943798261,1.40608952454,0.030165179486699167,981.4151505185573,981.34699024832,981.55816251518,0.004394362151433383,0.0001417211279950999,Stairs Down
-1.005385080969375,-1.37170410156,-0.69873046875,0.029739416545846848,0.29615275064760416,0.14526367187,0.42614746093,0.006624485212342652,-0.0387268066384375,-0.11254882812,0.06201171875,0.0021414076025548416,1.0518921838603124,0.74596673573,1.43313082359,0.03196539711416822,981.4102238269143,981.34952536241,981.5013854651,0.0026041378831318978,-0.0001919093798569194,Stairs Down
-0.9683809168161177,-1.28979492187,-0.74572753906,0.02568037700679132,0.30271570541894116,0.20935058593,0.44262695312,0.004085406485635628,-0.023502125459058824,-0.12915039062,0.119140625,0.00356503348533449,1.018043897184118,0.80028063314,1.36502370996,0.026791252595085656,981.4030918082676,981.34214713264,981.49490508682,0.0028120722834557095,-0.0004769069319615063,Stairs Down
-0.9978903745955126,-1.29724121093,-0.76879882812,0.018322458862492456,0.2808477939667949,0.15234375,0.40979003906,0.0038255472883824246,-0.00819436097653846,-0.12097167968,0.12060546875,0.004976004500575871,1.0410769764078207,0.8094600699,1.32211994287,0.017892214118858107,981.4583949386954,981.36321029987,981.54277027566,0.0022855606170428863,0.0006443991460436676,Stairs Down
-0.9655651855437,-1.1171875,-0.80285644531,0.007781324090014058,0.2893749999962,0.21130371093,0.39477539062,0.00291817246049391,0.0133935546866,-0.13830566406,0.146484375,0.0063633015896862166,1.0128970269805,0.8491688518,1.15927193715,0.00723756399522868,981.5678644375485,981.47993698695,981.70467359784,0.00508257209469252,0.0011147492972199608,Stairs Down
-0.9400634765586315,-1.35217285156,-0.69775390625,0.02679580798806838,0.32344649465094744,0.13208007812,0.65502929687,0.014397195185134205,-0.19463019119852634,-0.72436523437,0.087890625,0.06922622896584915,1.0559011909379998,0.8531064814,1.48785892511,0.020766075868854744,981.6840388872484,981.56163949657,981.80832030046,0.005177525021765663,0.0020340207256283023,Stairs Down
-0.8006882440432141,-1.44116210937,-0.43408203125,0.07923231089652404,0.2731148855979762,0.0078125,0.64440917968,0.025068927113617946,-0.4396100725419047,-0.958984375,0.05383300781,0.1105236553175505,1.0353572662479764,0.57015542257,1.49058908963,0.04984661823901661,981.7824872100623,981.64061194328,981.98011282751,0.009133144470918989,-0.0005814641645076404,Stairs Down
-1.0282101838445652,-1.39318847656,-0.6884765625,0.031225531330471352,0.3670203167418477,0.13220214843,0.54907226562,0.014263540413850058,-0.08616704525923914,-0.21899414062,0.0703125,0.005259185650058673,1.1022166172309786,0.7160205639,1.44990820306,0.03504090879673214,981.8966438609434,981.7702633167,982.08169885922,0.003816088214512811,0.0013130302325216705,Stairs Down
-0.9872837259275757,-1.31494140625,-0.7470703125,0.03232000009170577,0.31272934422,0.17224121093,0.56640625,0.010835063784092337,-0.04857288707050505,-0.16906738281,0.09826660156,0.0062909001873417475,1.0430393678077778,0.77575849747,1.43961949208,0.036269873012488844,981.9572458811605,981.86483829418,982.12705889275,0.008025614163879459,0.00010166756151540297,Stairs Down
-1.0422349409592047,-1.36267089843,-0.79064941406,0.028974074911139208,0.3135486949529545,0.15698242187,0.47595214843,0.008347485475196207,-0.025910810988409094,-0.09899902343,0.07238769531,0.002298144942483406,1.0918937408154543,0.81466779006,1.41518828327,0.03254519836117433,981.9609578205178,981.88150167409,982.11597384668,0.005156809434289417,0.0001282463548576863,Stairs Down
-0.9840056986713923,-1.26330566406,-0.75207519531,0.023252996104973833,0.30036868324367094,0.18237304687,0.5048828125,0.007190835897656715,-0.019166584255822783,-0.17749023437,0.08520507812,0.004296990347488316,1.0349268402884808,0.83595922031,1.35419757392,0.02236653995934151,981.9668330861555,981.8800794638,982.12846591092,0.006314014182979158,-0.00046121076594003377,Stairs Down
-0.990883431779756,-1.33752441406,-0.75891113281,0.018298358048117764,0.3270993116380488,0.20727539062,0.41137695312,0.002562978333762652,-0.020528653773048782,-0.16003417968,0.10583496093,0.005566589185982914,1.047562012417439,0.79364707196,1.37659956809,0.018206859480906293,982.030482718764,981.90881802392,982.158124932,0.004115182426593412,0.0011045424017377037,Stairs Down
-0.9034328086660783,-1.2197265625,-0.50146484375,0.025590803861243478,0.2609097349845099,0.04174804687,0.40954589843,0.008099893509077805,-0.20516788258058818,-0.59729003906,0.19323730468,0.060110205743171066,1.0007016245058822,0.68829223113,1.25498771377,0.018012730148700945,982.1688716042474,982.05631489613,982.35822291055,0.007035497049195268,-0.0016885851920191558,Stairs Down
-1.0077816470604395,-1.21337890625,-0.849609375,0.009483631317183171,0.30970847999307693,0.25952148437,0.39916992187,0.001536379327028592,0.008967472956263736,-0.11547851562,0.13806152343,0.006505715286164106,1.058496007709121,0.89522731968,1.24946716992,0.008637865095871366,982.252085293204,982.12500526418,982.3897696509,0.007478302951080554,0.001389782298054916,Stairs Down
-0.9700138743291463,-1.23913574218,-0.74670410156,0.01706410682180236,0.25359511956426833,0.10681152343,0.41979980468,0.00733895844612154,0.062160584982682926,-0.13623046875,0.1748046875,0.005827130735545879,1.0107260304876828,0.7765425382,1.28218609062,0.017610528294617452,982.3518638661999,982.2387978061,982.44836949314,0.0035677917160346294,0.0012418009861326466,Stairs Down
-0.9982023540264211,-1.30810546875,-0.64404296875,0.025830112379087045,0.33507144325305266,0.09680175781,0.55395507812,0.015288910356484706,-0.019770250821157895,-0.15173339843,0.11584472656,0.007669837206519791,1.062105492380105,0.69352729805,1.34062106103,0.029590368096199582,982.5022311928118,982.40247978,982.65577144952,0.005609464825124434,-3.1184022180951234e-05,Stairs Down
-0.988845038656598,-1.4384765625,-0.72595214843,0.03709046308078217,0.3078525189247423,0.1552734375,0.41271972656,0.003536778268503442,-0.0858368234503093,-0.22448730468,0.04406738281,0.004748498403018259,1.0430356670346392,0.77198657337,1.48566511206,0.036905187725444745,982.5567287059285,982.43710447021,982.7637395768,0.00996748214504255,-0.0005410671113572466,Null
-1.0120125703996512,-1.24780273437,-0.80322265625,0.013145466895111813,0.31015653388034886,0.18469238281,0.47668457031,0.006483324071689872,0.013925951581046512,-0.20263671875,0.32055664062,0.019633217493657203,1.0701328064886042,0.87452131188,1.29689141343,0.014348543771559127,982.5249490411138,982.45653119971,982.73554388596,0.005206160927625443,-0.0009222584743410043,Null
-0.8679616421051897,-1.08569335937,-0.69226074218,0.014191737880529045,0.47175385680050624,0.34033203125,0.61169433593,0.007174833622226264,-0.26016428500455707,-0.42150878906,-0.06958007812,0.016138693731727407,1.0382864773672156,0.94370746706,1.14294409474,0.002619432090726518,982.6088102572085,982.49645766638,982.74998794064,0.006324365581018125,-0.0007108978151367798,Null
-0.8044140624960999,-0.85681152343,-0.76403808593,0.000599717287110667,0.5553527831996,0.52697753906,0.57019042968,0.00011621803195520467,-0.3056762695278,-0.36901855468,-0.22924804687,0.0019336515905696325,1.0254237028944997,1.01217602002,1.04802383187,6.666675368367178e-05,982.5479571009614,982.51044276171,982.65304733009,0.0014546766581610255,0.0005392895086840553,Null
-0.8560842960404255,-0.880859375,-0.81530761718,0.00030525747006004695,0.43332623420574456,0.40649414062,0.52697753906,0.0013690905790967442,-0.3697237055313828,-0.40148925781,-0.24877929687,0.0014829831592214843,1.0295821157723408,0.97788605071,1.06377167193,0.000436619965135145,982.5719294207951,982.4544781018,982.72471760371,0.00968628069521977,-0.0028358453200906324,Null
-0.8490306181035292,-0.953125,-0.73767089843,0.0015438735318000938,0.44599322150399984,0.29772949218,0.57751464843,0.005514103165883313,-0.34875057444494123,-0.44348144531,-0.17834472656,0.0049243908009630084,1.0251109423872942,0.84846566049,1.13403207965,0.002407181328987623,982.5570929838804,982.51535477705,982.63999730702,0.0010058900255092713,0.00039245811628172,Null
-0.710915798607111,-1.13793945312,-0.34216308593,0.06911112973461742,0.6101508246483334,0.31433105468,1.03088378906,0.048643703645196566,-0.2398600260396667,-0.54455566406,0.06042480468,0.029074987935866256,1.0318414646642222,0.84846566049,1.30699705955,0.01589633016756245,982.4968322981906,982.43055845643,982.74548669946,0.00791582354856615,-0.0009964688387116868,Null
-0.9738017380810099,-1.44738769531,-0.33142089843,0.1070659138446634,0.42773930713060604,-1.06164550781,1.11437988281,0.24656377213055333,-0.03799345998949496,-0.36633300781,0.22033691406,0.024419015794216455,1.2123198731162625,0.87068616628,1.80327913726,0.037584436995148934,982.5684686284793,982.4530168544,982.82612983993,0.006792471558425123,-0.0008858345086687699,Null
-0.6447004838378408,-0.79187011718,-0.49987792968,0.008110164716309353,0.7221804532098864,0.52697753906,0.89709472656,0.008053709734317786,0.21489646217875,-0.12414550781,0.53479003906,0.027624109282510887,1.0103243593527274,0.88408768809,1.20291803487,0.005966695585732367,982.5513752657382,982.50079401326,982.67688894786,0.0029287022297043797,0.0011932488831887331,Null
-0.7514633178675,-0.857421875,-0.61596679687,0.008499714956136762,0.57858276366725,0.38537597656,0.73913574218,0.010493603122297513,-0.112965393065625,-0.43103027343,0.35961914062,0.07303645968775299,1.000782139593375,0.91725646446,1.0496706287,0.0015502047211890964,982.667663068479,982.52024702171,982.86514614222,0.015288141478208492,0.002834643999081666,Null
-0.8494898478163542,-0.86682128906,-0.83068847656,4.208181379895997e-05,0.38717651366874994,0.35583496093,0.40454101562,0.00017976164821023724,-0.41576385497625007,-0.4560546875,-0.38916015625,0.00041457377374046206,1.022226863223646,1.00043682154,1.04583365331,8.111027518404312e-05,982.5060051545989,982.42770006759,982.69879824595,0.004007778875075711,-0.00033016252020127556,Null
-0.8517328898084374,-0.86083984375,-0.84411621093,1.5353679398128176e-05,0.404773712154375,0.39624023437,0.41735839843,2.876522607093239e-05,-0.3887799580852083,-0.40393066406,-0.37976074218,4.197605967514965e-05,1.0200514859731251,1.01105022804,1.02948552959,2.0911373984778272e-05,982.5431276574277,982.52843880081,982.55632777247,8.318696208025498e-05,0.00029579878141098567,Null
-0.8518790311549999,-0.86071777343,-0.84350585937,2.3644593852883022e-05,0.40983404114790695,0.3896484375,0.42333984375,6.276962084054507e-05,-0.38812681685662775,-0.39929199218,-0.37927246093,2.6047123764758475e-05,1.0219595871189533,1.01458408125,1.02847391051,1.4171701876380997e-05,982.562793994934,982.55049328817,982.57282129701,4.096861559826438e-05,0.00022981921128220156,Null
-0.8542896617511363,-0.8759765625,-0.83935546875,9.254096786169246e-05,0.40046414461636365,0.38256835937,0.41979980468,9.794020781188889e-05,-0.4007609974223863,-0.41638183593,-0.38330078125,0.00011599113502271906,1.0251849896125,1.01470936802,1.04252773061,5.5838632241808105e-05,982.5560796798447,982.55098055016,982.57282129701,1.474607752897104e-05,-1.9272721534095866e-05,Null
-0.8558776855436,-0.86206054687,-0.84924316406,1.400569923991949e-05,0.4032690429643999,0.39208984375,0.41430664062,2.141016300249455e-05,-0.3926892089806999,-0.40246582031,-0.38354492187,2.2462249706794795e-05,1.0244013790254,1.01527737757,1.03334137509,1.662874651509631e-05,982.5650233478127,982.55839667632,982.57029757785,1.442820120947016e-05,7.023471596200784e-05,Null
-0.8425428602393332,-0.84936523437,-0.83203125,1.663118415472328e-05,0.42077907985766666,0.40026855468,0.43225097656,8.918193544973522e-05,-0.39907497829544447,-0.41040039062,-0.39013671875,2.4959538013798666e-05,1.0228921333157779,1.01608588691,1.0309867017,1.551935590012943e-05,982.5566438695707,982.55175426405,982.56490127506,1.547592280337035e-05,-6.59181581422696e-05,Null
-0.8449435763850618,-0.86694335937,-0.83203125,7.75024294672275e-05,0.417914496525679,0.38928222656,0.43798828125,0.0001900613308056471,-0.40056845582259254,-0.41589355468,-0.38403320312,7.052721432565458e-05,1.0243785837750619,1.00899655626,1.03075485191,1.9941793426887767e-05,982.5632275530513,982.5533229225,982.57663516413,4.0799093541366974e-05,0.00011185815223061052,Null
-0.881452693491279,-1.01770019531,-0.79272460937,0.004430190311721202,0.3999406681466279,0.08630371093,0.59533691406,0.016738805441926973,-0.3549180141667442,-0.56530761718,-0.109375,0.007632765960697424,1.042183737812907,0.88517571517,1.18528132473,0.005259253947044962,982.5625568550255,982.54384701209,982.58333157219,0.00011546799356527138,-2.6478304971844022e-05,Null
-0.8614404296845001,-1.02685546875,-0.70227050781,0.010145633413462727,0.4325756835897998,0.32934570312,0.68737792968,0.008090500343820159,-0.24950195312069998,-0.54992675781,-0.01391601562,0.01648375382322175,1.0065864007185,0.85230255342,1.23938272025,0.01207054401014461,982.5152825617472,982.43715288643,982.59275776647,0.0029711324712536065,-0.0009761846319379675,Null
-0.9867642863376405,-1.20031738281,-0.8203125,0.008829781916788097,0.34135522734898877,0.21740722656,0.58898925781,0.008151367139365822,-0.040753653878988765,-0.17419433593,0.07897949218,0.005612965181918692,1.0505510885839326,0.87452851092,1.25211378426,0.010690787605142329,982.5309272026374,982.44017905057,982.64748980596,0.0043347107699309466,8.174700486791517e-05,Null
-0.966123999615122,-1.15283203125,-0.83825683593,0.006609857540228259,0.32874428353341467,0.22546386718,0.43859863281,0.002169002640603455,-0.030304699408048776,-0.16467285156,0.07836914062,0.004755160620878853,1.0240539256019512,0.9100702024,1.22141703367,0.007156565812013478,982.5363037560863,982.47692576625,982.64748980596,0.002512220196799435,-0.0002798451328259395,Null
-0.9899615119449999,-1.22985839843,-0.79016113281,0.014241441103547326,0.3101734834528432,0.07739257812,0.50329589843,0.008775970081023534,0.027530445772352936,-0.07397460937,0.25305175781,0.005908754410321779,1.0435662016799023,0.8436264548,1.29017315037,0.01578024354684675,982.5259946442395,982.46553146151,982.58276173257,0.001149643916632762,-0.00020043077959395797,Lift Up
-0.9646455498112901,-1.05615234375,-0.87854003906,0.002979858709993975,0.3642696257521504,0.1142578125,0.47155761718,0.008416205341469328,0.07438807333548386,-0.24694824218,0.38049316406,0.033749269736001335,1.0534775464275272,0.95424999226,1.14869176554,0.0036512019728963197,982.5471803823195,982.45387078843,982.68036803808,0.004852397562335396,0.0002775430251893883,Lift Up
-0.873272123787619,-1.00012207031,-0.59790039062,0.01523482386408354,0.4823463076605952,0.32385253906,0.7724609375,0.023827283822031097,-0.06821114676083334,-0.26647949218,0.03991699218,0.0036467296066876867,1.0183159039394045,0.80592551872,1.14330318952,0.005210066377417708,982.5564092662544,982.51328392362,982.7215203755,0.001481924961068329,0.0004983331780759806,Lift Up
-0.8428289240024675,-0.92431640625,-0.77563476562,0.001402539464063012,0.5082563920409089,0.36010742187,0.57434082031,0.004362175303569871,-0.2700005073018182,-0.3525390625,-0.21545410156,0.0013664196451695996,1.023910993077922,0.98584593515,1.05470484966,0.00023325900036265377,982.600385954886,982.48489714276,982.80694120057,0.009716110432406723,0.0012751463554115992,Lift Up
-0.8894156229827834,-0.94689941406,-0.85693359375,0.0005564817173089798,0.4243994643971134,0.37780761718,0.46447753906,0.0006270137138764408,-0.2814790391389691,-0.3544921875,-0.19702148437,0.0020953690812937848,1.0263498782197937,0.99540702484,1.05585878113,0.0002591663440831234,982.5522764218571,982.39098817166,982.69233136839,0.009672648715879157,0.002820057529155356,Lift Up
-0.8761975740086316,-0.88488769531,-0.85827636718,3.472804222206135e-05,0.40799881784126313,0.39099121093,0.44665527343,0.00010509485958641722,-0.3269685444048421,-0.34167480468,-0.30773925781,7.163934317608839e-05,1.0204256338135786,1.00813261758,1.02929025897,3.478139449433945e-05,982.5532609987722,982.48668317378,982.66235662902,0.002553675657660142,-0.001730061313406457,Lift Up
-0.8752104660524135,-0.88610839843,-0.8671875,2.328486277209052e-05,0.41350125717942515,0.40368652343,0.42163085937,2.381845261258433e-05,-0.32578882677471266,-0.33142089843,-0.31567382812,1.410452862400768e-05,1.0213474683985053,1.01366188617,1.03080758806,2.5151428839180475e-05,982.5287066730731,982.50833282276,982.54596468145,0.00020771014659245882,0.0005249174105047449,Lift Up
-0.8780618106577646,-0.88610839843,-0.86608886718,2.566235823446895e-05,0.41726792278999975,0.40954589843,0.42956542968,2.858615805804383e-05,-0.32427188648458827,-0.3330078125,-0.31164550781,2.0685808662051078e-05,1.024852540673412,1.01872102836,1.03080758806,8.744590295616666e-06,982.5374335466673,982.52426448538,982.5453476375,3.653474150465382e-05,-0.00021057531744989505,Lift Up
-0.8730243571719416,-0.87976074218,-0.86608886718,1.4020750215429413e-05,0.42547903708631063,0.42077636718,0.43127441406,8.530138950435537e-06,-0.3230513785616504,-0.3330078125,-0.31396484375,2.1780434170921988e-05,1.023525162359903,1.01927474876,1.02806502576,6.3368679400372445e-06,982.5438663229062,982.52426448538,982.55810347388,7.910196202310529e-05,0.00027885773995407146,Lift Up
-0.8895473685282796,-0.92419433593,-0.869140625,0.0003692950320097423,0.43453618531139787,0.41931152343,0.466796875,0.0002539288627354901,-0.323244812664086,-0.34973144531,-0.30285644531,0.00018929851393256105,1.0414844274135482,1.01363548404,1.08918223933,0.000725196997057816,982.5508246202156,982.53207713629,982.55848165916,3.1025909719605394e-05,-0.0001293639079808846,Lift Up
-0.8865849138708433,-0.91333007812,-0.85717773437,0.00039875493346173464,0.4522043251086746,0.43200683593,0.46459960937,0.00011319877942165154,-0.33275043533048193,-0.3515625,-0.30798339843,0.0001783501855114677,1.0494346683545783,1.0097472523,1.0779866185,0.0006207561946554623,982.4847224179135,982.41894421151,982.53207713629,0.001136274947268484,-0.0013785360754985157,Lift Up
-0.8700157264580517,-0.87414550781,-0.86352539062,9.25024975342464e-06,0.43432617187064926,0.42590332031,0.44226074218,1.6983010263503223e-05,-0.3215316177924676,-0.32824707031,-0.3134765625,1.3346536181746906e-05,1.0241969080284414,1.01925752699,1.03261281043,9.04593500379256e-06,982.3072899620581,982.2032273578,982.41894421151,0.004566181494162937,-0.0030016205039749676,Lift Up
-0.8668471116244232,-0.87829589843,-0.86071777343,1.6214972871952643e-05,0.4366666353626923,0.42834472656,0.44555664062,1.8784560718296838e-05,-0.3268784743053846,-0.33508300781,-0.31811523437,1.8366237596638504e-05,1.0241932850579807,1.01892443754,1.03466467071,1.2889575955417958e-05,982.0887022085262,981.98964445065,982.19456331069,0.003408622064048302,-0.0019283283412641346,Lift Up
-0.8647563733517895,-0.87561035156,-0.85668945312,1.8525207031222044e-05,0.4380743729404209,0.43005371093,0.44689941406,1.7669249627847046e-05,-0.32215126438715797,-0.33190917968,-0.31298828125,3.7327982805166416e-05,1.0215425960151578,1.01605382815,1.03408560896,1.7839456116862643e-05,981.8791722916868,981.77035700369,981.98964445065,0.00424672226920554,-0.0023559033170530734,Lift Up
-0.862233479814762,-0.86755371093,-0.85693359375,1.2326746216594587e-05,0.44272577194511903,0.4296875,0.4541015625,3.590012033922801e-05,-0.32059587750761903,-0.32751464843,-0.31042480468,1.669079450654534e-05,1.020924399269643,1.01456993026,1.02775690887,1.2058898681761473e-05,981.6615561482691,981.55353371792,981.77035700369,0.004344446192253476,-0.002690633063719982,Lift Up
-0.8635624231879775,-0.86840820312,-0.85803222656,7.3237190485076585e-06,0.44149128774213486,0.43273925781,0.45092773437,3.014179945228445e-05,-0.3247495501197753,-0.33935546875,-0.31005859375,5.2363053352510106e-05,1.0228699773867416,1.01429586737,1.02714057189,8.928241204158916e-06,981.4307645227105,981.32243832602,981.55353371792,0.004298454447276854,-0.0025212349590405885,Lift Up
-0.8645907315304039,-0.87219238281,-0.85803222656,1.2302525851915463e-05,0.4377651021892929,0.43237304687,0.44470214843,1.2070561065121229e-05,-0.3225036004530303,-0.33044433593,-0.31274414062,1.8547801869991746e-05,1.0213669448973737,1.01396490282,1.02990861553,1.620495287661062e-05,981.2228161219739,981.11824663873,981.32243832602,0.0037942035131790747,-0.002135729786728945,Lift Up
-0.8658420138855554,-0.87609863281,-0.8603515625,1.2144271506120584e-05,0.4379177517324444,0.43127441406,0.44616699218,1.3240260274701331e-05,-0.3267686631907778,-0.33557128906,-0.31481933593,3.0276294662943452e-05,1.0238553051257777,1.0198427068,1.03158645487,7.549963547663209e-06,980.996950633372,980.88025904821,981.09658094247,0.003941189057881235,-0.0023946276451716373,Lift Up
-0.862716674801,-0.87109375,-0.85363769531,1.9716075319438887e-05,0.436799621578125,0.42919921875,0.44580078125,1.884817464234775e-05,-0.33030853271162497,-0.3408203125,-0.32189941406,2.7307601582793273e-05,1.0218733208850002,1.01309901608,1.03017818498,1.7885255001661425e-05,980.7831983365534,980.68157775486,980.88025904821,0.003746370144684957,-0.0026224099672410564,Lift Up
-0.8606643676721876,-0.87316894531,-0.85095214843,3.738428808486577e-05,0.4389724731404166,0.431640625,0.44458007812,1.2015923849695706e-05,-0.3344802856409375,-0.34191894531,-0.32312011718,2.2362349066709416e-05,1.0224238584959375,1.01293493689,1.0361247732,3.791095950778182e-05,980.5509961382874,980.44505763912,980.66702771302,0.004096208031577379,-0.0022891118258486407,Lift Up
-0.8589907997489472,-0.87170410156,-0.85180664062,2.3522899642028126e-05,0.4413998252434736,0.43371582031,0.45202636718,2.0114148046301896e-05,-0.3264352898821053,-0.33264160156,-0.31591796875,1.9691826108901475e-05,1.019461366118421,1.010765901,1.03063736404,2.0398226556939564e-05,980.3429203574793,980.22892128181,980.44505763912,0.00418910514402824,-0.0023359883232484395,Lift Up
-0.8309269394939532,-0.85583496093,-0.81433105468,9.175711063288783e-05,0.4241702057559302,0.41040039062,0.43835449218,5.352105103631381e-05,-0.31736861827372104,-0.34582519531,-0.30224609375,9.832467001126385e-05,0.9854871588239534,0.96914503287,1.01436476647,0.00014024285973823043,980.1296871749562,980.05668235897,980.22892128181,0.0025991125877351893,-0.0020196743187649155,Lift Up
-0.8539000763254023,-0.865234375,-0.84155273437,2.9912358359753768e-05,0.43687842357735607,0.42834472656,0.44470214843,1.4418998492890515e-05,-0.34043445805977013,-0.35095214843,-0.32653808593,4.338451372819547e-05,1.0178178730517242,1.00562680713,1.02948569605,3.763510041654594e-05,980.0331184549475,980.01584778756,980.05724454709,8.123626843352196e-05,-0.0002524888213775852,Lift Up
-0.7851876740360397,-0.97595214843,0.04211425781,0.04681536425702931,0.4213770498110892,-0.28540039062,0.71252441406,0.022605652118202483,-0.4493299427560395,-0.76379394531,-0.32080078125,0.025467140108150196,1.037023182595446,0.61167066928,1.25386990289,0.014652360447683099,980.0336337136816,979.90694551227,980.14851206719,0.0025144911526715093,0.0003607005600733744,Lift Up
-0.5357313368036666,-1.27062988281,0.47705078125,0.38219194473702417,0.42012125650811105,-0.28540039062,1.21997070312,0.13774812403951034,-0.16181098090066667,-0.98217773437,0.33325195312,0.0885456033996469,1.0074995497225554,0.31907977174,1.42840314719,0.07722010771395083,979.9372924998756,979.75670343293,980.24470673076,0.017062827163429727,0.0015358312279185851,Lift Up
0.32364456741654324,-1.39587402343,0.66967773437,0.1800294777144707,0.6592505184185184,0.10498046875,1.08081054687,0.04469089093174446,0.19610369646777778,-0.48681640625,0.49096679687,0.0724461455298287,0.916434665318889,0.55530728382,1.44384933848,0.031852245401538394,979.9436884916566,979.85166153226,980.25929520566,0.007852024368030893,0.002595660919387522,Lift Up
-0.9788193813548833,-1.39587402343,-0.77575683593,0.019276240553579974,0.3898840615875582,0.27136230468,0.54345703125,0.007937116058814517,-0.0674083620977907,-0.29895019531,0.22485351562,0.018137063038086088,1.0686270847950003,0.82913623103,1.44384933848,0.017705976358045508,980.0104958101253,979.8985468344,980.25929520566,0.006598949770847938,0.0002999497066220568,Lift Up
-0.9582922363233999,-1.13439941406,-0.80053710937,0.009257232316420652,0.3718261718705,0.22387695312,0.62841796875,0.009384429213998714,-0.0520471191389,-0.181640625,0.13427734375,0.009116502618853151,1.0367246239024999,0.87278549924,1.23347617272,0.012091163233771232,979.9780928447616,979.90742794088,980.08819243642,0.0024592848168548515,2.3914031659624942e-05,Null
-0.9870523174122472,-1.11022949218,-0.85961914062,0.003690472312128008,0.3365025895326966,0.21362304687,0.47778320312,0.0058098142059979365,-0.09662070970651684,-0.18225097656,0.02575683593,0.0022619099480846953,1.0505481355250563,0.89292698059,1.19737944443,0.0048752617367937056,979.9850765357869,979.90800460201,980.07353148894,0.0020207920749429373,0.0009630391872669869,Null
-0.9637927543789023,-1.00793457031,-0.90283203125,0.0005400970968515944,0.34128626381182925,0.30615234375,0.43078613281,0.0010915137838654553,-0.13114370950573173,-0.25732421875,-0.04113769531,0.002745691293168756,1.032422966125,0.96927906017,1.1199999135,0.001010522707223822,979.9746417903424,979.88328583026,980.03149670791,0.0008993129895588388,-0.0003645615925863797,Null
-0.8767628389207843,-0.96813964843,-0.72521972656,0.008948757085785478,0.45074462890166656,0.24560546875,0.71850585937,0.018611393278675867,-0.009833840762352941,-0.22351074218,0.29064941406,0.024356518219749712,1.0113375245367648,0.95066936934,1.0420667055,0.0005903817787465197,979.9857021043749,979.88328583026,980.35741957924,0.011289054306690334,0.00027056045984576323,Null
-0.9551700058761291,-0.986328125,-0.8525390625,0.0009577788269305729,0.3275605888737635,0.27990722656,0.36645507812,0.0006315782388171462,-0.08104681199279569,-0.22253417968,-0.02917480468,0.0015179242149928852,1.0139799854632257,0.90174027281,1.06431741811,0.0011450361926774214,979.9643870116715,979.94339069474,980.02305065899,0.0004011462269660489,0.00013503375477236695,Null
-0.49446033295928565,-1.05249023437,0.17736816406,0.19982569077772974,0.3890337262789285,0.01782226562,0.62255859375,0.01605920850755664,-0.6323213123091668,-1.1142578125,-0.10632324218,0.09494057081468038,1.0445193050860713,0.87247129749,1.30269792039,0.011914935713825577,979.9588457366392,979.82820410976,980.14083076046,0.009859178822388466,-0.0025829838891262835,Null
-0.7137958477063636,-1.69702148437,0.30407714843,0.4170469454795221,0.17905178317545453,-0.19250488281,0.60534667968,0.04003942653339549,-0.3140789874164934,-1.1142578125,0.10119628906,0.11281010364827951,1.0495468566655843,0.59809207608,1.83132529738,0.10248728569956887,979.9678604873396,979.78682566303,980.46113354746,0.034542571554206994,-0.0004528693541764302,Null
-0.5237708963346238,-1.140625,0.1298828125,0.18932408584703725,0.544920562412688,0.18017578125,0.86535644531,0.03624089855682256,-0.4675909883195698,-0.89514160156,-0.07092285156,0.06662891533850551,1.0277915412358065,0.8037326388,1.34040336488,0.022858066827527557,979.9926442812732,979.86051071155,980.0950089023,0.004933509974769423,0.00047235411736385694,Lift Up
0.16367111992237113,0.06384277343,0.24230957031,0.0023390560529943107,0.874950920180103,0.65600585937,1.00280761718,0.00590697417028511,-0.5138405082113402,-0.71362304687,-0.39306640625,0.012801931687602762,1.0370943679619586,0.95918357318,1.10570522919,0.0016425946205350242,979.9127571877616,979.86051071155,979.956596244,0.0005991562820618598,0.0006338903799146784,Lift Up
-0.4328879871574712,-1.03723144531,0.26574707031,0.2584133166964959,0.6762190193922988,0.29797363281,1.15673828125,0.06675287441905248,-0.36573107488827583,-0.76135253906,-0.06860351562,0.03946388523012278,1.0564789278357472,0.65654467597,1.24440306286,0.022978714997484495,979.9874748593808,979.87955160504,980.26233867871,0.008620428184565059,0.0005632546864411571,Lift Up
-0.6904342651325,-0.98559570312,-0.48132324218,0.018694692187537925,0.6875061035115,0.33801269531,0.85583496093,0.018352414950510088,0.02752380371225,-0.31494140625,0.28955078125,0.03709281961039293,1.009366495350375,0.82466281661,1.12614882938,0.004571273252260492,979.938481616369,979.87955160504,980.03604604808,0.0017127867832206981,0.00036307407150908935,Lift Up
-0.7075359637880769,-0.79382324218,-0.60766601562,0.0033090016382780114,0.67989642803125,0.63537597656,0.76989746093,0.0015717237531083063,0.2509929950373077,0.07897949218,0.37036132812,0.00865468615979399,1.0193788235014423,1.00206419122,1.04525185481,0.00013717299354754328,979.9769194398724,979.94169176135,980.02149686397,0.0006993990399914719,0.0005694049628149879,Lift Up
-0.7626047441996774,-0.80114746093,-0.72802734375,0.0003515316426524587,0.6677521736359139,0.63952636718,0.69970703125,0.00019813203590406396,0.10393565187881718,0.07604980468,0.13305664062,0.00021239482265751378,1.01923782289957,0.98410146182,1.04971880184,0.0001715503262914421,980.0134795673674,979.96393456739,980.10141695256,0.001213611726672245,-0.00043213032485946173,Lift Up
-0.7521781461740963,-0.76354980468,-0.73864746093,5.323039391838107e-05,0.676972538587229,0.66833496093,0.68566894531,2.2249828888597157e-05,0.09922257388518071,0.0859375,0.10974121093,3.111283199548453e-05,1.0168537825654216,1.00625238981,1.02724409163,2.28699804269415e-05,979.967928728826,979.95321761661,979.98266855527,9.596358263487968e-05,0.00033540276570812944,Lift Up
-0.7629298159914473,-0.77233886718,-0.75415039062,2.6967034006009073e-05,0.6670548288411842,0.65856933593,0.67626953125,2.8634664797263118e-05,0.09546380293684209,0.06884765625,0.11926269531,0.0001554526650095318,1.0180036446803948,1.00906547016,1.02445186694,1.4433139429590661e-05,979.9779853601965,979.9727240859,979.98622062551,1.418326120329409e-05,0.00010120746593835911,Lift Up
-0.7579690684401087,-0.7724609375,-0.74890136718,4.547648578409514e-05,0.6722106933551085,0.66467285156,0.67993164062,2.1224370695249957e-05,0.09461245329097828,0.07995605468,0.10522460937,4.051864944888914e-05,1.0175595126308692,1.01092044898,1.0275403839,1.46933324953173e-05,979.9790061772078,979.97229303915,979.98876467677,2.0723351764865244e-05,-0.00010032310146689143,Lift Up
-0.7530990911949998,-0.78015136718,-0.73937988281,0.00010857712134281903,0.6887007732740816,0.67102050781,0.71032714843,0.00011000457926187936,0.09479507134479592,0.07995605468,0.11389160156,8.576803180081624e-05,1.0249748882682654,1.00923004556,1.05873772743,0.00018268853105697953,979.9803823880071,979.97376941724,979.98440411141,6.172117313666012e-06,-3.4120758697795803e-05,Lift Up
-0.5022263960367046,-0.87072753906,-0.15954589843,0.06470971751328747,0.8390086780859091,0.70776367187,1.03674316406,0.013007401353540941,0.3139717795593182,0.08093261718,0.87683105468,0.054370339011598254,1.0847735211742047,0.83234646695,1.31645613442,0.00869689326967587,979.9229517442983,979.82666205056,980.0111069102,0.003944239783409024,-0.0020015255374697992,Lift Up
-0.81690521239825,-1.04064941406,-0.181640625,0.07016277056421343,0.40419311522949997,0.22436523437,0.79089355468,0.02103118168402454,0.10814056396587501,-0.21057128906,0.84985351562,0.09263109104129373,1.004396769924,0.68952499533,1.17505613887,0.015306269199735904,979.8661601593419,979.69846602324,980.02589729791,0.007358646587285169,-0.0026347459943027256,Lift Up
-0.9142779181945097,-0.98889160156,-0.86376953125,0.0008209740692024597,0.33980066635676454,0.30224609375,0.40405273437,0.0008037711862762406,-0.12798832911705882,-0.173828125,-0.06005859375,0.0006582045704013158,0.9844817186777447,0.9432140499,1.05303473779,0.0008139100077182284,979.6138920080082,979.51564176117,979.72722623857,0.0033444858189516733,-0.001062994408601001,Lift Up
-0.9454739478286022,-0.986328125,-0.90563964843,0.0004652502619136228,0.3421972131170968,0.2626953125,0.48962402343,0.004644316941918187,-0.11734238490838708,-0.18310546875,-0.00073242187,0.0025131106829024293,1.0157667865364515,0.97912217184,1.06856205776,0.0005536562548671524,979.5413157531472,979.39592874513,979.71452469574,0.007108626443022906,-0.0018827850978793872,Lift Up
-0.9644437123449396,-0.97985839843,-0.94750976562,7.837949484576131e-05,0.28043815888144574,0.25561523437,0.34753417968,0.0003247658776502535,-0.1409338525938554,-0.16369628906,-0.125,0.00010848348364595434,1.0144414875643373,1.00014450847,1.03421532674,7.44155818045205e-05,979.5753814187644,979.54021473404,979.61437500586,0.0005743139784600094,-0.0008877924449531135,Lift Up
-0.9619584517011688,-0.97912597656,-0.93896484375,7.873338660640003e-05,0.2927642425892208,0.24938964843,0.32348632812,0.0003269712554909155,-0.13057084516753248,-0.14965820312,-0.11511230468,7.31878018314869e-05,1.0141638457948048,0.99366609531,1.02868729841,6.89728406835673e-05,979.5227094912364,979.49339298152,979.5474142455,0.00020048400857852826,-0.000318585086782886,Lift Up
-0.9597605010574074,-0.98278808593,-0.90991210937,0.0003541273283385477,0.2956693672803703,0.23181152343,0.40234375,0.0020832513954687987,-0.1074761284688889,-0.16491699218,0.09997558593,0.004344804212303627,1.0129683263495062,0.95272324646,1.06504849223,0.0007141511019784901,979.4938392142258,979.38514747605,979.53030999137,0.0013953884762736683,-0.0008013100416567263,Lift Up
-0.9843426872670585,-1.16076660156,-0.86291503906,0.005182057007311121,0.22107292623764713,0.0302734375,0.39807128906,0.013587425975361016,-0.01164455039862745,-0.15466308593,0.13171386718,0.009100767691073302,1.0201507712103925,0.93501897583,1.20028307526,0.00487658683998068,979.499672606725,979.38514747605,979.6735181801,0.005524608678196576,-7.448918619677525e-05,Lift Up
-0.9894187843373624,-1.22399902343,-0.76391601562,0.01802015035669037,0.18774145775769233,0.02075195312,0.36767578125,0.010456781910074,-0.016707535627142858,-0.12414550781,0.10583496093,0.004296814801837491,1.0150684814942854,0.83362456338,1.26986981499,0.016708713620725735,979.4730092586474,979.35511210585,979.58659931828,0.005455672590544692,-0.00038046947644838376,Lift Up
-0.9787156438224095,-1.0703125,-0.89904785156,0.0012428559102677591,0.26618534685301204,0.06555175781,0.36767578125,0.006590173388456883,-0.0723626929579518,-0.16491699218,0.08239746093,0.007030067922644849,1.0232723883406023,0.93966393276,1.10832956242,0.0015921350440103073,979.5165665725089,979.4142676898,979.59123023463,0.0025604373041017555,0.0017255513548300621,Null
-0.9646291632357893,-0.97717285156,-0.94091796875,4.7361506998718544e-05,0.2915732935819999,0.26782226562,0.30517578125,8.704644968328267e-05,-0.10973735608221051,-0.15417480468,-0.0908203125,0.0002905005002849129,1.013874374966,0.99230816625,1.02568129279,4.637105573258975e-05,979.5121447713454,979.48109923822,979.53392454953,0.00013528051909790013,0.00015485173481929123,Null
-0.975027720129896,-1.05590820312,-0.95703125,0.0005736362760622052,0.2780532836877083,0.07141113281,0.30541992187,0.001767289422857765,-0.10876083373697916,-0.12805175781,-0.03259277343,0.00029212281990726016,1.0211716419830208,1.0041666324,1.07886030166,0.00028727825042819806,979.4950652963225,979.40580011679,979.52604807855,0.0006848569191184145,-0.0007313017368442802,Null
-0.9819939273488505,-1.09375,-0.83190917968,0.0048102278604343065,0.2787412446090805,0.07141113281,0.48205566406,0.01418734558742319,-0.02342908135643678,-0.12670898437,0.06311035156,0.002749782589998481,1.0295375898324142,0.91778306909,1.13614921459,0.004155174831462502,979.4595146031085,979.38118348734,979.59208261895,0.004234994617552569,0.00035850627119094744,Null
-0.9780366149098733,-1.10302734375,-0.92272949218,0.001955202669703071,0.25480091722329107,0.03015136718,0.39978027343,0.010924584101991926,0.010459417028101266,-0.1123046875,0.10571289062,0.004720360630319637,1.0187033538993675,0.95252144574,1.10344716762,0.0012248690774593256,979.510707251381,979.43447121045,979.60423393665,0.002585959164360503,0.0007741853831800468,Null
-0.987630627815567,-1.10766601562,-0.89367675781,0.004101256443130602,0.15904125724525775,-0.00231933593,0.41845703125,0.009905184814231438,0.1600052351769072,-0.03088378906,0.37292480468,0.012911324318495511,1.024164314961134,0.91219362935,1.14661344357,0.00407983271836287,979.4693237465632,979.43769179106,979.50521480048,0.00032807192688310524,0.0001709689755671777,Null
-0.9752852590429472,-1.08166503906,-0.85717773437,0.002312005774308021,0.2622417249144211,0.11157226562,0.50366210937,0.013180286536596936,0.03198113692305264,-0.20263671875,0.34130859375,0.018766318703194035,1.0258696544154733,0.92987975368,1.11025324833,0.0024905140525553564,979.5422107020611,979.47586625348,979.59299185885,0.0008096400434737017,0.00042754817474056976,Lift Down
-0.939075558681628,-0.97802734375,-0.85717773437,0.0006888079741202455,0.3302470362439535,0.21887207031,0.47607421875,0.0034305176905706854,-0.09662574945186046,-0.21752929687,0.02282714843,0.005421232336983919,1.0042681432077907,0.92987975368,1.07699437911,0.0011510474064933345,979.5175504942687,979.4605297247,979.64212733501,0.003266446400450936,-8.420768685684583e-05,Lift Down
-0.9677566002114941,-0.98132324218,-0.9482421875,6.20069102939406e-05,0.2960597948063218,0.22375488281,0.35131835937,0.0008715292375174099,-0.06654235138022986,-0.0947265625,-0.04626464843,0.00018032602975517727,1.014696959323563,0.98841562224,1.0335875663,0.00012469708380715488,979.4712715928888,979.43926891254,979.50388150623,0.00044172574865591186,-0.00024883593217265735,Lift Down
-0.9651604076386139,-0.98168945312,-0.94848632812,7.911240404876824e-05,0.28866123916693065,0.25830078125,0.32141113281,0.00022080073849468871,-0.09226702699237624,-0.11291503906,-0.07604980468,7.906060997548067e-05,1.0117666027512873,0.99069468015,1.02574567188,7.745774547026848e-05,979.5249034882911,979.49585443069,979.53383563013,5.218865118311834e-05,0.00013255741889449906,Lift Down
-0.9692917727319103,-0.9775390625,-0.95788574218,2.2490239647380997e-05,0.28039413623168535,0.25695800781,0.30871582031,0.0002579060787115165,-0.12173016151258428,-0.13330078125,-0.111328125,3.344683210824726e-05,1.0164721924020226,1.00430367911,1.03038553649,6.092802315690216e-05,979.5034781792234,979.48827393264,979.52891285556,0.0001068008215387251,-0.00031004832997241294,Lift Down
-0.9654749428309756,-0.98901367187,-0.939453125,0.00011745235243743187,0.26106820454987806,0.19921875,0.35217285156,0.0016474525335223194,-0.13838009717512195,-0.17150878906,-0.11413574218,0.0002195679685660079,1.010588463095,0.98433010816,1.0274121947,0.00012022028341456387,979.5058425439883,979.4710161,979.57161738795,0.0008138513180613192,0.0006883061830741757,Lift Down
-0.9613627772135483,-0.98986816406,-0.9267578125,0.00023343984617123014,0.2922179519458064,0.25598144531,0.34802246093,0.0008687678064359419,-0.127025317115914,-0.15368652343,-0.08996582031,0.00024375197568212535,1.013370470356774,0.9923957546,1.04213898043,0.0001586345416617555,979.4978847762221,979.40441670825,979.5607260232,0.0016184070456603783,0.0006008543949835172,Lift Down
-0.9685171854829896,-0.9921875,-0.94091796875,0.00020129857038695895,0.2934759080976289,0.25012207031,0.33361816406,0.00039768167467131343,-0.11848245207443299,-0.13720703125,-0.0927734375,0.00012909669324706304,1.0192195814718559,0.99768771373,1.03799303846,0.00010483516833257167,979.4973915479147,979.4085880348,979.54298607907,0.0015620273624555774,-0.0009832043598272569,Lift Down
-0.9427434110057472,-0.98974609375,-0.90795898437,0.0004510480678283035,0.25863612382965523,0.15551757812,0.34643554687,0.0027022227361144916,-0.13773459949275865,-0.17907714843,-0.09118652343,0.0007166264689011473,0.9888274126628737,0.95509790817,1.04948970593,0.0006822085799515959,979.4976318429407,979.37827728406,979.67115294715,0.005499659723749294,0.00026258700038307524,Lift Down
-0.960369291755,-0.99340820312,-0.91906738281,0.00035269306874669893,0.24446614582916668,0.15844726562,0.37451171875,0.004645497444646732,-0.11312866210511906,-0.17810058593,-0.04016113281,0.0018784435668186094,1.0004833215892854,0.95736116444,1.04467192182,0.0007072798037286259,979.6206565828245,979.51859085896,979.73761710401,0.005834976231344295,0.002059314583647226,Lift Down
-0.9654744466107843,-0.98278808593,-0.93347167968,0.0001793816784108394,0.27252436618813725,0.21044921875,0.41687011718,0.0034622549215216187,-0.16471354166264704,-0.18994140625,-0.12719726562,0.0002382383881652792,1.0184752051659802,1.00346876326,1.04029814309,9.198328956853372e-05,979.7662548796576,979.62405357948,979.97396090428,0.009813967710479633,0.003024332705124997,Lift Down
-0.9586262126513186,-0.98425292968,-0.93347167968,8.362293314999915e-05,0.2655740255803297,0.17016601562,0.39562988281,0.003094083423725052,-0.19949106069296701,-0.25793457031,-0.13354492187,0.0006252424839410838,1.0163339610698898,0.9980926951,1.04056368208,0.00011819859669968675,979.9923015327572,979.87005105118,980.10404913962,0.005705256982097737,0.0024725456853060593,Lift Down
-0.9846638004913415,-1.02392578125,-0.95617675781,0.0005430816545625246,0.28349490281560974,0.24072265625,0.32214355468,0.0004102833315176052,-0.19395186261012196,-0.21130371093,-0.17907714843,9.26705502902952e-05,1.0430622373090241,1.0059129571,1.08965899497,0.0006113889999870256,980.2235492454546,980.10404913962,980.33596025183,0.004365247042646716,0.0026591203686003252,Lift Down
-0.9820526867335364,-1.02294921875,-0.95617675781,0.00031123999300301043,0.2380058474618293,0.20922851562,0.27172851562,0.00019560434604702355,-0.20239406678304878,-0.22546386718,-0.17651367187,0.00011463573462200212,1.0306796697071952,1.0045785471,1.07273193114,0.00035527331894871816,980.3869203612595,980.32857421626,980.41259444683,0.0005192780547426556,0.0008560526969037366,Lift Down
-0.9698628545928153,-0.97778320312,-0.95202636718,2.4150487535538244e-05,0.24671950849184465,0.23645019531,0.25646972656,2.6694314032112792e-05,-0.1928817600838835,-0.20703125,-0.18115234375,3.42633521911854e-05,1.0191959229056309,0.99974487447,1.02937161718,3.211030728597193e-05,980.4184076494273,980.41259444683,980.42698986796,1.1117047423569846e-05,1.0230533282895338e-05,Lift Down
-0.9649238176198923,-0.9873046875,-0.94567871093,0.00012427390095994317,0.2459191763232258,0.18518066406,0.30334472656,0.0009197163186361651,-0.19579946866193548,-0.20654296875,-0.17785644531,5.0235537930152383e-05,1.0152782276952688,0.99332305175,1.03929813122,0.0001862297518754913,980.3937638201947,980.35743033448,980.43113587161,0.000460714572247324,-0.00039442405124707114,Lift Down
-0.963088262645,-0.97570800781,-0.95141601562,3.551966627010939e-05,0.2546052478570238,0.19299316406,0.30334472656,0.0008415652869896441,-0.18761916387321426,-0.2265625,-0.16955566406,0.00020261520942866667,1.0141900686314285,1.00190006732,1.02778368041,4.972780999958867e-05,980.4300192815357,980.3982723394,980.53680092439,0.0011534598034384747,0.0008709434273447663,Lift Down
-0.9910302255618628,-1.10327148437,-0.89477539062,0.0032166359832754856,0.19385483685362745,0.07763671875,0.36340332031,0.007100712787908706,-0.11049278109450983,-0.23522949218,0.02380371093,0.007819952865494362,1.023214719060392,0.93459217201,1.15250138319,0.002949298771337952,980.4405670802919,980.33578330424,980.53680092439,0.002193887318712481,-0.0008947033224984853,Lift Down
-0.9839897155723959,-1.2431640625,-0.80993652343,0.015129461203259462,0.251155853268125,0.08068847656,0.43957519531,0.008459418370102547,0.03480656941520833,-0.14306640625,0.1904296875,0.009605936508027954,1.0243532769074999,0.83913922589,1.29912400855,0.01624514131569432,980.3687967209781,980.26885095657,980.65058295393,0.011847219532595552,-0.00099532894782349,Lift Down
-0.9910817700732558,-1.17236328125,-0.81909179687,0.0065639651365390584,0.2254028320273256,0.10620117187,0.35705566406,0.005640600271119011,-0.0583893531960465,-0.27160644531,0.08093261718,0.008257561024905217,1.0252611653553492,0.88243163172,1.18791916626,0.005587537129261206,980.4789782167845,980.388819523,980.60013840473,0.004321389104876205,0.00040011975015452454,Null
-0.9679125049401264,-0.990234375,-0.95202636718,5.636602417977835e-05,0.2557295787144304,0.21716308593,0.29479980468,0.000350429210055186,-0.15104887756835444,-0.21044921875,-0.13134765625,0.0003907598050113296,1.012822244054937,0.99974436025,1.03538050831,4.715633404025133e-05,980.4448451076994,980.41407196676,980.46895734679,0.0002104842867965294,-0.0005367807767566185,Null
-0.9752490234343,-0.98120117187,-0.96826171875,9.915479503739299e-06,0.2448876953086,0.23608398437,0.25939941406,3.181993359479635e-05,-0.1457824706995,-0.17175292968,-0.12390136718,0.00016690937406208155,1.0161293286154,1.00844259303,1.02789165115,2.1126919774290745e-05,980.4253866071912,980.40762263894,980.44163666025,0.00012881502414951288,-0.0003537884737940799,Null
-0.9721805533147423,-1.00024414062,-0.92834472656,0.00020781640103692135,0.25236086500927835,0.23559570312,0.29553222656,0.00022547905848989218,-0.1236005960025773,-0.15185546875,-0.05700683593,0.0005844741631373787,1.0123640256018558,0.97540661115,1.04484747505,0.0001786660006028841,980.433098907512,980.40593154287,980.51837457384,0.0010174723208026927,0.0007962818804686592,Null
-0.9818311669328734,-1.25805664062,-0.7021484375,0.025010487323874068,0.2127152366162069,0.080078125,0.47839355468,0.010392853583246712,-0.02237113864770115,-0.18579101562,0.16955566406,0.009096056035131578,1.0131109953449426,0.7227711045,1.28156982477,0.02765254618258913,980.3759276778508,980.27891680648,980.57678723706,0.005774486167081369,0.0006508394430500046,Null
-0.9944776452081523,-1.21948242187,-0.72595214843,0.02526394789372989,0.2901186735696739,0.13708496093,0.50256347656,0.010484598310233502,-0.007902725881956521,-0.18579101562,0.15112304687,0.00655161544116901,1.0421727414859778,0.76243305459,1.31906239167,0.029251388703599515,980.4011598433287,980.28261369259,980.57845813256,0.0067695884031738155,-0.0009781218742112884,Null
-0.9495777803264704,-1.19104003906,-0.748046875,0.02197798579721701,0.2883396522637255,0.13671875,0.4169921875,0.007327303050299485,-0.018884995403921568,-0.10559082031,0.07934570312,0.003251427939331438,0.9977583572682354,0.79086311659,1.25276920423,0.02212708500412054,980.4167929065379,980.33592923148,980.55967071982,0.004286799577284414,0.00046403075616666844,Null
-1.0286489633376923,-1.49719238281,-0.7265625,0.03357176671156689,0.20559860061472532,0.09936523437,0.43017578125,0.00854730037705669,0.026969490470659337,-0.1337890625,0.19763183593,0.0052071411744746094,1.0556807885151647,0.74700605328,1.50526127892,0.033832829907721185,980.4307587417193,980.31038312617,980.66387598799,0.007367514400070692,-0.0004284026585441791,Stairs Up
-0.9882068168784145,-1.32580566406,-0.71203613281,0.017074683108432766,0.17827327076634147,-0.00988769531,0.42590332031,0.0123827615457306,0.08153999142268292,-0.03918457031,0.22155761718,0.006047286359815433,1.016731060055,0.74418938344,1.34144624351,0.01651392959213652,980.3560342272413,980.25804208413,980.45895572415,0.0035311049250365796,0.0007829285689231653,Stairs Up
-0.994376804513587,-1.18725585937,-0.84545898437,0.00671449198956364,0.18424523394684786,-0.01391601562,0.3720703125,0.010918588191806196,0.039776345958043476,-0.05212402343,0.16369628906,0.00394078628494085,1.019473387407935,0.8769031077,1.19810507439,0.006396601849494208,980.281273473021,980.21293496495,980.42225898452,0.0034033667993343007,-0.0009137013557281017,Stairs Up
-0.9987696279362377,-1.18823242187,-0.80981445312,0.012049988413864116,0.21990060333831682,0.04418945312,0.40771484375,0.00967787186694992,0.018251324644356436,-0.06689453125,0.12756347656,0.0035798342861880065,1.0290832667407919,0.84477812328,1.21985039185,0.012397658428612885,980.2238404152337,980.13925212758,980.40403986656,0.003490675519083799,-0.00022411045807938518,Stairs Up
-0.9778795030341109,-1.24633789062,-0.80688476562,0.014319113966641213,0.21422254773888888,0.07202148437,0.34838867187,0.005996211072232404,0.024427625868555555,-0.07995605468,0.22009277343,0.00583695844418101,1.007182734629778,0.83547024725,1.27351873524,0.014340309712807243,980.1300712792447,980.01276503322,980.29087244105,0.005104523832770737,-0.0009723467096592433,Stairs Up
-1.0026027134441666,-1.51770019531,-0.73962402343,0.033991310309687946,0.22316196986250003,0.07678222656,0.39733886718,0.00893812910005439,0.07007271902666666,-0.08825683593,0.22009277343,0.007505507155065236,1.035726706319881,0.7698352523,1.55755788277,0.035718346745637994,980.0320152455822,979.95662385677,980.19017896633,0.003902666007012987,-0.0008147881025366611,Stairs Up
-0.9513388579699057,-1.21350097656,-0.73254394531,0.016803280320941624,0.24551794663537735,0.0244140625,0.42553710937,0.015077164841428445,0.057667858194339616,-0.05310058593,0.16027832031,0.003831813411142329,0.9915618179673586,0.74121514923,1.28722715056,0.021029166661317537,980.0102794903955,979.9522106818,980.16422623721,0.0034550913161330073,0.0008526324242857141,Stairs Up
-0.9764588058598925,-1.19970703125,-0.77514648437,0.01654923673107177,0.23072207870967737,0.056640625,0.42590332031,0.012629281644326277,-0.049460790488172035,-0.15466308593,0.08227539062,0.0024466141881696844,1.0128904359056987,0.82073510501,1.23112364401,0.014646377092945912,979.9717027837952,979.86778008656,980.13927473855,0.0077489564971750455,-0.0014048625128358326,Stairs Up
-0.9809570312461903,-1.21655273437,-0.7822265625,0.016903411192973117,0.2505420503134524,0.09509277343,0.36804199218,0.008338123685997192,-0.051997593469761905,-0.16796875,0.06604003906,0.005614785345643477,1.0203694113320239,0.81858995416,1.22265033293,0.017292880978799177,979.9798972578379,979.85598636356,980.14909596426,0.005337492856761313,7.282100501633801e-05,Stairs Up
-1.0259712414825641,-1.24670410156,-0.73779296875,0.02317535303862396,0.2229927258576923,0.01513671875,0.46252441406,0.010280988505055735,-0.01676119290974359,-0.15393066406,0.10046386718,0.004855074784388142,1.0563648931343592,0.76764824233,1.33026821889,0.02485580273536723,979.9135233541286,979.78065303304,980.14909596426,0.0073368503330717575,-0.0008342661156976968,Stairs Up
-1.0061935869200969,-1.45556640625,-0.76818847656,0.03685569090050682,0.16692344887485433,0.02880859375,0.37182617187,0.008032057118684351,0.032060641686019416,-0.06323242187,0.16455078125,0.004712885166248935,1.0267362585659228,0.78994121346,1.47561067854,0.03660396416689272,979.9475807737383,979.82044403231,980.17310412947,0.008770773335297091,0.00031015550099248106,Stairs Up
-0.9803806580190723,-1.33129882812,-0.73645019531,0.03231917375760684,0.2174751832280412,-0.10205078125,0.45227050781,0.020680237551392915,0.018902021584123713,-0.06604003906,0.11462402343,0.003999596877334465,1.0151670655707217,0.78322689752,1.40636759902,0.03500709274561155,979.8513783126743,979.71990634767,980.08620606875,0.008894025487050287,-0.0005818134850507366,Stairs Up
-0.9829115756699996,-1.30053710937,-0.75451660156,0.03155385097827571,0.1842736532494186,-0.04174804687,0.33703613281,0.009539487270651018,0.023867584937325582,-0.07312011718,0.15222167968,0.004225063928832658,1.0063426561020927,0.7572117912,1.33340163229,0.033092303221266946,979.7389112237641,979.61539811768,979.93973208274,0.009211259638918563,-0.0022978591746582767,Stairs Up
-0.9725249915953763,-1.31066894531,-0.73193359375,0.020771309809696874,0.2209170761873118,0.04138183593,0.43542480468,0.009771032066267,0.007283528644838709,-0.1015625,0.10729980468,0.004477939959493643,1.003913727974839,0.75174221697,1.3492800729,0.021696505830466842,979.6192246641996,979.54345329048,979.78849384539,0.004714894898613492,-0.0012539479918557714,Stairs Up
-0.9780080058756436,-1.291015625,-0.77978515625,0.01970808885483953,0.2565954227220792,0.03344726562,0.365234375,0.011119468645996363,0.022186581450198025,-0.07531738281,0.13293457031,0.003579934658147515,1.0187424796514855,0.83396072711,1.34278702607,0.019254335977810108,979.5560997365916,979.46514755333,979.74181618722,0.006566621204208285,-0.0004330379168459894,Stairs Up
-0.9932101779472222,-1.189453125,-0.84143066406,0.011183382613582257,0.234952799476,-0.02526855468,0.44934082031,0.019519526570026615,-0.00960693359311111,-0.13195800781,0.13342285156,0.00657385200894336,1.0330110488859998,0.89680417076,1.25895971498,0.011641668440590289,979.4734056795788,979.37003817148,979.64357873756,0.0054249574541900235,-0.0002876574367636587,Null
-0.9647789472387654,-1.17248535156,-0.87353515625,0.004531797426249764,0.2745572313806173,0.16369628906,0.41381835937,0.004899220462958387,0.06335298514493827,-0.04760742187,0.26831054687,0.006289404814225919,1.0105004257075307,0.91728569752,1.22814958999,0.004666535671509108,979.4564502007976,979.3210058229,979.61535942309,0.005384120314714447,0.0026771898596813113,Null
-0.9983883628330377,-1.16088867187,-0.91064453125,0.0036621419968867097,0.2152563167489874,-0.00122070312,0.33898925781,0.00548185687159976,0.06478688686632911,-0.0927734375,0.26062011718,0.012496476260023034,1.0325344365996203,0.95772048887,1.17090516331,0.002583834716703718,979.5059212713525,979.40679692928,979.69029623103,0.0066996440150782705,-0.002131735125242759,Null
-0.9750538951911322,-1.03051757812,-0.9228515625,0.000926853415134367,0.2708728718270755,0.185546875,0.33825683593,0.001956729802426558,-0.07351972471603774,-0.11596679687,-0.02868652343,0.0005158008657291263,1.0160895602636795,0.98706103751,1.06008396619,0.0004408399547527668,979.5255206734575,979.47981645127,979.58003581235,0.0008749008842706786,-0.00015164573212611787,Null
-0.9754417906386169,-0.9921875,-0.96264648437,6.457681387072545e-05,0.25945525473425535,0.2392578125,0.29431152343,0.00030303855894016823,-0.08538558634914893,-0.11596679687,-0.06872558593,0.00015260767190666504,1.0131863928601061,0.99629740409,1.02825386289,6.310792888171169e-05,979.4990345680166,979.4660457977,979.55534069065,0.0005186276343767109,2.4687699656846093e-05,Null
-0.9775259835347618,-0.99633789062,-0.96166992187,7.041858544369866e-05,0.23533703031619047,0.20068359375,0.25085449218,0.00017310244659378884,-0.11914498465059524,-0.13842773437,-0.09204101562,0.00017281664655444188,1.0126644011719048,1.00033424424,1.03002351739,5.8987802341914536e-05,979.5047412601142,979.46154202477,979.55534069065,0.0011089464646968372,-0.0012821332513073386,Null
-0.9784775600605377,-1.01611328125,-0.95532226562,0.0002784097255153519,0.24232794648397854,0.19079589843,0.30944824218,0.0011453884276888555,-0.12563004031849465,-0.17358398437,-0.03637695312,0.0017817607684628748,1.017272761017204,0.98663403894,1.05219921883,0.00025402793929091456,979.5064080277257,979.46154202477,979.59155811858,0.0014223068560043357,0.00017340809457769128,Null
-0.9795110643483504,-0.986328125,-0.97106933593,2.552610518436904e-05,0.2267235824701031,0.19506835937,0.2578125,0.00046767683900595297,-0.12491820030278351,-0.15417480468,-0.11181640625,0.00010211136243409559,1.0134077741382475,1.00020360364,1.02446087783,4.4382712645322545e-05,979.4872497437493,979.46669535228,979.50612448991,0.00013747123722067695,-0.0002882933362124639,Null
-0.9857514480021838,-1.16333007812,-0.83581542968,0.005603191010403769,0.22432735048195407,0.03100585937,0.50866699218,0.011895057874414467,-0.09696311511919543,-0.21533203125,0.11010742187,0.0059548309700735306,1.0226251245408042,0.86058556516,1.28780699768,0.0089548108490817,979.5059372741684,979.4405575068,979.58297569606,0.0015014786425239558,-0.00027457805151275927,Null
-1.0015321389167946,-1.23327636718,-0.83435058593,0.011268346591142247,0.1934391902010256,-0.01599121093,0.42456054687,0.01298492946647299,0.009272648737564103,-0.17895507812,0.1767578125,0.007490622316531323,1.0298207787684617,0.85684067094,1.26378876323,0.011525175197265888,979.4610371719352,979.32696244099,979.57158075844,0.005056627683941057,0.0009244832327224393,Null
-0.9844231856461841,-1.04516601562,-0.92028808593,0.0007740068749608544,0.19957371761513157,0.10778808593,0.26977539062,0.0017551804294093218,0.004645096628552631,-0.15539550781,0.15173339843,0.00881575182795634,1.0096512997115787,0.93853639695,1.06094083265,0.0007500396727516085,979.4768411743962,979.42795805553,979.52649949237,0.0007322936199795016,0.00038865259699887657,Null
-0.99133420457549,-1.17175292968,-0.89562988281,0.0046946036032533365,0.2379066616845098,0.07531738281,0.337890625,0.005250140953723891,-0.029585296032156868,-0.11975097656,0.13537597656,0.004932306422978247,1.0247691748804904,0.93310566836,1.21992681614,0.00484521241476026,979.5208437691873,979.45376573856,979.58973956153,0.0015045941850893453,7.454355649056758e-05,Null
-0.9721653435776343,-1.18981933593,-0.83288574218,0.008320085373379974,0.27307916456247316,0.02563476562,0.39599609375,0.011389500358379349,0.04284799227107527,-0.07275390625,0.2900390625,0.009872988997960795,1.0212160813075268,0.89913018931,1.25055812654,0.007981657897710898,979.4684676443073,979.38158838625,979.60413311544,0.004056290887599418,0.0006960204087003756,Null
-0.9918514476076469,-1.14611816406,-0.86010742187,0.003813405443623461,0.17060403262505885,0.06811523437,0.34387207031,0.003256655624191244,0.033658375459294114,-0.13208007812,0.25256347656,0.015022805540745162,1.0161612721301172,0.89913018931,1.15657202643,0.003295911284501421,979.4993592591264,979.39263414554,979.58080136924,0.0032488954592296256,-0.00016683075617796977,Lift Down
-0.96939780495,-1.02001953125,-0.92944335937,0.0005479144495432024,0.2973452481319318,0.23461914062,0.384765625,0.0011145457247784133,0.028242631389886363,-0.04089355468,0.11169433593,0.0016205958871538784,1.0158266977737502,0.98430391085,1.04820597433,0.00028910098934546073,979.4412272780588,979.39560850108,979.47345796647,0.0005618491760647625,0.0005349623491527654,Lift Down
-0.9849011230431001,-1.00830078125,-0.96752929687,0.00012646380550712622,0.217781982418,0.18200683593,0.26953125,0.0004770702349817248,0.0337585449214,-0.04675292968,0.13891601562,0.0031280596972777844,1.0110307450038003,0.99025805292,1.03465013907,0.00011107459701524498,979.4929606950489,979.45529744965,979.52833878476,0.0006609197895517542,0.0007816260555138382,Lift Down
-0.9919596354129999,-1.00268554687,-0.97863769531,3.386019320851941e-05,0.20922987195755557,0.16723632812,0.25122070312,0.0007649125994158582,-0.031233723954444445,-0.05517578125,-0.009765625,0.00016458556891965948,1.0146983757998886,0.99987507576,1.03209247999,7.732278900567648e-05,979.5095586050769,979.48391928266,979.53230432285,0.00023653723219418946,-0.0003922230196755546,Lift Down
-0.9905197143516251,-0.9990234375,-0.98327636718,1.7775366485498983e-05,0.201074218746,0.16723632812,0.2255859375,0.0002082244505014973,-0.034228515621625,-0.04504394531,-0.02404785156,2.63466110645242e-05,1.011413086740875,1.00018013136,1.02081838746,2.4807407049022186e-05,979.4791406366719,979.46860352219,979.48928894328,4.39225420264626e-05,-0.00015585254468359846,Lift Down
-0.9939028256875325,-1.00048828125,-0.98291015625,2.510763159381984e-05,0.2045216746103896,0.18579101562,0.22692871093,0.0001094531438452305,-0.04279436383506494,-0.05090332031,-0.02380371093,5.072097582518383e-05,1.0157135267270125,1.00669731865,1.02086709738,1.2367604761165954e-05,979.4851659628506,979.46944206474,979.49889312371,7.93561553168912e-05,-0.00014137266797028573,Lift Down
-0.9914220174111459,-0.99829101562,-0.97985839843,1.984222286305009e-05,0.2151489257778125,0.19104003906,0.236328125,0.0001249708627317537,-0.028401692704583332,-0.05212402343,-0.00830078125,0.00010927842373057367,1.0149456016690623,1.0009960489,1.02251046542,3.348353789828897e-05,979.4805850589555,979.4612394712,979.50006920675,0.0001898032620348951,0.0004547910792243201,Lift Down
-0.99039459228125,-1.00085449218,-0.97338867187,6.525369458249985e-05,0.2065455118775,0.18908691406,0.22448730468,9.180087138645921e-05,-0.03562037149677083,-0.04479980468,-0.0205078125,4.097430948719215e-05,1.0124035545139585,0.9985920188,1.02421402773,4.6804185970438445e-05,979.4774960974664,979.46708554727,979.50112664313,0.00011344784123426069,-0.00029535594312069576,Lift Down
-0.9592980673115116,-0.97607421875,-0.9482421875,5.6765900186018916e-05,0.21175508720639538,0.19677734375,0.2255859375,5.885224825935732e-05,-0.03908237190697676,-0.05688476562,-0.01794433593,7.638996505337829e-05,0.9833198115784885,0.97171070298,1.00154805314,6.764439051213464e-05,979.4952770326854,979.47624098672,979.51557605888,0.00010197676650051184,0.00033239834064421056,Lift Down
-0.9674336996383132,-0.99279785156,-0.95129394531,0.00016033760229377928,0.21098897542879524,0.1943359375,0.23010253906,7.860294220314019e-05,-0.0450439453086747,-0.0673828125,-0.03015136718,9.036027804551288e-05,0.9912747349850605,0.97258762132,1.01584702779,0.00017511084972114305,979.5984150734723,979.51557605888,979.69329842457,0.0027652377053728606,0.002161869662695307,Lift Down
-0.9947154220987376,-1.00500488281,-0.98315429687,2.7483477048582563e-05,0.1914643222816505,0.18530273437,0.20434570312,1.6763176598654993e-05,-0.056131011070679616,-0.0673828125,-0.04150390625,4.339347492068057e-05,1.0145579910333984,1.0037870893,1.02528175865,2.71840763956018e-05,979.7949959264793,979.69329842457,979.90763953816,0.0042204693757749425,0.0021652380749760513,Lift Down
-0.9900008491804347,-0.99841308593,-0.98205566406,2.2582841500111748e-05,0.18639871348108697,0.17346191406,0.20593261718,7.268032472615904e-05,-0.06458713696891305,-0.07409667968,-0.05163574218,3.6778705390579544e-05,1.0095136304580437,0.99993749512,1.02170819953,3.083170870418965e-05,980.0443671397588,979.90763953816,980.15333158652,0.006055984227963412,0.002877332023118745,Lift Down
-0.982121165202439,-1.00317382812,-0.96337890625,0.00013923836163785998,0.2383914110092683,0.16845703125,0.37219238281,0.0025590207876614772,-0.05552115091085367,-0.09558105468,-0.00048828125,0.0007537970589785564,1.0137484951469513,0.9920647763,1.03889873476,0.00020144942930179488,980.27479650701,980.15333158652,980.46801422653,0.004648528623251826,0.0024214329793269536,Lift Down
-0.9909250359740788,-1.00549316406,-0.97937011718,4.6962719219739634e-05,0.19826949269736843,0.18151855468,0.21813964843,0.00012919727908775578,-0.040909616568026316,-0.05725097656,-0.01513671875,0.00013048225327331006,1.0115095465652633,0.99709079433,1.02945459015,6.876487543554359e-05,980.5476958522869,980.46801422653,980.64294834035,0.001914524644361963,0.0018903038202257444,Lift Down
-0.9903162023476921,-1.00903320312,-0.97814941406,4.431838954480859e-05,0.20064737508219782,0.16674804687,0.22705078125,0.0002448421367543242,-0.06704208876725275,-0.08947753906,-0.015625,0.0004640948496121973,1.013003751505934,0.99436987761,1.03002770553,4.9108359060942726e-05,980.7761040061933,980.64294834035,980.90881424204,0.005184850594447895,0.0026810184568802783,Lift Down
-0.9851715396109091,-0.99853515625,-0.97106933593,5.950074519752994e-05,0.22032828282515157,0.1943359375,0.2587890625,0.0003158307965103014,-0.07851710463626262,-0.10803222656,-0.03820800781,0.0004554686719064955,1.012951759200505,1.00051375692,1.02612452809,5.343578319941632e-05,981.0116753372954,980.90881424204,981.16421897249,0.004648757110596823,0.0022802416143910768,Lift Down
-0.980832186608409,-1.00390625,-0.9619140625,0.00013778537760397613,0.24112493341238636,0.11022949218,0.34814453125,0.003213114834149474,-0.040813099251590906,-0.1455078125,0.06115722656,0.00394930643789354,1.01433019286875,0.98493863424,1.03932594602,0.00019241701936140268,981.244817211148,981.16066042375,981.30251880171,0.0019544577664470297,0.0014998027604932994,Lift Down
-0.9875640869097498,-1.02697753906,-0.95056152343,0.00037759217096424054,0.23761901855162498,0.15124511718,0.37841796875,0.005791590476035505,-0.014480590818625,-0.09362792968,0.0888671875,0.0030904673980758136,1.020214379006875,0.97919843077,1.04819752296,0.0002651509157896493,981.5342713351117,981.25505447285,981.68939213112,0.018109809657359865,0.0026214074317739713,Lift Down
-0.982997857247767,-0.99389648437,-0.96545410156,4.89898807479742e-05,0.23360939395825242,0.20678710937,0.34716796875,0.0005412125687718956,-0.055816946673592216,-0.08239746093,-0.00854492187,0.0003264796846202485,1.012332180218252,0.98742373962,1.04648369977,6.564435874973528e-05,981.7581862588946,981.45298768619,981.91175183846,0.01242551575243933,0.0035001198648323263,Lift Down
-0.9821081674182794,-0.99877929687,-0.97338867187,5.6299631318619754e-05,0.23127861432806457,0.20776367187,0.24609375,7.692361167670024e-05,-0.07362677460956989,-0.08728027343,-0.05847167968,6.263021094940465e-05,1.0118297583258065,1.00254496445,1.02828504858,4.644718059826932e-05,982.0298002821921,981.91175183846,982.12648348448,0.0034193851947431227,0.002098321868985002,Lift Down
-1.012317475815119,-1.04797363281,-0.98059082031,0.0005630023576393576,0.23485456193809529,0.21362304687,0.24633789062,3.279899463542944e-05,-0.07541184197904763,-0.0849609375,-0.06384277343,4.096359775096694e-05,1.0419738726169048,1.01046865696,1.07670074178,0.0005565417084714137,982.263884667614,982.12648348448,982.41143615458,0.0073161808761061185,0.0034478951339745635,Lift Down
-1.0108309659051946,-1.04333496093,-0.9833984375,0.00046051396998900916,0.21735966669688309,0.20776367187,0.23071289062,4.531213947921492e-05,-0.0831615893825974,-0.09826660156,-0.072265625,6.102590285222844e-05,1.037319499114675,1.00937704139,1.07005675942,0.00047422206879689684,982.4556793095259,982.41143615458,982.46945975034,0.00025109755201541297,0.0005029424330044351,Lift Down
-0.9888430508654544,-1.00573730468,-0.97937011718,4.4440585899519034e-05,0.22214716130625003,0.20190429687,0.23767089843,9.331183240948481e-05,-0.08726501464477272,-0.10595703125,-0.07263183593,8.31069660453529e-05,1.0173238494370453,1.00664338602,1.03443285299,4.6183099874758035e-05,982.4883783007886,982.45773314912,982.50638224934,0.00020830510418481542,0.0004086159026374238,Lift Down
-0.9840679746648484,-0.9931640625,-0.97534179687,2.0175978736772132e-05,0.22347251814676766,0.21118164062,0.23583984375,4.997565017692321e-05,-0.08138514046373738,-0.09655761718,-0.07141113281,4.94041164576426e-05,1.0124480207943434,1.0015113258,1.01911644517,2.085012312072289e-05,982.4762201047826,982.46491039329,982.49563524262,4.8241271857842215e-05,-9.825061726955252e-05,Lift Down
-0.9823546677455055,-1.00793457031,-0.97705078125,4.177744118761438e-05,0.22365475772112364,0.16589355468,0.27453613281,0.0006814103105756788,-0.07367560568404495,-0.10192871093,-0.01159667968,0.0005230571774133863,1.010765820618764,0.99588976248,1.03031308789,5.556109290233338e-05,982.4710501529454,982.35899140045,982.54886094296,0.0027009966710715917,-0.0011115580560263436,Lift Down
-0.9980740017330865,-1.08666992187,-0.92919921875,0.0012120965867872982,0.16059178481555555,0.04858398437,0.20300292968,0.0012112207480648007,0.0076708381537037035,-0.10766601562,0.07495117187,0.0021942181349646228,1.0125637803732097,0.93164232841,1.09849804539,0.0012913380230797132,982.4995757390641,982.44038887361,982.56481406117,0.001056321092197074,0.00026439429826382216,Lift Down
-0.9742309570257999,-1.16931152343,-0.87927246093,0.004754894159028293,0.19707031249659998,0.05139160156,0.30419921875,0.007127038156169178,0.025067138672000003,-0.09423828125,0.18530273437,0.006579221009492958,1.0011052706185,0.89086320268,1.1847351035,0.004702834413640778,982.4770440079025,982.39944610803,982.64361230292,0.003440402090750635,0.0008083579389880076,Lift Down
-0.9892079343034408,-1.14526367187,-0.87902832031,0.005538501246051136,0.21692682081365589,-0.02722167968,0.38708496093,0.013867045163059083,0.060721448671397844,-0.04833984375,0.31201171875,0.009353360856905395,1.02616467242914,0.93721711341,1.16884620902,0.004763635859449935,982.4779901434518,982.38560397272,982.60570162763,0.003968232541180895,1.328676177545772e-05,Null
-0.9849695542244707,-1.00793457031,-0.96081542968,0.0002895284224820397,0.17434943703564706,0.02282714843,0.24816894531,0.004353291359803267,-0.054828239887529405,-0.12878417968,0.12963867187,0.00744674975822039,1.0076123294507056,0.979403894,1.03552697938,0.0002363988441993353,982.5401151607291,982.458518473,982.59953902122,0.00140717467835202,0.0005080091856098643,Null
-0.9871486229197467,-0.99853515625,-0.974609375,3.117626168649083e-05,0.22417826591721518,0.19079589843,0.24377441406,0.0002062572254194455,-0.081902998908481,-0.10229492187,-0.06823730468,7.117325630036047e-05,1.0157311424337976,1.00499032263,1.02454301951,2.162016160020432e-05,982.4903811311607,982.46581611686,982.51055697143,0.00024821613386160783,0.0002043777021110784,Null
-0.9827904562310678,-1.00170898437,-0.96142578125,6.779531071016845e-05,0.21337653594999997,0.18701171875,0.25598144531,0.0004023626097838873,-0.08836705476009707,-0.10815429687,-0.06713867187,0.00014437896205085718,1.0098433264604851,0.99895458412,1.02407765205,4.078580379932022e-05,982.4863971947917,982.44506044173,982.51404513442,0.00036099112929978975,-0.0005203066014641396,Null
-0.9813298764396738,-0.99291992187,-0.96740722656,4.938420492022681e-05,0.2426625127323914,0.21911621093,0.27746582031,0.00029130082095421436,-0.07182643724108695,-0.09191894531,-0.05615234375,8.63877822319163e-05,1.013595917767174,0.9959815841,1.02535103857,5.1508030634628354e-05,982.4948542354873,982.43846028284,982.52573248406,0.0005340550456440179,0.0007469347894012028,Null
-0.9999447777110714,-1.10998535156,-0.88806152343,0.0024654292215714082,0.2182152157711905,0.02380371093,0.40893554687,0.00879322365979839,-0.03280930291869048,-0.09008789062,0.07116699218,0.0023928501340847934,1.029271579019405,0.92652511489,1.18462020756,0.002848177760940382,982.5069093812771,982.47104119885,982.55805573341,0.0004191655418231387,0.00011276092022318415,Null
-0.9805432771350527,-1.06176757812,-0.94421386718,0.0006336412197090145,0.20868112664147373,-0.00695800781,0.33618164062,0.007836184559512018,-0.10306717721789475,-0.22875976562,0.11926269531,0.01072181997156866,1.0168715887029474,0.98228133544,1.08045547267,0.0006039316581585104,982.4947605238884,982.45966521847,982.52483409658,0.0004595280186335468,-0.00020002746246683214,Null
-0.9842881664752579,-1.12451171875,-0.8408203125,0.004652397694347699,0.21147989489123709,-0.00231933593,0.35400390625,0.006296420460127315,0.01919146665525773,-0.10107421875,0.09924316406,0.0030411827147534994,1.0112839391579382,0.85362937745,1.18308688474,0.005118590425965963,982.4940827746746,982.41973862159,982.59880067972,0.001787868379186551,-4.831241594641636e-05,Null
-1.009833757263372,-1.20922851562,-0.85021972656,0.006788194040815339,0.16068427506906977,-0.03344726562,0.30651855468,0.007271444601396595,0.13709915515802326,-0.04345703125,0.36047363281,0.013178772932524169,1.0413017365589532,0.88087171558,1.24642418572,0.007074472514952466,982.4645454610314,982.34903369393,982.56564472326,0.004760216093965675,0.0023115254164149048,Lift Up
-0.9916868571953162,-1.05554199218,-0.89440917968,0.0015679817914297568,0.1801680552767089,0.04516601562,0.310546875,0.0044309337712069175,-0.018055589892405063,-0.15637207031,0.11413574218,0.00763540435602726,1.0137445605435442,0.90837329377,1.08200576559,0.0020388631548453827,982.5035911880295,982.41775344641,982.57533422516,0.0023297217782183824,-0.0016799002163303044,Lift Up
-0.9879926045697918,-1.08129882812,-0.91467285156,0.0009578554629855226,0.24204254150031249,0.17932128906,0.31750488281,0.001284353454701565,0.07592900593760417,-0.0576171875,0.17333984375,0.00466088103425594,1.0229370699772917,0.94745061582,1.11842878114,0.0009197064289217513,982.5028629919576,982.46880207885,982.62040152433,0.0015756580837119104,0.000971619684106394,Lift Up
-0.9839235941535417,-1.00170898437,-0.97131347656,4.9995158779145524e-05,0.2141685485796875,0.19055175781,0.27551269531,0.00048138686015121934,-0.09883499145145834,-0.12072753906,-0.0654296875,0.00019852733236501105,1.0122553199822917,0.9964533512,1.02390665846,4.856479401748016e-05,982.6213432795674,982.4857880232,982.71291899202,0.004607260706633292,-0.0022971021017274313,Lift Up
-0.9822373501047672,-1.00427246093,-0.92712402343,0.0002929237815200167,0.2393983352980232,0.18481445312,0.35852050781,0.002797017910041974,-0.08291413062813952,-0.13000488281,0.01733398437,0.0012145160486273692,1.0163490111084883,0.96653747931,1.03827511919,0.00026874642637505445,982.5271046948416,982.45580633909,982.63319439104,0.003376123882347839,-0.00013870725010440766,Lift Up
-0.9729628451989535,-0.99536132812,-0.9580078125,7.880882101902228e-05,0.26402531113255817,0.21423339843,0.28247070312,0.00033703798025132086,-0.08535837572313953,-0.11340332031,-0.06774902343,0.00012035516644282832,1.0119817452084887,0.99648404422,1.02940120566,7.591249434680164e-05,982.5191619407237,982.45726921309,982.60404761785,0.0030749700504402516,0.0014722403217165495,Lift Up
-0.9780333275852943,-0.99987792968,-0.96337890625,0.00010229938615656036,0.250940659462451,0.20178222656,0.28698730468,0.0005275968832757081,-0.10378250420980392,-0.14025878906,-0.07727050781,0.00026988296531355125,1.0154354280072546,1.00140738543,1.03849543966,7.378542301130413e-05,982.5189369718881,982.46070630999,982.620911199,0.0028287041128794346,-0.0012966656782205416,Lift Up
-0.9824245876704446,-0.99536132812,-0.97094726562,4.74074509019082e-05,0.20475396049988887,0.16613769531,0.23071289062,0.00028079016862321077,-0.1239000108468889,-0.14953613281,-0.10021972656,0.00016730337144700374,1.011373354287333,0.99583388285,1.02125253471,4.793374596785407e-05,982.4805906882901,982.46020778052,982.49957047311,0.00014849786503820978,0.00012162638683273513,Lift Up
-0.9834505406781707,-0.99304199218,-0.96960449218,3.526940409041238e-05,0.20385593320951217,0.1796875,0.2216796875,0.00011397603629995669,-0.09540985851329269,-0.11291503906,-0.07702636718,0.00010456893906537289,1.0089899858091462,1.00026039369,1.01962657643,2.5487001985395743e-05,982.4979468781539,982.45355087978,982.56119079699,0.0010237543859102154,-0.0008286409709947624,Lift Up
-0.9970671824887176,-1.02270507812,-0.97290039062,0.0002054413318372151,0.21908491085410256,0.20935058593,0.23059082031,3.50724706023483e-05,-0.10035118689423075,-0.11938476562,-0.08447265625,9.492340382401656e-05,1.0258326591425644,1.00213324729,1.05093808049,0.0002127449348981472,982.4744527080766,982.44861643908,982.50471508184,0.00044119239634639253,0.000837695224716288,Lift Up
-1.020793433324757,-1.0322265625,-1.01513671875,1.2912456137712275e-05,0.20242931772990289,0.18994140625,0.21435546875,4.840798089447097e-05,-0.10867813258135924,-0.11511230468,-0.10131835937,1.2612994707811528e-05,1.0463607198608738,1.04081404203,1.05631887927,1.0358832003377933e-05,982.4741393717961,982.41631611202,982.51479029837,0.0007721927599517422,-0.0009096356235029875,Lift Up
-0.9946342136513041,-1.025390625,-0.97241210937,0.00029374541591190435,0.19774727199010872,0.17578125,0.21472167968,0.00011162258900132959,-0.10388979704054348,-0.12097167968,-0.08361816406,0.00011599908959554147,1.0195128204920654,0.99660356975,1.04972233648,0.0003069376642670767,982.3413608076424,982.23706605857,982.41631611202,0.0025552320250207842,-0.001662717041948957,Lift Up
-0.9836818150084522,-0.99853515625,-0.96044921875,9.034992726757724e-05,0.2157621837760714,0.16638183593,0.28186035156,0.001576839253237187,-0.09286353701238095,-0.14343261718,-0.03759765625,0.001108045721314138,1.012600611130119,0.98033955851,1.03825651186,0.00019134629180433927,982.0474536843107,981.88829776621,982.23706605857,0.016352062556142046,-0.004855591018267999,Lift Up
-0.9824336882509678,-0.99340820312,-0.96997070312,4.148161427995037e-05,0.23220529863505376,0.20373535156,0.28466796875,0.0006148896557740937,-0.08946835097043013,-0.11157226562,-0.04577636718,0.00042507060088664155,1.013967629915484,1.0002010486,1.02378021209,3.972444331879913e-05,981.8676677440646,981.75425388172,981.9946519575,0.00505929117647589,-0.00211040182406648,Lift Up
-0.9869586118676288,-1.0009765625,-0.97399902343,5.666187666302277e-05,0.21219847373969072,0.18591308593,0.23364257812,0.00017952537838346943,-0.10585761315690723,-0.11547851562,-0.08752441406,5.360547758588057e-05,1.0151630538685568,1.00243804678,1.02858043977,5.2650084773075365e-05,981.606842413967,981.46305900291,981.75425388172,0.007616267474816799,-0.003088549797277639,Lift Up
