avg_accX,min_accX,max_accX,var_accX,avg_accY,min_accY,max_accY,var_accY,avg_accZ,min_accZ,max_accZ,var_accZ,avg_magnitude,min_magnitude,max_magnitude,var_magnitude,avg_pressure,min_pressure,max_pressure,var_pressure,slope_pressure,Label
-0.822450057,-1.251708984,-0.221557617,0.1065857,0.375932776,0.11328125,0.857910156,0.074232433,-0.10115383,-0.47253418,0.036621094,0.029457281,1.010228729,0.739978122,1.305443482,0.015578708,972.7802369,972.6286179,973.1295348,0.039960216,0.004589565,Null
-0.359786377,-0.505981445,-0.2109375,0.008227987,0.92465332,0.715332031,1.166748047,0.012286934,0.04168335,-0.458251953,0.368041992,0.067243017,1.03225759,0.849686586,1.216070169,0.007567807,972.5918623,972.4989279,972.8927229,0.010046222,-0.000244993,Null
-0.772670898,-1.404663086,-0.036376953,0.209759574,0.475872803,0.067138672,1.049804688,0.0892053,-0.028216553,-0.548461914,0.240478516,0.065838816,1.069493618,0.59428378,1.474214079,0.042030779,972.5417962,972.3913135,972.8927229,0.018429993,-0.002921183,Null
-1.099849854,-1.395141602,-0.836425781,0.024653548,0.219573975,0.034790039,0.530883789,0.023960749,0.083045654,-0.062988281,0.247436523,0.00610995,1.136517233,0.854377399,1.436486244,0.027560196,972.604841,972.5407018,972.6388385,0.000544836,0.000661941,Null
-1.176949463,-1.532958984,-0.865234375,0.036808229,0.161207275,-0.159667969,0.483154297,0.022645041,0.176958008,-0.157226563,0.373168945,0.019646464,1.218218595,0.880858402,1.535632659,0.037135506,972.6250939,972.6123336,972.6969183,0.000341548,-2.75E-05,Null
-1.1187146,-1.318115234,-0.843505859,0.015786561,0.197647705,0.030395508,0.449951172,0.016547306,0.100999756,-0.056640625,0.20690918,0.006708485,1.150770744,0.851957396,1.351523233,0.015319743,972.6326265,972.6188939,972.6614098,0.000125882,-3.99E-05,Null
-1.120328369,-1.3515625,-0.872680664,0.021504622,0.175718994,0.007568359,0.388549805,0.01395087,0.047362061,-0.299682617,0.201049805,0.01711353,1.147817851,0.876699951,1.370673406,0.023043936,972.6409708,972.6238317,972.6791728,0.000311387,0.000426727,Null
-1.121895752,-1.443481445,-0.85925293,0.022482285,0.253519287,-0.022460938,0.459838867,0.023403322,0.066243896,-0.284545898,0.358276367,0.019645467,1.169111737,0.864209242,1.498748585,0.02562007,972.6328804,972.6167205,972.6641551,0.000162675,-0.000123736,Null
-1.063031006,-1.372680664,-0.850341797,0.015963346,0.144383545,-0.036865234,0.424926758,0.018700021,0.10060791,-0.090698242,0.518188477,0.027538032,1.096930541,0.869964312,1.421981362,0.019521468,972.6776955,972.5846796,972.9113854,0.007516744,0.001151016,Null
-1.059715576,-1.274169922,-0.883300781,0.009353204,0.128049316,-0.107421875,0.286621094,0.009906835,0.10029541,-0.128173828,0.289672852,0.010830013,1.08165024,0.9190032,1.299056465,0.009368493,972.5936205,972.4990015,972.9113854,0.00680707,-2.20E-05,Null
-1.197974854,-1.358398438,-0.990722656,0.011105984,0.217789307,-0.107421875,0.474365234,0.029751777,0.112601318,-0.068115234,0.225830078,0.005659866,1.235713162,0.991137911,1.408427486,0.014465072,972.6138014,972.5967045,972.636174,9.13E-05,0.000171059,Null
-1.170367432,-1.408813477,-0.931152344,0.017747711,0.192010498,-0.069335938,0.516845703,0.032006498,0.109816895,-0.067504883,0.274291992,0.008507066,1.207040466,0.936011985,1.453454821,0.01961584,972.6137801,972.5869981,972.6399043,0.000245765,-0.000438458,Null
0.085101318,-1.534667969,0.990844727,0.781195611,-0.117850342,-0.735473633,0.931030273,0.262243961,-0.23782959,-0.487915039,0.196411133,0.040086924,1.023623265,0.418562103,1.563194354,0.10361666,972.6002999,972.5595364,972.6333654,0.000494316,9.32E-05,Null
0.373453369,-0.551269531,0.878051758,0.176966549,-0.05048584,-0.845947266,0.598510742,0.220901582,-0.54701416,-1.088867188,0.139892578,0.204984391,1.012221259,0.748573626,1.200925631,0.013608939,972.6215492,972.5291956,972.8361455,0.007253687,0.000618671,Null
0.254991455,-0.279663086,0.532836914,0.066714741,0.243876953,-0.303833008,0.712158203,0.052300151,-0.84510376,-1.082519531,-0.380615234,0.030043472,0.980579511,0.398220171,1.167927062,0.024978362,972.6709572,972.3550881,972.8053867,0.015389252,-0.000882642,Null
-0.168062744,-1.28503418,1.074707031,0.793899909,0.32769165,-0.270996094,1.102905273,0.092590566,-0.376713867,-0.969360352,-0.021850586,0.068228477,1.071961096,0.536698132,1.469364013,0.074354962,972.500619,972.4404766,972.5494766,0.001291478,0.001071067,Null
0.378631592,-1.486938477,1.100585938,0.774609923,0.368735352,0.186401367,0.86340332,0.036594385,-0.11982666,-0.346679688,0.398071289,0.067315126,1.049400112,0.614815875,1.635202561,0.062807794,972.5771655,972.5494054,972.6208266,0.000365029,0.000497922,Null
-1.070053711,-1.415649414,-0.838134766,0.017180448,0.190371094,-0.008544922,0.603271484,0.020183419,0.076749268,-0.107421875,0.306030273,0.01257457,1.101767214,0.860852766,1.455847758,0.022923845,972.6187869,972.6037679,972.6445275,0.000109768,0.000107592,Null
-1.004880321,-1.068237305,-0.980102539,0.00039159,0.157473194,0.091064453,0.193969727,0.000882961,0.033559371,-0.027954102,0.080810547,0.000728249,1.018464779,0.996303551,1.084442351,0.00042469,972.6331127,972.6281363,972.6397815,6.78E-06,5.50E-05,Null
-0.974893375,-1.164794922,-0.263671875,0.025779762,0.228273976,0.022460938,0.809692383,0.038391459,-0.042697206,-0.611816406,0.22277832,0.040012564,1.04332716,0.666744806,1.423538383,0.019133514,972.641671,972.6332601,972.6623487,9.21E-05,0.000253902,Null
-0.323875191,-1.692260742,0.812133789,0.650918466,0.290502175,-0.05480957,0.748657227,0.072717066,-0.38113246,-0.895874023,0.22277832,0.074734941,0.986911266,0.51839732,1.821974254,0.152264343,972.6511915,972.5826015,972.7744999,0.003945063,0.000923458,Null
-0.630275451,-1.517700195,0.438964844,0.465193186,0.329818883,-0.051513672,0.903930664,0.074135631,-0.336171573,-1.129760742,0.140991211,0.186016315,1.116354169,0.452926954,1.746269768,0.090907536,972.5702589,972.4445669,972.8938509,0.014376587,-0.002473279,Null
-1.051795959,-1.217407227,-0.920410156,0.007191171,0.126188914,-0.161743164,0.377563477,0.021787206,0.081689199,-0.177856445,0.263183594,0.014214181,1.078477209,0.923104816,1.278690305,0.008590537,972.600096,972.5573402,972.642737,0.00047819,0.000649206,lift down
-1.062584807,-1.272827148,-0.879882813,0.008752553,0.133750514,-0.580932617,0.402709961,0.05973926,0.174917763,0.038696289,0.41796875,0.00914317,1.117197897,0.964877147,1.309061513,0.006325107,972.6260021,972.6038107,972.660187,0.00024827,0.000184207,lift down
-1.008152739,-1.171386719,-0.922363281,0.004542684,-0.03438487,-0.299072266,0.276977539,0.026372934,0.125906437,-0.052856445,0.311401367,0.012270459,1.035120325,0.950287276,1.209845025,0.004709358,972.6421579,972.6115191,972.7524141,0.00126538,-0.000195656,lift down
-0.949910915,-1.227905273,-0.329589844,0.047693349,0.146316853,-0.271606445,0.677734375,0.081331772,-0.11104113,-0.564575195,0.060424805,0.027933671,1.039653997,0.897517795,1.272426567,0.010590752,972.7224741,972.6172928,973.1778675,0.026173663,0.004562719,lift down
-0.40790704,-0.537841797,-0.299926758,0.003573687,0.88592789,0.636474609,1.040893555,0.010230102,-0.176831834,-0.487426758,0.01940918,0.02347422,1.007920362,0.897517795,1.120560582,0.003541531,972.6519668,972.5098151,972.9531698,0.018021509,-0.002154805,lift down
-0.401397705,-0.515625,-0.340087891,0.00206775,0.944245712,0.861328125,0.98815918,0.000798695,0.013194209,-0.029296875,0.043579102,0.00026684,1.027483353,0.984090862,1.071324204,0.000274337,972.6419194,972.5806631,972.7530975,0.002081029,-0.000858578,lift down
-0.456180696,-0.697509766,-0.361694336,0.013188791,0.915363271,0.691162109,1.0625,0.007359401,-0.002051569,-0.260742188,0.143432617,0.006355345,1.035154694,0.97379926,1.140190055,0.001075529,972.5774965,972.4556967,972.6929493,0.003959109,-0.001579536,lift down
0.426916101,-0.315185547,0.859375,0.139889304,0.05124941,-0.916015625,1.329956055,0.50461969,-0.287678142,-0.647338867,0.162963867,0.065519936,0.967439573,0.634387493,1.428277258,0.034306655,972.4711234,972.3402872,972.5908304,0.004892723,0.000808922,lift down
-0.000233409,-0.583496094,0.988891602,0.319871862,0.561449659,-0.66809082,0.976196289,0.206154683,-0.266368153,-0.654785156,0.104614258,0.050793268,0.971057272,0.791834382,1.222219237,0.013858973,972.6674378,972.4637449,972.9236145,0.025788026,-0.000538194,lift down
-0.39625651,-0.501953125,-0.286499023,0.003679859,0.899845378,0.803344727,1.024902344,0.00260723,-0.03451199,-0.232788086,0.281860352,0.019595761,0.995247359,0.904638881,1.127365605,0.00304378,972.593239,972.4853758,972.813304,0.005441167,0.002304215,lift down
-0.422709147,-0.591552734,-0.359741211,0.002346183,0.898887804,0.833618164,0.948364258,0.000859793,0.121035428,0.096557617,0.189819336,0.000367614,1.002259409,0.956438255,1.084698945,0.000860482,972.7172156,972.6402107,972.8289997,0.001521921,-0.000216021,lift down
-0.4304789,-0.483154297,-0.393798828,0.000648763,0.948139319,0.893432617,1.006469727,0.001066074,-0.138951677,-0.276489258,0.077758789,0.01052403,1.055896855,1.006309438,1.1037045,0.000779764,972.8131333,972.6698387,972.9301085,0.008098476,0.003256277,lift down
-0.453954804,-0.536132813,-0.405517578,0.001107785,0.915697419,0.823242188,0.979370117,0.002045398,-0.05306081,-0.244628906,0.302490234,0.033126619,1.039718075,0.938354627,1.09863168,0.002276242,973.0425956,972.8960513,973.1761644,0.007542182,-5.93E-05,lift down
-0.495002053,-0.576049805,-0.406494141,0.002235601,0.896417791,0.797485352,0.947753906,0.001871202,-0.040213845,-0.200439453,0.179077148,0.008183161,1.030063813,0.940462201,1.10757123,0.001343153,973.0385212,972.8957115,973.1486235,0.005917028,-0.000944374,lift down
-0.469784823,-0.518676758,-0.443725586,0.000398914,0.909978693,0.876342773,0.963256836,0.000513124,-0.084478205,-0.177124023,-0.004638672,0.002234488,1.028836249,0.998311562,1.094649429,0.000508086,973.0507431,972.9996892,973.0878309,0.000634979,-0.000641014,lift down
-0.408702631,-0.662963867,-0.274047852,0.007559404,0.96114516,0.786743164,1.260864258,0.007727424,-0.019456885,-0.186523438,0.206298828,0.012477817,1.054413611,0.983207275,1.356432795,0.006953807,973.1007777,973.0242863,973.4073503,0.009142264,0.002335581,lift down
-0.030206725,-0.628662109,0.880981445,0.233226429,0.716733001,0.181762695,1.144775391,0.049150045,-0.097504372,-0.738037109,0.817749023,0.213168386,0.972449217,0.270609399,1.500141832,0.068195193,972.9785265,972.6869458,973.270738,0.035522103,-0.006025493,Null
-0.975030943,-1.475341797,0.018188477,0.148132152,0.345748547,-0.004760742,1.410522461,0.106157205,0.14576047,-0.095825195,0.631347656,0.027130008,1.156234677,0.805914647,1.545478663,0.033127129,973.0215307,972.9315846,973.0743327,0.00152242,0.001382166,Null
-1.050828642,-1.326660156,-0.854248047,0.014133803,0.223110064,0.060546875,0.481445313,0.016851384,0.101558192,0.010009766,0.182983398,0.002194321,1.087420723,0.867187002,1.365737888,0.014812599,973.1123851,973.0426438,973.3632472,0.008023141,0.001585701,Null
-0.99719948,-1.040893555,-0.963500977,0.00041368,0.164864474,0.056152344,0.228149414,0.001333151,0.066218886,-0.027954102,0.123046875,0.001237876,1.014133391,0.983096375,1.060923318,0.000460863,973.0669743,973.0228135,973.0961006,0.000548,0.000770742,Null
-1.007261029,-1.075927734,-0.984863281,0.000667949,0.146709846,-0.289550781,0.291992188,0.023734003,0.050277171,-0.080566406,0.095581055,0.001278588,1.031131387,1.003025017,1.117117313,0.000782035,973.1080396,973.0824781,973.1567892,0.000196253,0.000476601,Null
0.106259301,-1.270874023,0.915283203,0.485598301,0.270695278,-0.017333984,0.712646484,0.049213393,-0.676443917,-1.15234375,-0.093383789,0.086024856,1.056470337,0.719091915,1.416781136,0.039934825,973.1635883,972.9653003,973.418293,0.02171742,-0.004059482,lift down
-0.127649216,-0.362548828,0.048461914,0.016942892,0.676371257,0.563476563,0.842041016,0.004829607,-0.770892915,-0.939819336,-0.558959961,0.008315237,1.046064279,0.924752787,1.146641839,0.003569857,973.0515137,972.9707696,973.1299975,0.002400606,0.000664389,lift down
-0.835858081,-1.136474609,-0.185791016,0.083630893,0.553928605,0.162963867,1.029541016,0.057301767,-0.096019331,-0.69921875,0.237670898,0.086273244,1.105300122,0.742257316,1.355616932,0.017708826,973.2030713,972.9805279,973.9060166,0.077694095,0.008654043,lift down
-0.341663039,-0.475219727,-0.22253418,0.005308563,0.918948254,0.733032227,1.094360352,0.007995565,0.162753553,-0.17199707,0.549316406,0.041479978,1.015182566,0.770398237,1.247950029,0.011353448,973.0310696,972.8301556,973.3282766,0.019329986,-0.002645471,lift down
-0.352637314,-0.532836914,-0.2578125,0.004287172,0.696265244,0.607421875,0.794555664,0.001752845,0.663437262,0.535400391,0.732666016,0.002452748,1.027992625,0.96370974,1.115438453,0.000918929,973.1285224,973.0517018,973.1885149,0.001260587,-0.000287475,lift down
-0.340577661,-0.361206055,-0.315917969,5.33E-05,0.6715073,0.654907227,0.68347168,4.79E-05,0.686386481,0.671386719,0.697387695,4.42E-05,1.018898418,1.010179571,1.032908313,3.17E-05,973.1144485,973.1024177,973.1253736,4.62E-05,-6.64E-05,lift down
-0.343465665,-0.358398438,-0.319702148,0.000109626,0.674300031,0.661132813,0.693115234,6.60E-05,0.683563977,0.669677734,0.693725586,3.41E-05,1.01984616,1.011391583,1.028485559,3.02E-05,973.1126122,973.0934602,973.1279483,8.01E-05,6.47E-05,lift down
-0.340193383,-0.626953125,0.051147461,0.029477518,0.76041516,-0.04675293,1.432250977,0.119098821,0.25812295,-0.586181641,0.692504883,0.141885703,0.999357157,0.55090616,1.444478207,0.049360969,973.0480043,972.8253454,973.2834868,0.011857464,-0.000454495,lift down
-0.242651669,-0.310302734,-0.132324219,0.002979792,0.758924696,0.537231445,0.899291992,0.013364681,-0.616604275,-0.812988281,-0.467163086,0.010844532,1.019421442,0.860701777,1.095073778,0.002714129,972.9952518,972.8810077,973.0530032,0.00147303,0.001321051,lift down
-0.19828949,-0.299072266,-0.103515625,0.002974113,0.757449341,0.689086914,0.80859375,0.001305404,-0.625634766,-0.66809082,-0.549804688,0.001125501,1.004363851,0.923192416,1.058876929,0.001071185,973.0550071,973.0476058,973.062057,1.20E-05,0.000127367,lift down
-0.245872498,-0.338256836,-0.119018555,0.003747509,0.742346191,0.527954102,0.901733398,0.007887853,-0.614520264,-0.758911133,-0.529052734,0.004632881,1.001566673,0.914680948,1.116289305,0.002121921,973.099315,973.0535553,973.2153552,0.001963046,0.001467654,lift down
-0.229461284,-0.348266602,-0.154907227,0.002091748,0.748362095,0.711303711,0.803833008,0.000602939,-0.662855704,-0.695556641,-0.60949707,0.000345154,1.027005402,1.000091109,1.065529949,0.000341579,973.2660237,973.1552726,973.3714786,0.00448839,0.002908768,lift down
-0.223304749,-0.307861328,-0.155029297,0.001928939,0.76317749,0.670166016,0.828735352,0.001354663,-0.660031128,-0.700683594,-0.615844727,0.000501669,1.034772644,0.967790251,1.115127712,0.000941278,973.4867055,973.3714786,973.5878504,0.004273001,0.002800017,lift down
-0.197850936,-0.259399414,-0.087036133,0.002676116,0.791327061,0.715332031,0.877441406,0.002859004,-0.65438295,-0.704589844,-0.610351563,0.000864214,1.048196544,0.980023119,1.102498874,0.001176942,973.7058564,973.6009088,973.8129532,0.003844791,0.002693511,lift down
-0.202829868,-0.239868164,-0.177001953,0.000382219,0.813705251,0.763183594,0.852539063,0.000693673,-0.647596915,-0.6796875,-0.627075195,0.000232732,1.059816789,1.010266252,1.10016664,0.000727597,973.8838057,973.8129532,973.9286783,0.001340385,0.001560049,lift down
-0.18537629,-0.2109375,-0.168701172,0.000118022,0.798164563,0.774291992,0.831176758,0.000326304,-0.627237956,-0.647583008,-0.603027344,0.000208758,1.032179754,1.018484938,1.0533365,0.000109563,973.9447463,973.9273103,973.9581891,0.000102726,0.000435665,lift down
-0.201309799,-0.245239258,-0.1640625,0.000539866,0.774295163,0.728149414,0.821411133,0.000846988,-0.646985339,-0.688354492,-0.603881836,0.00077764,1.029876178,1.006668721,1.056019211,0.000141947,973.9586572,973.9512047,973.9627109,1.10E-05,7.60E-05,lift down
-0.179986416,-0.310302734,-0.081787109,0.003504596,0.795812362,0.767456055,0.817382813,0.000227847,-0.624403733,-0.668823242,-0.594604492,0.0005546,1.029409607,1.007254949,1.053541578,0.000142214,973.963381,973.9575949,973.9742225,2.03E-05,0.000136163,lift down
-0.486404221,-1.198242188,-0.011474609,0.173346908,0.642303863,0.053955078,0.892456055,0.059028051,-0.184388,-0.64440918,0.678955078,0.219903803,1.053963917,0.684144087,1.326584596,0.018953474,973.9957819,973.9197689,974.189663,0.003457944,-1.81E-05,lift down
-1.088610197,-1.306762695,-0.861816406,0.019989393,0.176121762,0.048950195,0.380615234,0.009348533,0.131932309,-0.054321289,0.268432617,0.007323315,1.117269754,0.880914217,1.334742826,0.021669448,973.9706106,973.9371932,974.0565121,0.000686025,0.000426005,Null
-1.073034509,-1.300537109,-0.842773438,0.015029766,0.147755809,-0.066162109,0.290893555,0.010762168,0.067907556,-0.065063477,0.165039063,0.004804388,1.092227738,0.857029341,1.311429047,0.015282281,973.9882115,973.9663341,974.0096345,0.000103557,0.000144965,Null
-0.972866151,-1.16809082,-0.891723633,0.003508657,0.257062214,-0.124145508,0.4765625,0.023733996,0.13819848,0.042480469,0.302978516,0.004450528,1.029778168,0.948227651,1.195155482,0.002542966,974.0203586,973.9438259,974.1466808,0.003656309,-0.001567922,Null
-0.990055965,-1.026489258,-0.932128906,0.000313877,0.214476365,0.160888672,0.285888672,0.000915516,0.072171725,0.018554688,0.176391602,0.002152045,1.017013847,0.959871965,1.068306658,0.000455825,973.9782066,973.9469082,973.9995472,0.000235505,0.000435741,Null
-0.984758275,-1.016967773,-0.940429688,0.000194336,0.220539052,0.161865234,0.369995117,0.002223774,0.080092563,0.047607422,0.188842773,0.001215348,1.01394176,0.977891742,1.06657393,0.000321099,974.0044609,973.9894572,974.0134194,4.40E-05,-7.29E-05,Null
-1.025743757,-1.121337891,-0.927612305,0.003586725,0.166352772,-0.001464844,0.349365234,0.004949446,0.101033529,-0.180175781,0.223754883,0.00863226,1.050197436,0.940370758,1.145601397,0.004129828,974.0042068,973.9907336,974.0186818,4.62E-05,0.000152383,Null
-1.2076238,-1.698608398,-0.435546875,0.099204838,0.266971588,-0.068969727,0.723999023,0.053203229,0.006888072,-0.180175781,0.21887207,0.011189615,1.256947859,0.447400768,1.749457914,0.112827422,973.9871614,973.9567447,974.0320569,0.0005824,-0.000614172,Null
-1.213081204,-1.6953125,-1.030517578,0.020079657,0.275352011,-0.055175781,0.526123047,0.032486439,0.142913196,-0.108886719,0.35546875,0.010214951,1.268219184,1.081065997,1.722326204,0.02168085,973.9807644,973.9530816,974.00601,0.000285421,6.88E-05,Null
-1.149028431,-1.375366211,-0.987915039,0.012416029,0.209619695,-0.053710938,0.621337891,0.031978296,0.122023149,-0.168823242,0.313598633,0.014370403,1.19178902,0.994395413,1.422880399,0.017025753,973.987661,973.9737831,974.0185976,0.00012462,-8.14E-05,stairs down
-1.159832764,-1.436035156,-0.884277344,0.026948918,0.157833862,-0.194335938,0.508300781,0.035611087,0.16053009,-0.044921875,0.412231445,0.0160463,1.202027993,0.975874666,1.50706282,0.029008514,973.9897026,973.9654772,974.0277104,0.000316283,0.000100754,stairs down
-1.248913105,-1.67175293,-0.868652344,0.054938097,0.249612662,-0.030517578,0.576416016,0.035482908,0.091856736,-0.094726563,0.271972656,0.006488658,1.291079181,0.872568029,1.703736314,0.060199312,974.0106312,973.9833538,974.0452989,0.000358,0.000384087,stairs down
-1.046982785,-1.477294922,-0.6484375,0.043788375,0.190027115,-0.087036133,0.448242188,0.016047351,0.06017547,-0.05859375,0.182617188,0.003752261,1.074466256,0.667432157,1.487377052,0.044814883,974.0601945,974.0318297,974.0837862,0.000239322,0.000447591,stairs down
-1.059880515,-1.645263672,-0.680908203,0.090528738,0.238320025,0.000976563,0.501098633,0.025339373,0.018752872,-0.185791016,0.198120117,0.012906544,1.10453472,0.696585722,1.673227414,0.088802255,974.1175435,974.0810864,974.1558282,0.000323943,0.000249494,stairs down
-1.13313636,-1.640136719,-0.672485352,0.062475396,0.232030752,0.014404297,0.586914063,0.027302856,0.016126983,-0.12890625,0.169067383,0.008963412,1.1722068,0.688584567,1.661789618,0.062398394,974.1878383,974.1401051,974.2264564,0.000719841,0.000705641,stairs down
-1.174318897,-1.798828125,-0.78137207,0.07864377,0.266113281,-0.047119141,0.656494141,0.047321849,0.03069321,-0.109375,0.242431641,0.007747644,1.225177219,0.781919479,1.820738427,0.082918961,974.262188,974.2184197,974.3041952,0.000838066,0.000782718,stairs down
-1.137526079,-1.609008789,-0.559204102,0.059532881,0.173448042,-0.084594727,0.473022461,0.034899494,0.062051946,-0.092529297,0.204223633,0.00635512,1.168783151,0.562939816,1.636745343,0.06219514,974.3352737,974.3101951,974.3615858,0.000204611,0.000323788,stairs down
-1.181496922,-1.645263672,-0.677246094,0.102760998,0.275908265,-0.112670898,0.54284668,0.036420227,0.141949231,-0.028076172,0.336914063,0.009596982,1.243332811,0.719705175,1.709719246,0.094423627,974.3851576,974.3476748,974.4474329,0.000527579,0.00061174,stairs down
-1.152076416,-1.368286133,-0.913330078,0.01510745,0.245960693,-0.077636719,0.659790039,0.04487573,0.047076416,-0.098266602,0.170288086,0.005841675,1.198944203,0.921523108,1.426779129,0.017871036,974.431229,974.4011393,974.4557316,0.000132283,0.00021633,stairs down
-0.935699148,-1.445922852,0.556762695,0.278994176,0.302248611,0.000732422,1.002685547,0.078836364,-0.114384917,-0.663208008,0.108276367,0.051033069,1.158697721,0.710038014,1.461467529,0.042477047,974.4410325,974.4097958,974.5124937,0.000603524,0.000534939,stairs down
-0.368932965,-1.701171875,0.859130859,0.971051751,0.162751998,-0.876953125,0.892089844,0.225220509,0.005045573,-0.267578125,0.286132813,0.025355112,1.121923282,0.626307586,1.86798031,0.11279553,974.3901225,974.3408662,974.5055072,0.002539151,-0.001132988,stairs down
-1.158837622,-1.456176758,-0.881713867,0.023915416,0.212343321,-0.100585938,0.611206055,0.047121455,0.137013865,-0.073608398,0.290771484,0.010109415,1.207421397,0.887448997,1.460953626,0.029479205,974.418274,974.3900498,974.4482995,0.000264359,0.000324491,stairs down
-1.103710698,-1.660400391,-0.709228516,0.080012934,0.14157284,-0.135498047,0.390991211,0.024689481,0.024527755,-0.130981445,0.17956543,0.006373905,1.128554109,0.711884141,1.670109204,0.075919048,974.45439,974.4319415,974.5272843,0.000606248,0.000404894,stairs down
-1.180326335,-1.668334961,-0.787719727,0.069036767,0.202351888,-0.354736328,0.576904297,0.065583455,0.070985243,-0.104125977,0.201538086,0.005693136,1.227279397,0.793012853,1.730549305,0.072500614,974.5163368,974.4652755,974.5520814,0.000640479,0.000791854,stairs down
-1.197383174,-1.755249023,-0.694946289,0.104915797,0.227430556,-0.354736328,0.597167969,0.051644513,0.052018531,-0.190429688,0.274780273,0.011523098,1.247395394,0.697103722,1.766170257,0.099397211,974.5848122,974.5455103,974.6571843,0.000894772,0.000800645,stairs down
-1.174994256,-1.786010742,-0.720214844,0.086410272,0.234537282,-0.01171875,0.584106445,0.03597169,0.01081543,-0.195800781,0.193847656,0.01187691,1.216721022,0.724742641,1.81355979,0.089053205,974.6654909,974.6036858,974.7069725,0.000610769,0.000315248,stairs down
-0.67151827,-1.682739258,0.115600586,0.360096117,0.503330268,0.045898438,1.107666016,0.087051295,-0.190895451,-0.690185547,0.176391602,0.083796337,1.095807453,0.724507543,1.713292883,0.066358456,974.7459116,974.6764379,974.8401939,0.001662516,0.000982665,stairs down
0.066231106,-0.059326172,0.256958008,0.008127351,0.974662449,0.506958008,1.462402344,0.071731771,-0.409243376,-0.741333008,-0.232666016,0.016351793,1.069391454,0.557801078,1.560025592,0.074180256,974.8242374,974.7180763,975.0937916,0.006789129,-0.000424879,stairs down
0.018870894,-0.137084961,0.109985352,0.004092672,0.978056758,0.702148438,1.381225586,0.030889445,-0.101511025,-0.432983398,0.31652832,0.044522738,1.009342998,0.712512692,1.389586103,0.027358924,974.8738174,974.7909312,974.9565023,0.003064244,0.001846967,stairs down
0.086466471,-0.05871582,0.199951172,0.005346427,0.885622511,0.48840332,1.451660156,0.061958729,-0.381145402,-0.738891602,-0.053710938,0.039657649,0.98972289,0.524796359,1.466350076,0.064066352,974.9249467,974.8150492,975.0647683,0.005501402,8.72E-05,Null
0.086825053,-0.246337891,0.296386719,0.022500616,0.969120026,0.776733398,1.153076172,0.009802698,-0.316551208,-0.518920898,-0.118774414,0.013210808,1.040429167,0.81069512,1.20703088,0.00996212,974.9655299,974.8980713,975.0446138,0.001381499,0.001093678,Null
0.028457996,-0.26953125,0.272949219,0.014116208,0.976592308,0.723022461,1.351196289,0.023799438,-0.298866449,-0.509033203,-0.100097656,0.013075919,1.03764071,0.836218003,1.360558105,0.01777058,975.0006147,974.9493746,975.0361792,0.000513836,-3.73E-06,Null
-0.595877732,-1.155883789,-0.119873047,0.137811049,0.700848929,0.291870117,0.99987793,0.032097368,0.00844912,-0.272949219,0.276977539,0.020264244,1.000930499,0.671102523,1.305187529,0.032647691,975.1200379,974.9475671,975.3849571,0.026005245,0.006008558,Null
-0.423664973,-0.616333008,-0.297973633,0.005949211,0.890485323,0.811401367,1.053588867,0.00399122,0.161347609,-0.15246582,0.452636719,0.032858804,1.018837334,0.908129658,1.131887624,0.002875006,975.0058502,974.932902,975.186458,0.002925599,0.000664169,Null
-0.374385753,-0.451293945,-0.306396484,0.001572992,0.788735248,0.710205078,0.910644531,0.002905628,0.531261688,0.297119141,0.752685547,0.011165586,1.028400912,0.942720414,1.17463334,0.002401858,975.0353378,974.919913,975.1080103,0.001899697,-0.000290121,Null
-0.382465181,-0.548339844,-0.246704102,0.00751451,0.73752267,0.584228516,1.190673828,0.021864012,0.631664458,0.318481445,0.76550293,0.012656064,1.0576412,0.94671005,1.429920204,0.012294923,975.0806328,974.9209812,975.2289781,0.006771602,-0.000662023,Null
-0.223552745,-0.690185547,0.739257813,0.142194652,0.834869057,-0.063842773,1.515014648,0.159126192,-0.324560022,-0.541015625,0.093383789,0.02300468,1.043202891,0.59989444,1.654702962,0.085809948,974.9716665,974.713958,975.4407301,0.044954087,-0.005566222,stairs up
-0.274962107,-1.63671875,0.880615234,0.859359178,0.106830597,-0.550415039,0.825073242,0.164188137,-0.008764903,-0.517089844,0.253540039,0.062433466,1.032563161,0.193018063,1.758957795,0.096581619,974.9475069,974.8254794,975.0617165,0.003777984,0.001676187,stairs up
-1.113473476,-1.420532227,-0.746337891,0.027111019,0.136843627,-0.142211914,0.439453125,0.01861005,0.104140008,-0.123413086,0.260742188,0.011535472,1.139776102,0.814858141,1.429681882,0.027216188,975.0345084,975.0008323,975.0578976,0.000178138,3.96E-05,stairs up
-1.198041312,-1.377807617,-0.920776367,0.020100114,0.145478454,-0.099121094,0.484008789,0.03224486,0.044526305,-0.187866211,0.251708984,0.018558347,1.226200463,0.940474219,1.46038128,0.025206867,974.9902416,974.9523983,975.0380926,0.000557545,-0.000957811,stairs up
-1.367369334,-1.72277832,-1.074951172,0.031503412,0.146722158,-0.29675293,0.540893555,0.060308047,0.126789093,-0.155273438,0.541137695,0.040437344,1.411998735,1.153286603,1.806186074,0.033875994,974.9070124,974.8473526,974.9699917,0.001311636,-0.000969636,stairs up
-0.417745169,-1.739624023,1.231079102,1.089119455,0.357331928,-0.153442383,0.868408203,0.06214573,0.045173725,-0.462768555,0.783569336,0.150062358,1.196787345,0.571554817,1.977409716,0.16126473,974.8104635,974.7042168,974.9464526,0.0051073,-0.002001218,stairs up
-0.828589151,-1.926513672,1.017944336,0.718190726,0.213579045,-0.333618164,0.887817383,0.11268958,0.021217524,-0.499755859,0.373657227,0.059240063,1.202913688,0.358659156,2.148159293,0.167340786,974.726586,974.7125197,974.7678357,0.000168865,5.00E-05,stairs up
-1.197749697,-1.389526367,-0.905273438,0.017190625,0.091664983,-0.275756836,0.432373047,0.027221665,0.070863921,-0.078857422,0.213500977,0.00822802,1.217542116,0.932916388,1.416830221,0.017860235,974.6895769,974.6522057,974.7269111,0.000527064,-0.000675792,stairs up
-1.168927002,-1.426635742,-0.907226563,0.02470751,0.159237061,-0.071166992,0.432128906,0.023263965,0.110930176,-0.155883789,0.343017578,0.013857679,1.199372205,0.918132013,1.460747457,0.027039856,974.6180796,974.5611192,974.6612419,0.000828786,-0.000811691,stairs up
-0.870414225,-1.380249023,0.141967773,0.199258535,0.398095703,0.089111328,0.998291016,0.065336376,-0.170775011,-0.772827148,0.252807617,0.084244549,1.1214039,0.69870251,1.399827458,0.033049189,974.5758604,974.4821084,974.6343992,0.000920563,-0.000188838,stairs up
0.210905457,0.014648438,0.382324219,0.009439588,0.792849731,0.539916992,1.0859375,0.02800243,0.58263855,-0.153198242,0.968994141,0.058367327,1.031143914,0.741551438,1.387577371,0.044469311,974.4765018,974.4343693,974.5377011,0.001351099,-0.001270581,stairs up
-0.499317842,-1.399414063,0.522583008,0.56992656,0.586050954,0.067016602,0.928955078,0.051127034,0.265138155,0.00390625,0.581054688,0.023665495,1.116673882,0.72269486,1.433576339,0.053879748,974.4405414,974.4211201,974.461546,0.000129815,0.000250816,stairs up
-0.689691162,-1.842773438,0.939086914,0.733052865,0.276627197,-0.042480469,0.917602539,0.076837558,-0.02592041,-0.518920898,0.415161133,0.084371348,1.137634888,0.405153813,2.098296315,0.145428675,974.4354596,974.4129913,974.4612067,0.000191487,-0.000165063,stairs up
-0.431060113,-1.620239258,1.036254883,0.942543603,0.293770345,-0.042480469,0.869140625,0.086505628,-0.117667643,-0.458251953,0.215209961,0.067075416,1.131237289,0.580147967,1.77279106,0.091220755,974.4046925,974.3643167,974.4388807,0.000364234,0.000507353,stairs up
-1.23444131,-1.556396484,-0.991577148,0.024896435,0.163302951,-0.370727539,0.425048828,0.04815231,0.045297128,-0.42590332,0.596069336,0.067733476,1.288989872,1.023910202,1.610679385,0.03049074,974.4347144,974.4010084,974.4977167,0.000525405,-0.000380753,stairs up
-1.196445312,-1.370361328,-0.986206055,0.009917246,0.138530273,-0.255249023,0.420288086,0.032795334,0.079482422,-0.095947266,0.232910156,0.008147157,1.22338729,0.990999412,1.397342818,0.010771876,974.4353447,974.4095102,974.4667237,0.000200447,-8.11E-05,stairs up
-1.17369177,-1.498168945,-0.876098633,0.033624293,0.117753698,-0.395141602,0.485351563,0.050684988,0.114886345,-0.129516602,0.291259766,0.018217693,1.213872039,0.88319317,1.49896591,0.032918306,974.4088738,974.3626261,974.4592888,0.000669442,-0.000471689,stairs up
-1.070085798,-1.415283203,-0.776000977,0.032407042,0.148034959,-0.076782227,0.284423828,0.013703487,0.105499268,-0.127929688,0.399658203,0.019676975,1.100791758,0.781696402,1.415683671,0.031768076,974.3651571,974.3424528,974.4439373,0.000754026,-0.000378711,stairs up
-1.101489575,-1.386474609,-0.834594727,0.019408088,0.166025137,-0.12097168,0.575317383,0.041611106,0.104397068,-0.146606445,0.325439453,0.015913085,1.142604987,0.868755795,1.408811615,0.023887625,974.320108,974.274768,974.3636232,0.000636671,-0.000899878,stairs up
-1.102337776,-1.290039063,-0.920166016,0.013626576,0.153682628,-0.177368164,0.502563477,0.028446524,0.10384937,-0.032104492,0.232666016,0.005336746,1.132011217,0.937252799,1.371677253,0.015169077,974.2442784,974.1975918,974.2809312,0.000508245,-0.000635838,stairs up
-1.113843282,-1.430419922,-0.915893555,0.015259304,0.182276408,-0.129638672,0.375854492,0.021466185,0.098349253,-0.107788086,0.230102539,0.01133585,1.146958789,0.923422194,1.44530052,0.015754466,974.1811659,974.149061,974.2235856,0.000431631,-0.000634475,stairs up
-1.06897113,-1.430419922,-0.882202148,0.022632889,0.114214316,-0.205322266,0.348999023,0.025055871,-0.013026446,-0.22265625,0.188720703,0.014502271,1.092608271,0.897460697,1.44530052,0.023871619,974.1202446,974.0954,974.1668769,0.000378891,-0.000600758,stairs up
-1.128476743,-1.321655273,-0.865356445,0.018833055,0.125714337,-0.208251953,0.284912109,0.015651309,0.063698098,-0.155029297,0.255249023,0.01595643,1.151080751,0.895545501,1.330725525,0.018379381,974.0684576,974.0341089,974.1112559,0.000581632,-0.000694404,stairs up
-1.043992718,-1.396484375,-0.81628418,0.022187375,0.11049141,-0.112670898,0.22668457,0.007085172,0.0131113,-0.150756836,0.321044922,0.020701126,1.06339349,0.835297839,1.406339839,0.021189556,974.0226197,973.9807195,974.0835085,0.00056991,-0.000574879,stairs up
-1.07143767,-1.528198242,0.025756836,0.067942612,0.267022174,-0.118530273,0.776123047,0.053676854,0.14170373,-0.119262695,0.435180664,0.027166358,1.154027079,0.569607691,1.650709268,0.0553512,973.9888301,973.9521445,974.0302127,0.000431202,-5.51E-05,stairs up
0.8450663,0.025756836,1.130126953,0.075161213,0.194366823,-0.024291992,0.568969727,0.021657092,-0.255940265,-0.416259766,-0.00793457,0.011863661,0.947471492,0.567400999,1.161871019,0.02742163,973.9457001,973.9258517,973.963848,0.000155223,0.000303107,stairs up
-0.870129815,-1.524780273,0.939086914,0.486055522,0.316731771,-0.036621094,1.029052734,0.091498241,-0.011641579,-0.276367188,0.244995117,0.03078274,1.164555475,0.432204504,1.722997022,0.103929706,973.9629662,973.9352609,973.9768356,0.000108787,0.000201972,stairs up
-1.203605957,-1.434448242,-0.852294922,0.028869927,0.207976074,-0.302124023,0.588745117,0.06012273,0.042524414,-0.294555664,0.304199219,0.024046549,1.255225213,0.858415779,1.462643744,0.03035167,973.9695577,973.9570782,973.9997101,9.20E-05,-3.91E-06,stairs up
-1.221307928,-1.496582031,-1.051269531,0.014665621,0.197192105,-0.222290039,0.477172852,0.044118531,0.11628307,-0.221801758,0.266601563,0.010914786,1.263962002,1.074120292,1.534741625,0.015482432,973.9736005,973.9543786,974.0211227,0.000133665,-9.24E-05,stairs up
-1.192530503,-1.401611328,-0.906494141,0.024961982,0.148719317,-0.103149414,0.462158203,0.031002325,0.085590881,-0.187133789,0.307617188,0.020290207,1.225121172,0.937149618,1.459205989,0.02628799,973.9441778,973.9055662,973.9943743,0.000465289,-0.00057728,stairs up
-1.261547612,-1.459838867,-1.065795898,0.012264026,0.096076517,-0.361450195,0.41418457,0.039428731,0.131911334,-0.176269531,0.416503906,0.030291834,1.298377337,1.114214496,1.510739514,0.013664754,973.8903779,973.8585244,973.941629,0.00062391,-0.000480144,stairs up
-1.205651724,-1.434448242,-1.04296875,0.009546659,0.163670037,-0.25378418,0.530639648,0.051199102,0.156873477,-0.066650391,0.391479492,0.015954185,1.25283133,1.074408192,1.466875778,0.011404754,973.8385752,973.7925331,973.8941583,0.000607835,-0.000774395,stairs up
-1.167634895,-1.334472656,-1.012084961,0.008374341,0.124157274,-0.293457031,0.51965332,0.038573677,0.069163862,-0.094482422,0.216552734,0.00505119,1.193667243,1.021786421,1.385122208,0.010224325,973.7761753,973.7314051,973.8180974,0.000608368,-0.000798957,stairs up
-1.133032861,-1.397705078,-0.789916992,0.027443046,0.115048892,-0.22644043,0.477905273,0.027219373,0.049436891,-0.223876953,0.220825195,0.013442075,1.156874918,0.800345782,1.416169893,0.028676584,973.7164541,973.6823357,973.7547804,0.000451996,-0.000578294,stairs up
-1.052175484,-1.346679688,-0.826782227,0.0193418,0.119365617,-0.131591797,0.33203125,0.016034181,0.036671358,-0.223876953,0.230957031,0.013969242,1.072944986,0.84489143,1.385851592,0.020517849,973.6425597,973.5973383,973.728484,0.001008755,-0.000535049,stairs up
-1.197830036,-1.510498047,-0.927124023,0.021754552,0.103422432,-0.205444336,0.52355957,0.03359764,0.123640163,-0.118896484,0.406005859,0.022840175,1.230987391,0.957531304,1.541252925,0.02304936,973.596705,973.5646135,973.6378653,0.000471689,-0.000436598,stairs up
-1.044871012,-1.326049805,-0.831298828,0.017843654,0.180104574,-0.134277344,0.373291016,0.012444866,0.059192476,-0.16418457,0.245849609,0.009774435,1.073106917,0.878605745,1.337906769,0.015913849,973.5446593,973.5183143,973.606422,0.000723909,-0.000608962,Null
-1.130980118,-1.32019043,-0.77746582,0.017938051,0.165411908,-0.064575195,0.472900391,0.022036466,0.191964854,-0.01159668,0.483398438,0.019000725,1.175253897,0.798350175,1.395073398,0.020664736,973.5267205,973.5085685,973.5848727,0.000296352,-0.00010256,Null
-0.300456568,-1.201049805,0.93737793,0.771620484,0.255182325,-0.698242188,0.932250977,0.160411775,-0.180087689,-0.422851563,0.128417969,0.019825982,1.041507153,0.637142976,1.437658975,0.045601988,973.5167665,973.4442842,973.5750459,0.001366393,-0.001217355,Null
0.003810536,-0.581298828,0.900756836,0.188311594,0.596063787,-0.758178711,1.165283203,0.290221664,-0.494670521,-0.931884766,0.181884766,0.099746415,1.075522417,0.773870607,1.351385623,0.015137342,973.4912572,973.3611865,973.9197732,0.011162592,-0.000715924,Null
-0.189207439,-0.316772461,-0.030029297,0.005796646,0.880511706,0.814697266,0.969970703,0.001117644,-0.490082946,-0.591064453,-0.426269531,0.001005384,1.027522127,0.947412295,1.13635149,0.001593786,973.5062093,973.4878114,973.517557,0.000113695,-0.000328883,Null
-0.188431663,-0.327148438,-0.079467773,0.004124815,0.894867996,0.857543945,0.948242188,0.000532401,-0.459520362,-0.511230469,-0.391357422,0.000781365,1.025951367,0.994065003,1.066007603,0.000257,973.5037161,973.4905714,973.5226981,7.55E-05,8.02E-07,Null
-0.104432373,-0.251464844,0.141357422,0.010055361,0.915714111,0.622436523,1.147583008,0.011852912,-0.405484619,-0.587646484,-0.030395508,0.025989816,1.026307067,0.651221137,1.199104689,0.008049639,973.5207631,973.4961783,973.583074,0.000498614,0.000563716,Null
-1.059027168,-1.644897461,0.141357422,0.155116927,0.331954442,-0.110717773,0.647460938,0.054009165,0.176726266,-0.164428711,0.457885742,0.025041329,1.19243068,0.533111159,1.787958587,0.073434978,973.5018272,973.4193754,973.57917,0.002113256,0.000128016,stairs down
-1.190550232,-1.889892578,-0.677124023,0.130213394,0.187417603,-0.027954102,0.53894043,0.026716615,0.127391052,-0.0234375,0.456054688,0.005450577,1.224432033,0.679433062,1.911697499,0.131524777,973.5281404,973.4953738,973.5565019,0.000448871,0.000627732,stairs down
-1.067996754,-1.691894531,0.082885742,0.228153256,0.128396427,-0.620361328,0.616088867,0.100765298,0.068707634,-0.945678711,0.630615234,0.112271691,1.22349965,0.485594092,1.748384087,0.105112156,973.5896663,973.5429961,973.6612878,0.000822885,0.00051879,stairs down
-0.831313267,-1.571899414,0.223388672,0.367741767,-0.003377279,-0.583251953,0.514892578,0.111544119,-0.056977959,-0.933959961,0.5234375,0.129980992,1.086024888,0.584100386,1.613871667,0.118883523,973.6086563,973.5733228,973.6431467,0.000445751,0.000624924,stairs down
-1.196182978,-1.747802734,-0.639526367,0.110654994,0.268484933,-0.020141602,0.547973633,0.026803705,0.214651925,0.030639648,0.366821289,0.010536717,1.258386251,0.640261594,1.776677306,0.113056847,973.7054673,973.6431467,973.752189,0.000788068,0.001022313,stairs down
-0.489895469,-1.958251953,1.266845703,1.014879317,0.317141884,-0.078735352,0.665893555,0.047214969,-0.096180163,-0.533813477,0.366088867,0.081248363,1.156818064,0.554092007,2.005970529,0.141763109,973.7653127,973.7335431,973.8539548,0.00083904,2.09E-05,stairs down
0.69288774,0.364624023,1.015625,0.034951403,-0.366104126,-0.842163086,0.536132813,0.090299745,-0.503272317,-0.84777832,-0.21081543,0.032390165,0.979548898,0.59891828,1.454174908,0.06447524,973.8042193,973.7704508,973.850062,0.000506178,0.000437977,stairs down
-0.986476089,-1.853393555,0.623046875,0.324392868,0.304080848,0.013549805,0.579345703,0.030828902,0.117448903,-0.21081543,0.445068359,0.024211388,1.146155533,0.570060936,1.871322944,0.142764541,973.8795199,973.8073478,973.9485309,0.00129094,0.001112768,stairs down
-1.260078344,-1.682617188,-0.723144531,0.086215595,0.210229767,-0.042236328,0.559082031,0.035959044,0.161146528,-0.033203125,0.445068359,0.020065296,1.306745097,0.727460573,1.749363272,0.092055508,973.951532,973.9057934,974.0611525,0.001209367,0.000582514,stairs down
-1.135070047,-1.487182617,-0.776000977,0.030539627,0.261996046,-0.005615234,0.508178711,0.018595412,0.228069541,0.064086914,0.454833984,0.011979839,1.197286386,0.792725577,1.564321096,0.033285979,973.9735212,973.935348,974.0162777,0.000214665,0.000223503,stairs down
-0.486469727,-1.170288086,-0.177490234,0.048001368,0.732862549,0.23828125,0.992553711,0.024687249,0.074213867,-0.45690918,0.903686523,0.206175848,1.021587724,0.825419315,1.256616919,0.011800354,974.1268415,973.778167,974.6304468,0.061470092,-0.005702906,stairs down
-0.351043052,-0.476196289,-0.231079102,0.004716416,0.455091111,0.260864258,0.69921875,0.015208073,0.859052942,0.618164063,0.973510742,0.006949048,1.045073467,0.915863757,1.163961432,0.003386808,973.99908,973.7466543,974.2033999,0.016088348,-0.003386985,Null
-0.366844541,-0.470947266,-0.227783203,0.005217947,0.801423572,0.364501953,1.063842773,0.035165293,0.375223796,-0.342773438,0.914916992,0.095183391,1.021847817,0.857537342,1.188307375,0.007516824,973.9205254,973.7466543,974.1027512,0.007797422,0.003136118,Null
-0.570326063,-0.692749023,-0.379516602,0.005668815,0.807056568,0.586425781,0.989868164,0.009762237,-0.26139775,-0.521606445,-0.177246094,0.008131664,1.032099887,0.907614174,1.16549726,0.003019831,973.8695098,973.8017635,973.960155,0.001877598,0.00119813,Null
-0.59761477,-0.827514648,-0.450683594,0.00715204,0.830004646,0.682983398,0.927368164,0.003410119,-0.078505433,-0.183227539,0.127807617,0.009544915,1.03500174,0.948054687,1.13081002,0.000906284,973.9779403,973.9544666,974.0166016,0.000300254,0.000535885,Null
-0.642548286,-0.83984375,-0.522583008,0.007511803,0.803149414,0.592773438,1.089355469,0.012599794,-0.045083279,-0.229614258,0.241821289,0.014142543,1.04161599,0.916748209,1.273721733,0.008958995,974.0165782,973.9643871,974.2205912,0.004543101,0.001234668,Null
-0.659441692,-0.831665039,-0.442260742,0.008164119,0.725231636,0.504150391,0.963256836,0.014899987,0.184745975,-0.017333984,0.293579102,0.006912379,1.009835338,0.853397789,1.114050603,0.004858098,974.0465714,973.7786819,974.2147524,0.006064465,-0.001728413,Null
-1.003663355,-1.079223633,-0.831665039,0.001635337,0.186714017,0.076293945,0.504150391,0.008545111,0.160512496,-0.041625977,0.293579102,0.005804175,1.040681286,0.993119028,1.09014278,0.000778435,973.9267043,973.7786819,973.993574,0.002994949,0.001759041,Null
-0.707775359,-1.140136719,0.134033203,0.180309877,0.501523282,0.124267578,1.137084961,0.129243307,-0.023537494,-0.438476563,0.178588867,0.034309375,1.041014166,0.788651737,1.170126265,0.009621887,974.0033233,973.9683258,974.0920137,0.001073272,-5.11E-05,Null
0.01306296,-0.251586914,0.295898438,0.023691555,0.9710679,0.633056641,1.395141602,0.050237291,-0.237945198,-0.506958008,-0.041992188,0.015645958,1.01999512,0.662284727,1.429032916,0.048462509,973.9903137,973.9026407,974.104375,0.003358198,-0.000637844,Null
0.051806328,-0.185668945,0.268432617,0.012729351,1.004621457,0.713623047,1.333129883,0.037192675,-0.033021585,-0.498046875,0.275024414,0.024036634,1.022818645,0.713695417,1.350923586,0.040409149,973.9524161,973.9138762,974.0364517,0.00106476,-0.000177742,Null
0.021560059,-0.707885742,0.589599609,0.097401306,0.981589355,0.525390625,1.668579102,0.076482767,-0.239415283,-0.552734375,-0.043701172,0.021408345,1.071348995,0.714292491,1.6980938,0.067528285,973.9898583,973.9248366,974.1952493,0.002014884,2.05E-05,Null
0.34185791,-0.741699219,0.602661133,0.112226023,0.578795088,0.315307617,0.896606445,0.021511788,-0.634830556,-0.872070313,-0.38659668,0.013495503,0.991565521,0.775517355,1.352658682,0.018535315,974.111605,973.6860547,974.610108,0.043577858,-0.006112946,lift down
0.409134638,-0.267944336,1.1015625,0.179488843,0.651009696,0.156494141,1.085083008,0.095085135,-0.409301758,-0.724731445,-0.049560547,0.060123006,1.034570258,0.709963561,1.259856956,0.019339817,973.8408425,973.6860547,973.9307061,0.003696649,0.002379077,lift down
0.935381879,0.869140625,1.098876953,0.003193593,0.351817372,0.208374023,0.686645508,0.023014983,-0.109193907,-0.266479492,0.030395508,0.005822948,1.018917768,0.924684841,1.148319537,0.004169967,973.9359332,973.9186891,973.9512515,7.06E-05,0.000121194,lift down
0.183824189,-0.58215332,0.898193359,0.361814038,0.40790916,-0.528198242,1.212768555,0.277745455,-0.193523796,-0.514770508,0.568115234,0.04855672,0.943086331,0.582315887,1.351213587,0.029617686,974.1394997,973.89218,974.748505,0.079863536,0.005085826,lift down
-0.368383515,-0.455810547,-0.27331543,0.002132975,0.615574526,0.499511719,0.869995117,0.00700941,0.734163777,0.568115234,0.92199707,0.007772937,1.032597574,0.883782217,1.185338538,0.004148994,974.066364,973.8270432,974.4327613,0.038867399,-0.000981095,lift down
-0.364900613,-0.506835938,-0.256835938,0.00482941,0.744990482,0.540283203,1.025756836,0.025198133,0.526928093,0.229980469,0.822021484,0.048110253,1.019694184,0.861053336,1.128438212,0.003229857,973.8569003,973.6202848,974.2898732,0.018255227,0.002110278,lift down
-0.306712757,-0.462036133,-0.120117188,0.010707145,0.482589722,0.297851563,0.701904297,0.006656327,0.841787165,0.685180664,0.92578125,0.004235726,1.027340281,0.946855736,1.096684056,0.001514091,974.1396436,973.8440902,974.4756245,0.025213419,-0.004116705,lift down
-0.259256382,-0.321777344,-0.163085938,0.001842726,0.62468311,0.424804688,0.922729492,0.02564922,0.715393683,0.327758789,0.950927734,0.034277699,1.013984566,0.895134277,1.123109056,0.002234563,973.8746102,973.4918185,974.2439461,0.046260136,-0.005098246,lift down
-0.31245611,-0.458251953,-0.165527344,0.008296414,0.765766272,0.66015625,0.922729492,0.004532678,0.568677581,0.322753906,0.713256836,0.012978437,1.015163064,0.906713877,1.107768501,0.002409579,973.9868086,973.7963279,974.1903846,0.013946646,-0.000755557,lift down
-0.305242091,-0.47253418,-0.119995117,0.013289645,0.765621986,0.564941406,1.012817383,0.02042928,0.493120358,0.094482422,0.775756836,0.065698928,1.009065056,0.944689435,1.144974665,0.002526827,974.0507624,973.675474,974.3735029,0.042938389,0.006400793,lift down
-0.155801212,-0.231079102,-0.088134766,0.001493946,0.501083075,0.452636719,0.564941406,0.001274628,0.831870883,0.738891602,0.89855957,0.001679436,0.985587749,0.944689435,1.021635923,0.000392473,974.1834388,974.0678207,974.3232889,0.00826234,0.001015793,lift down
-0.149705456,-0.171630859,-0.133300781,6.18E-05,0.466254778,0.456054688,0.477539063,3.89E-05,0.883317845,0.873168945,0.892456055,3.02E-05,1.010023095,0.999892244,1.020933605,3.90E-05,974.2701513,974.1744586,974.3476964,0.002307684,0.001631135,lift down
-0.156085279,-0.167236328,-0.147338867,3.74E-05,0.453911839,0.438354492,0.469238281,8.03E-05,0.893070818,0.877685547,0.905273438,4.33E-05,1.013945789,1.001780846,1.03108529,4.76E-05,974.460553,974.3246978,974.5878958,0.005124828,0.002811042,lift down
-0.154296875,-0.163574219,-0.143432617,4.22E-05,0.449851812,0.438842773,0.468017578,6.79E-05,0.892169331,0.884277344,0.905273438,3.80E-05,1.011060305,1.00315942,1.028269021,4.42E-05,974.6757573,974.5878958,974.7654106,0.003914414,0.002392432,lift down
-0.163017578,-0.173706055,-0.149291992,5.09E-05,0.440477295,0.422485352,0.460693359,0.000169427,0.896955566,0.881347656,0.909667969,4.80E-05,1.012601402,1.004077748,1.023009881,2.86E-05,974.8534361,974.75929,975.0090881,0.004959141,0.002293823,lift down
-0.155584039,-0.17175293,-0.141967773,5.15E-05,0.436783854,0.424438477,0.449462891,4.95E-05,0.895925564,0.879150391,0.909667969,7.00E-05,1.008860311,0.996828721,1.019654314,3.96E-05,975.0884128,975.0090881,975.1759865,0.001955752,0.001658752,lift down
-0.150607639,-0.171875,-0.128051758,0.000205877,0.441986461,0.424438477,0.45703125,3.93E-05,0.906136972,0.886230469,0.943969727,0.00017978,1.019486611,1.000603084,1.057401788,0.00018796,975.2974323,975.1759865,975.4460474,0.006843988,0.00340304,lift down
-0.1618604,-0.174804688,-0.138427734,0.00010358,0.450560315,0.430175781,0.469360352,0.000115506,0.937935102,0.904785156,0.959716797,0.000278742,1.05313853,1.017765196,1.07708406,0.000320957,975.4903812,975.4379301,975.5451041,0.000609991,0.000327018,lift down
-0.167578913,-0.223510742,-0.120361328,0.000437201,0.435201665,0.421020508,0.455932617,6.04E-05,0.899210612,0.867675781,0.918212891,0.000124946,1.013205114,0.987533626,1.030625624,9.52E-05,975.5463026,975.3518378,975.6400173,0.004202992,-0.000718729,lift down
-0.376916795,-0.45300293,-0.223510742,0.003099978,0.505267915,0.295776367,0.784912109,0.028231344,0.730699812,0.122192383,0.966430664,0.07188439,1.013342325,0.84956579,1.174203981,0.006485647,975.4745744,975.0853142,976.1029531,0.08250204,0.004740013,lift down
-0.317429168,-0.391113281,-0.223510742,0.00175697,0.432611007,0.293579102,0.519165039,0.004925996,0.860158413,0.797119141,0.949584961,0.001566786,1.017627512,0.980971447,1.057870688,0.000370315,975.6076801,975.48934,975.7387133,0.005866113,-0.001662294,lift down
-0.268717053,-0.354248047,-0.227783203,0.001608398,0.354889212,0.313110352,0.416381836,0.000447464,0.915394607,0.854614258,0.944458008,0.000442707,1.019086139,1.007190557,1.030662752,4.06E-05,975.6637884,975.6179504,975.7291623,0.000805035,-0.000105338,lift down
-0.3381414,-0.489868164,-0.222900391,0.006933526,0.382616126,0.227783203,0.616210938,0.00801573,0.893804136,0.744628906,1.000610352,0.00473939,1.037382019,0.946719116,1.155618057,0.002965962,975.6350329,975.1515101,976.1900179,0.049081352,-0.005477314,Null
-0.672711628,-1.295410156,-0.31628418,0.104635122,0.600588915,0.198730469,0.997802734,0.059924089,0.123320789,-0.278320313,0.873413086,0.076656635,1.016381732,0.60545247,1.457980591,0.034114389,975.4604998,975.161535,976.0088379,0.053541197,-0.004983187,Null
-1.073964542,-1.26953125,-0.830322266,0.014125127,0.064454383,-0.716064453,0.399414063,0.049515184,0.143201061,-0.147094727,0.291748047,0.010957137,1.110730752,0.83722203,1.464955547,0.018355579,975.5716746,975.4314693,975.640441,0.003164024,0.001627366,Null
-1.014157586,-1.109008789,-0.830322266,0.003847863,0.081699733,-0.198120117,0.313842773,0.018340193,0.095403731,-0.17175293,0.227539063,0.008520332,1.034283893,0.83722203,1.169074731,0.004986793,975.6310668,975.6112348,975.6442759,3.99E-05,6.85E-05,Null
-1.006654986,-1.022705078,-0.980712891,8.49E-05,0.097043026,0.015869141,0.146240234,0.00114276,0.073779297,0.033203125,0.121704102,0.000492565,1.014794528,0.986084785,1.037822737,0.000108373,975.6220557,975.6133305,975.6298778,2.88E-05,-0.000174198,Null
-0.953323756,-1.270019531,0.083129883,0.061055277,0.313548553,0.048706055,1.0703125,0.09828231,0.099953676,-0.088989258,0.212158203,0.002689376,1.066344155,0.434410117,1.553579391,0.040508797,975.6197658,975.604068,975.6363107,6.32E-05,7.15E-05,Null
0.137141927,-1.409545898,0.902709961,0.714384098,0.247581651,-0.117431641,0.904907227,0.111325619,-0.221240234,-0.574951172,0.256713867,0.07290116,0.957678282,0.40905749,1.632887017,0.10166,975.5679481,975.5321339,975.6194489,0.000673846,-0.000322922,Null
-1.056299326,-1.18359375,-0.813842773,0.007191099,0.198405363,0.035888672,0.409790039,0.008896009,0.111928512,-0.138793945,0.291259766,0.020019486,1.093469519,0.843030437,1.217768445,0.007803141,975.6021303,975.5742719,975.6485941,0.000471112,0.000388355,Null
-1.029206709,-1.230102539,-0.813842773,0.010752988,0.194485751,0.011230469,0.328125,0.006312382,0.113510132,-0.139526367,0.212402344,0.006734512,1.059392016,0.843030437,1.264428462,0.011322356,975.6087272,975.5894204,975.6367699,0.00016779,5.91E-06,Null
-1.065406799,-1.333007813,-0.857543945,0.017251443,0.162004089,0.01184082,0.383300781,0.010895435,0.151150513,-0.034057617,0.315307617,0.011357453,1.098594124,0.875400707,1.339635655,0.016491068,975.6113669,975.5910591,975.6603244,0.00018205,-3.02E-05,Null
-1.064633837,-1.284790039,-0.846435547,0.023964088,0.126881319,-0.119750977,0.512451172,0.02454078,0.128029019,-0.134643555,0.291870117,0.012857485,1.097010266,0.872706515,1.324336117,0.023495087,975.5887245,975.5525763,975.6228005,0.000401507,-0.000279704,stairs up
-0.833278205,-1.248291016,-0.067871094,0.120791293,0.403023669,-0.053466797,1.038085938,0.102791649,0.013712565,-0.144165039,0.163208008,0.008280708,1.019907577,0.649743947,1.371437334,0.046629093,975.5248952,975.4910814,975.6185384,0.000726626,-0.000710688,stairs up
-0.397629511,-1.318359375,0.253173828,0.389021535,0.721037365,0.037719727,1.184814453,0.08938519,0.271480015,-0.073852539,0.549194336,0.021798642,1.102963114,0.731271252,1.403640365,0.029782977,975.4812906,975.451277,975.5261439,0.000495626,-0.000557222,stairs up
-0.534850302,-1.375610352,0.214355469,0.302725207,0.490260643,-0.060913086,1.103393555,0.142175799,0.252487762,-0.091918945,0.545288086,0.035403981,1.022281054,0.819726008,1.378454583,0.019584947,975.4727225,975.3623555,975.6223489,0.002306207,-0.000749092,stairs up
0.129924699,-0.07043457,0.334716797,0.015168757,0.948600021,0.748657227,1.18371582,0.018946104,0.351944269,0.194946289,0.531738281,0.008243258,1.029607732,0.828496984,1.304832325,0.022660116,975.3656647,975.3518971,975.3734147,2.94E-05,0.000118803,stairs up
0.123316226,-0.045166016,0.241821289,0.005928777,0.914459229,0.748779297,1.107910156,0.010861799,0.377389659,0.228149414,0.625732422,0.010805743,1.002318932,0.83119361,1.290616065,0.016700168,975.3432208,975.300217,975.3739282,0.000658414,-0.000891488,stairs up
0.168527626,0.020019531,0.291015625,0.006068194,0.922455937,0.73449707,1.158691406,0.019801927,0.436727869,0.232055664,0.583862305,0.013608653,1.040986648,0.822285804,1.308002532,0.025717522,975.2965068,975.2766538,975.309361,0.000123787,-0.000403632,stairs up
0.195460269,-0.072387695,0.305908203,0.01212874,0.85793971,0.537719727,1.209228516,0.036128275,0.479010331,0.26159668,0.739868164,0.020105583,1.016302317,0.765893957,1.391743114,0.038898208,975.2424143,975.1878886,975.289783,0.000879012,-0.000996385,stairs up
0.210439046,0.007446289,0.395141602,0.011612435,0.868512472,0.6171875,1.193115234,0.027818011,0.448449453,0.269042969,0.6875,0.016565537,1.007925843,0.733178981,1.391743114,0.039616273,975.1764891,975.1467794,975.2095569,0.000281126,-0.000399272,stairs up
0.571155637,0.11340332,1.202636719,0.061884545,0.787221509,0.453979492,1.188354492,0.033760202,0.195271337,-0.177368164,0.593994141,0.070676531,1.057423846,0.774863345,1.338613468,0.030666062,975.1271462,975.0929864,975.1585144,0.000311618,-0.000662307,stairs up
-0.2271574,-1.190185547,1.020507813,0.570590302,0.392279903,-0.520629883,0.950195313,0.166427017,0.244160713,-0.159179688,0.444580078,0.036556007,0.996292308,0.595777726,1.373879876,0.036746501,975.0882238,975.0527816,975.1174923,0.000405698,0.000440732,stairs up
-1.037398682,-1.383789063,-0.778198242,0.029758634,0.168065186,0.077148438,0.29309082,0.002987783,0.028658447,-0.068359375,0.310791016,0.005743211,1.054897441,0.791807198,1.401062755,0.030868038,975.0758469,975.0278922,975.1294142,0.000713266,-0.00057786,stairs up
-1.088825185,-1.322143555,-0.854370117,0.016440362,0.221561555,0.010498047,0.468017578,0.017956124,0.142106907,-0.079956055,0.32421875,0.012416169,1.132479131,0.882697596,1.373028149,0.018826929,975.0307758,975.010913,975.0640266,0.000212501,-4.51E-05,stairs up
-1.105974265,-1.374511719,-0.810791016,0.025335806,0.1526956,0.01159668,0.405151367,0.011514053,0.130658318,-0.026489258,0.309692383,0.010642788,1.133354167,0.8259683,1.41185753,0.026318487,975.0321581,975.0120905,975.0570076,0.00021813,9.60E-05,stairs up
-1.069502275,-1.251220703,-0.856323242,0.012156321,0.178810203,0.050170898,0.395629883,0.006231093,0.129128928,-0.056762695,0.234130859,0.007569276,1.098424329,0.879115465,1.267068587,0.011747018,975.0276479,975.0054525,975.0902367,0.000582108,-5.94E-06,stairs up
-1.038491606,-1.25,-0.817016602,0.012380123,0.137082495,0.03894043,0.275756836,0.005484269,0.126633769,0.008911133,0.230102539,0.004659503,1.059840378,0.830340633,1.282805528,0.012453079,975.0325212,975.0066332,975.0611433,0.000292863,0.000113027,stairs up
-1.09885731,-1.376586914,-0.860595703,0.022994658,0.183157384,0.048339844,0.440429688,0.012373652,0.187442473,0.028808594,0.323364258,0.006370382,1.137806799,0.88142049,1.428021038,0.023088707,975.0297222,975.0112702,975.0619323,0.000195014,-0.000113787,stairs up
-1.126387024,-1.326049805,-0.860595703,0.013924514,0.147668457,-0.117919922,0.471435547,0.02345308,0.118722534,-0.171264648,0.286010742,0.013051904,1.157619575,0.884115203,1.331690462,0.014546622,975.0333212,975.008697,975.0689586,0.000367443,-5.19E-05,stairs up
-1.07621349,-1.265991211,-0.92956543,0.008366351,0.010102706,-0.356445313,0.471435547,0.038998668,0.154584018,-0.003417969,0.463745117,0.015046725,1.112087199,0.93630691,1.277814598,0.007281079,975.0239871,974.9979387,975.0682354,0.000354998,1.89E-05,stairs up
-1.113790493,-1.668334961,-0.849487305,0.043753549,0.153464577,-0.281860352,0.498413086,0.037212554,0.129884046,-0.065063477,0.312866211,0.00945895,1.152243596,0.870886586,1.698710026,0.04323357,975.0420665,974.9599619,975.2263867,0.003404869,0.000428007,stairs up
-1.191514605,-1.516967773,-0.928466797,0.016816887,0.196603154,-0.113891602,0.707641602,0.052051427,0.166418869,-0.152832031,0.385009766,0.02643494,1.250973029,1.006468046,1.552189579,0.015528481,974.9913798,974.9438807,975.0468712,0.000472315,1.19E-05,stairs up
-1.123748779,-1.301147461,-0.96472168,0.010770529,0.140855408,-0.145996094,0.405395508,0.021371539,0.11287384,-0.258789063,0.422607422,0.029991355,1.159510713,0.992358013,1.36504033,0.012439221,974.9378892,974.9052611,974.9877362,0.0005698,-0.000492786,stairs up
-1.074657964,-1.431640625,-0.853759766,0.024780817,0.032439587,-0.474975586,0.306762695,0.034808389,0.106597302,-0.258789063,0.258666992,0.009211893,1.100837145,0.87946174,1.441880104,0.023822766,974.8982171,974.8751324,974.972622,0.000372101,-0.000271779,stairs up
-1.078373078,-1.293579102,-0.823974609,0.022808452,0.125925372,-0.003417969,0.306762695,0.008170031,0.092264155,-0.086547852,0.223999023,0.008808055,1.097054713,0.845383723,1.328290026,0.023339009,974.8542275,974.8106164,974.8932753,0.000777614,-0.000794876,stairs up
-1.040269967,-1.390136719,-0.78527832,0.033377617,0.164659615,-0.022094727,0.361450195,0.01453624,0.080095774,-0.165283203,0.198242188,0.008615059,1.06724359,0.808241191,1.395655918,0.032925382,974.7958254,974.7582951,974.884299,0.001068171,-0.000943061,stairs up
-1.055297852,-1.340209961,-0.799926758,0.021162053,0.122224089,-0.021606445,0.24609375,0.004964688,0.056504287,-0.120483398,0.246459961,0.011918364,1.071910289,0.807175014,1.348273078,0.020612052,974.7428719,974.6926211,974.786736,0.000508773,-0.000575133,stairs up
-1.012699127,-1.315185547,-0.795776367,0.021147627,0.082377116,-0.024658203,0.208496094,0.003162727,0.061256409,-0.189819336,0.219970703,0.012647188,1.026233083,0.814315244,1.320299775,0.019721518,974.6812537,974.64167,974.7351947,0.000798764,-0.000696791,stairs up
-1.038643606,-1.365966797,-0.770019531,0.026108615,0.07707391,-0.138183594,0.189575195,0.00654938,0.083003958,-0.087524414,0.326904297,0.014562369,1.055255715,0.772320808,1.371457527,0.025032772,974.6329949,974.5899354,974.6656096,0.000517496,-0.000562861,stairs up
-1.047515159,-1.309204102,-0.770019531,0.026704528,0.109340934,-0.043457031,0.264526367,0.007829754,0.014661212,-0.217041016,0.254394531,0.013267513,1.062528774,0.772320808,1.337763058,0.028063281,974.5900777,974.564534,974.614167,0.000275986,-0.000313741,stairs up
-1.041381836,-1.299316406,-0.869628906,0.013983065,0.100362142,-0.165527344,0.273681641,0.010888895,-0.008892241,-0.20715332,0.265625,0.021903154,1.062015575,0.885130927,1.323296566,0.013125199,974.5453692,974.510331,974.5991858,0.00061489,-0.000903218,stairs up
-1.055519028,-1.375854492,-0.809082031,0.03302179,0.107713152,-0.034423828,0.224609375,0.003791177,-0.01111565,-0.135009766,0.161376953,0.007123387,1.066287184,0.821472846,1.376929593,0.032702871,974.4993816,974.4735226,974.5210422,0.000159037,-0.000243455,stairs up
-1.075646034,-1.280151367,-0.811035156,0.017084173,0.163917625,-0.020263672,0.384277344,0.010472679,0.094435472,-0.057373047,0.237792969,0.00616588,1.101685199,0.822882677,1.315519419,0.017243984,974.4637226,974.438919,974.5595722,0.000556488,-0.000215904,stairs up
-1.045289575,-1.289916992,-0.848999023,0.0138506,0.123984732,0.057495117,0.24206543,0.003354446,0.102284501,-0.01184082,0.237792969,0.005046003,1.061689379,0.857055612,1.300202633,0.013423689,974.4584623,974.4417695,974.4949119,0.000202808,-1.58E-05,stairs up
-1.078717683,-1.291137695,-0.906860352,0.012117509,0.168746145,0.035888672,0.388427734,0.010210005,0.134503816,-0.012451172,0.257324219,0.00603102,1.106657395,0.926909439,1.327623396,0.013841935,974.457933,974.4416208,974.4805258,0.000135012,-7.29E-05,stairs up
-1.12991857,-1.42199707,-0.841308594,0.022288232,0.162729591,-0.134277344,0.345581055,0.018488793,0.220589686,-0.024780273,0.55456543,0.032469247,1.182984366,0.860409418,1.526694592,0.0251653,974.4553076,974.4396576,974.5135255,0.000262228,0.000100528,stairs up
-1.138744598,-1.373535156,-0.871948242,0.019526195,0.154804636,-0.056884766,0.425415039,0.017287141,0.154247527,-0.185302734,0.314697266,0.021870395,1.174936558,0.891629422,1.417152748,0.022316969,974.4485118,974.436892,974.4647252,5.54E-05,0.000137067,stairs up
-1.125183824,-1.397949219,-0.80090332,0.026168681,0.197205308,-0.041748047,0.447753906,0.024322454,0.125745347,-0.110961914,0.348266602,0.018045062,1.16806388,0.832269751,1.398813384,0.024383996,974.4515598,974.4290763,974.4909129,0.000279361,-0.000245279,stairs up
-1.022459501,-1.372802734,-0.842041016,0.025681148,0.102951229,-0.034423828,0.246337891,0.003450696,0.092928539,-0.141967773,0.307861328,0.01444743,1.040635742,0.872415754,1.37504273,0.022937796,974.4073109,974.3810869,974.4545281,0.000492671,-0.000672126,stairs up
-1.095176547,-1.35559082,-0.903320313,0.01414648,0.075788909,-0.093139648,0.206176758,0.006747272,0.044955384,-0.172363281,0.264526367,0.018551408,1.110487398,0.906444792,1.364152608,0.013182032,974.3829956,974.3335294,974.4647973,0.000919446,-0.000543428,stairs up
-1.08385281,-1.358520508,-0.80871582,0.027687702,0.136107042,-0.105957031,0.314331055,0.009901154,0.09416097,-0.139892578,0.387329102,0.018494843,1.110287527,0.896986428,1.376302113,0.025129703,974.3332646,974.2915842,974.39365,0.000698509,-0.000495636,stairs up
-1.062962662,-1.348876953,-0.874145508,0.019564103,0.105628496,-0.047851563,0.299438477,0.009322392,0.080454885,-0.178588867,0.200927734,0.01158585,1.080633384,0.893700743,1.380413242,0.019970715,974.2793965,974.2474411,974.3382616,0.000551514,-0.000646832,stairs up
-1.043257864,-1.321044922,-0.869995117,0.018955288,0.110944246,-0.036010742,0.218017578,0.005664948,0.081865813,-0.111450195,0.214111328,0.010067832,1.060874229,0.884432951,1.321466433,0.016390793,974.228418,974.1789027,974.2844433,0.000807426,-0.000866663,stairs up
-1.072121478,-1.330810547,-0.871459961,0.017538159,0.083016903,-0.233520508,0.24206543,0.017308706,0.093890251,-0.160522461,0.244384766,0.014172585,1.094318863,0.884432951,1.337051959,0.016289131,974.1751518,974.1308193,974.2217453,0.000480185,-0.00048674,stairs up
-1.032625834,-1.437255859,-0.831176758,0.026154468,0.102937063,-0.011108398,0.226196289,0.004081243,0.098283132,-0.120727539,0.244506836,0.011950151,1.051349977,0.871426728,1.442438707,0.023223288,974.1238741,974.0859312,974.19524,0.000879713,-0.000582291,stairs up
-1.047914702,-1.237548828,-0.848266602,0.012408074,0.083901592,-0.063720703,0.180175781,0.003536631,0.008633318,-0.167480469,0.186767578,0.010376933,1.058101032,0.861102795,1.238431139,0.011816352,974.09005,974.0579629,974.1236839,0.000373862,-0.000346943,stairs up
-1.034172058,-1.420776367,-0.779663086,0.025023266,0.082792664,-0.022216797,0.232543945,0.004442862,0.018864441,-0.179443359,0.207397461,0.013196969,1.046224863,0.790721452,1.425794256,0.024572842,974.0541728,973.9962628,974.128478,0.001353108,-0.000752282,stairs up
-1.101430948,-1.282348633,-0.846313477,0.014598195,0.184897414,-0.076416016,0.383789063,0.019107765,0.026727473,-0.249389648,0.362304688,0.033969713,1.140051766,0.852890772,1.33584122,0.015502655,974.0310816,974.0087877,974.0783541,0.000375536,-7.69E-05,stairs up
-1.043406611,-1.287231445,-0.852172852,0.014941486,0.180194357,-0.029418945,0.359741211,0.010733494,0.042672862,-0.147460938,0.133178711,0.004421924,1.066902094,0.854582401,1.30449052,0.01463712,974.0347678,974.0236456,974.060785,0.000111068,0.000151682,stairs up
-1.069834514,-1.305419922,-0.875854492,0.018088914,0.13949107,0.000488281,0.339477539,0.007453196,0.09864752,-0.055908203,0.20690918,0.005276333,1.089443707,0.887929376,1.311850302,0.017505434,974.0374954,974.0158465,974.095799,0.00038429,-1.66E-05,stairs up
-1.058666675,-1.21887207,-0.916503906,0.010571867,0.103569526,-0.116088867,0.294799805,0.011812465,0.069886047,-0.126953125,0.282714844,0.014752532,1.077780769,0.931574861,1.250990797,0.011579397,974.0330256,974.011086,974.0612456,0.000256075,-0.000348463,stairs up
-1.071546766,-1.196044922,-0.878295898,0.008499067,0.153101792,-0.115356445,0.365966797,0.014426376,0.118879907,-0.115478516,0.242919922,0.008218527,1.098763578,0.900814147,1.237754836,0.009378929,974.0122742,973.9989465,974.0465858,0.00017836,-0.000243679,stairs up
-0.928377359,-1.592773438,-0.335571289,0.103078052,0.287115418,0.013671875,0.733764648,0.05286455,0.000941513,-0.515014648,0.575317383,0.085911811,1.059374105,0.536845236,1.704732233,0.062122062,974.1745509,973.8655392,974.6600934,0.05503881,0.004971413,stairs up
-0.43571913,-0.872680664,-0.274536133,0.020476335,0.85212538,0.410522461,1.178833008,0.030940591,-0.105659993,-0.484008789,0.189086914,0.02539597,0.992277769,0.641140393,1.235960853,0.018684713,973.8881061,973.7114366,974.0848304,0.014390983,0.001828041,stairs up
-1.121917357,-1.33605957,-0.82409668,0.024311866,0.196240529,-0.124023438,0.61328125,0.029810046,0.084777097,-0.170654297,0.23425293,0.012065344,1.15936221,0.843937906,1.369635886,0.025978131,973.9191491,973.7798616,974.0523173,0.004181949,0.002225446,stairs up
-1.090024887,-1.453125,-0.815917969,0.033643346,0.200560211,0.031494141,0.338378906,0.008110612,0.072541268,-0.300048828,0.244873047,0.018835412,1.123083354,0.845294757,1.486945015,0.03261322,973.964148,973.9171586,974.0702255,0.002070716,-0.000613664,stairs up
-0.989941155,-1.150512695,-0.804443359,0.006796624,0.10490622,-0.193725586,0.293457031,0.008368129,0.167937289,0.083618164,0.235595703,0.001921574,1.014822433,0.831587086,1.165249539,0.006302319,973.9338969,973.9202407,973.9804325,0.000231346,5.98E-06,stairs up
-1.025577989,-1.323486328,-0.819091797,0.024993585,0.142793877,0.040161133,0.275512695,0.002960284,0.070592126,-0.26550293,0.234130859,0.01939633,1.048554155,0.841362622,1.335431767,0.02480579,973.9232003,973.8982188,973.9943211,0.000627752,-0.000588588,stairs up
-1.043619277,-1.374389648,-0.760864258,0.030666717,0.111119524,-0.180541992,0.430664063,0.015885812,0.056940393,-0.154296875,0.218994141,0.009827506,1.062514825,0.780044828,1.394856936,0.031862888,973.885097,973.8224184,974.0162277,0.002432953,-0.000795534,stairs up
-1.08599211,-1.501464844,-0.76965332,0.038185462,0.167000218,-0.018920898,0.411376953,0.019036514,0.120414332,-0.088134766,0.366333008,0.012098086,1.117241707,0.77050203,1.504252827,0.042505757,973.8156482,973.7654876,973.8798269,0.000994856,-0.000957675,stairs up
-1.116719149,-1.444213867,-0.822143555,0.040294101,0.156354632,-0.110839844,0.366821289,0.011184067,0.03686648,-0.201293945,0.189086914,0.011914777,1.138267242,0.852460702,1.452905264,0.040373303,973.7665399,973.7254522,973.8569489,0.001591991,-0.000136154,stairs up
-1.023117547,-1.440185547,-0.700195313,0.046040742,0.110226922,-0.059326172,0.32434082,0.006438045,0.05469007,-0.126708984,0.17980957,0.007659129,1.037751885,0.701124822,1.44389804,0.044959663,973.7115702,973.6603064,973.8569489,0.002260164,-0.000402971,stairs up
-1.069495347,-1.420410156,-0.832519531,0.025287709,0.172661994,0.043945313,0.372924805,0.008741756,0.045157399,-0.348144531,0.215698242,0.020405567,1.097908268,0.875777478,1.43994137,0.02435018,973.6701632,973.6241097,973.7581883,0.000789642,-0.000359193,stairs up
-1.129535054,-1.920166016,-0.744995117,0.065874074,0.137607308,-0.008300781,0.373535156,0.010961736,0.084110704,-0.112792969,0.310302734,0.013766516,1.151318833,0.766194531,1.9304512,0.066648558,973.646739,973.5934828,973.7940864,0.002387349,-0.000265019,stairs up
-0.444401203,-1.119018555,0.154052734,0.253375661,0.731838113,0.103881836,1.430175781,0.106509071,0.08205784,-0.298828125,0.491210938,0.047036769,1.050026051,0.771408898,1.437208312,0.040552317,973.6153451,973.4762609,973.8140156,0.005281527,-0.000584934,stairs up
0.084036495,-0.077758789,0.212890625,0.01056778,0.953552932,0.730834961,1.24206543,0.02419653,-0.209781261,-0.615600586,0.086914063,0.041579958,1.00730114,0.757189308,1.255631837,0.021404888,973.5433112,973.469238,973.6068178,0.001762911,0.000110906,stairs up
0.136620792,-0.03515625,0.336303711,0.012755937,0.935543861,0.627685547,1.241210938,0.023143193,-0.170954198,-0.705932617,0.220703125,0.068688758,1.006477738,0.813477094,1.248170682,0.01360004,973.5081865,973.4204826,973.7329771,0.007181294,-0.001422678,stairs up
0.175249602,0.01953125,0.340454102,0.00741695,0.92695698,0.73046875,1.08984375,0.009787056,-0.281503778,-0.775268555,0.126220703,0.066751455,1.021213375,0.884397165,1.225301404,0.00930247,973.5291187,973.5083285,973.5877709,0.000370102,0.000148956,stairs up
-0.022206729,-0.377807617,0.280395508,0.041954381,0.877910811,0.397094727,1.247070313,0.05936744,-0.387380698,-0.89453125,-0.065917969,0.050939385,1.024604463,0.753661892,1.269905599,0.022392382,973.5610076,973.5059465,973.7164669,0.002739245,0.001324177,stairs up
-0.472105006,-0.701171875,-0.205444336,0.015918193,0.33919742,0.073242188,0.718017578,0.039830192,-0.891091437,-1.414306641,-0.499511719,0.043838415,1.097569553,0.858909706,1.491911368,0.026136693,973.5240594,973.3858929,974.0226938,0.027227769,-0.002110194,stairs up
-0.433349609,-0.729248047,0.071655273,0.044880665,0.105278547,-0.204223633,0.707275391,0.049926519,-0.818577966,-1.017211914,-0.384033203,0.024706625,0.98624425,0.752260041,1.190727866,0.01456105,973.5303967,973.4596407,973.6275453,0.001798795,-0.00046786,stairs up
0.110196068,-0.008666992,0.243164063,0.005796113,0.758544922,0.391845703,1.050537109,0.021062077,-0.635476249,-0.98425293,-0.294189453,0.035865875,1.017736798,0.782348747,1.23899752,0.015871527,973.5262993,973.4935372,973.5823864,0.000563528,0.000244047,stairs up
0.264747544,-0.023193359,0.435180664,0.020630429,0.963399453,0.635620117,1.407348633,0.043942496,-0.214888469,-0.595214844,0.042480469,0.043743016,1.051026193,0.711680244,1.473096271,0.047464211,973.5090498,973.4711749,973.5456065,0.000361395,-0.000580811,stairs up
-0.265949627,-1.537109375,0.614501953,0.62571929,0.542900337,0.097290039,0.836791992,0.054654502,-0.054714329,-0.352661133,0.397338867,0.054784056,1.022784522,0.609553409,1.612542678,0.050004145,973.4849696,973.4650225,973.5965001,0.000493989,0.000333727,stairs up
-1.204933449,-1.758789063,-0.760131836,0.088169981,0.210009163,-0.044555664,0.768310547,0.037479776,0.123096607,-0.105834961,0.428955078,0.020342074,1.249220589,0.763376535,1.78900365,0.095943105,973.4927672,973.4630219,973.5808699,0.000481581,-0.00020451,stairs up
0.602707248,-1.247802734,1.184204102,0.327045697,0.084601508,-0.390869141,0.833618164,0.174053253,-0.276748318,-0.527709961,0.502441406,0.068198922,0.98267292,0.744063546,1.582522756,0.04482743,973.4132943,973.3585387,973.4784259,0.002054317,-0.001432132,stairs up
-0.374114046,-1.320678711,0.779785156,0.562800618,0.279943722,-0.017333984,0.780029297,0.066225773,-0.006187832,-0.580566406,0.459106445,0.104643716,0.952972808,0.713473617,1.346919259,0.036695728,973.3494321,973.296185,973.450541,0.000847278,0.000258556,stairs up
-1.090249737,-1.411621094,-0.844726563,0.027939164,0.144298082,-0.030029297,0.321044922,0.007399508,0.077184098,-0.232421875,0.231567383,0.014061923,1.112804598,0.877968606,1.427209781,0.026229988,973.3457786,973.2884843,973.450541,0.001611452,-0.000747821,stairs up
-1.063482517,-1.389648438,-0.827880859,0.029741222,0.117303616,-0.006225586,0.270263672,0.003928612,0.067756467,-0.216674805,0.194946289,0.013530811,1.080797498,0.849320777,1.39570652,0.028191738,973.2790515,973.2430952,973.3282729,0.000774559,-0.00072572,stairs up
-1.030666907,-1.27746582,-0.82800293,0.01909173,0.111445455,-0.033813477,0.225708008,0.005351388,0.030985712,-0.149169922,0.224975586,0.012254567,1.04585945,0.853413224,1.281864682,0.018352061,973.2218138,973.1890785,973.277718,0.000664286,-0.00043864,stairs up
-1.028320312,-1.311645508,-0.765258789,0.021117427,0.076283214,-0.118652344,0.23840332,0.007775661,0.057978033,-0.014648438,0.173706055,0.002279567,1.037628756,0.777872893,1.313724866,0.021010796,973.1776884,973.1607184,973.1977554,0.000106312,-0.000179953,stairs up
-1.065012862,-1.32421875,-0.803466797,0.02644822,0.119206126,-0.097900391,0.346313477,0.010714661,0.088127322,-0.191040039,0.30456543,0.017931928,1.087970433,0.824263684,1.336911571,0.02730517,973.139494,973.0899586,973.1900033,0.000859242,-0.000668622,stairs up
-1.051188151,-1.245239258,-0.822265625,0.01395941,0.120797526,-0.034912109,0.264648438,0.006946056,0.070276693,-0.093139648,0.272338867,0.012124179,1.0696054,0.832704961,1.251941044,0.013237421,973.101593,973.0851851,973.1589013,0.000421442,-0.000272691,stairs up
-1.0950916,-1.363647461,-0.835083008,0.022800186,0.196348924,0.07800293,0.377441406,0.008763312,0.102108295,-0.039794922,0.265258789,0.008923031,1.125718253,0.843853458,1.36611942,0.021264734,973.1056485,973.0908867,973.1336945,0.000202501,1.65E-05,stairs up
-1.172752049,-1.536865234,-0.790283203,0.037185034,0.124767801,-0.125366211,0.373901367,0.019158201,0.083043637,-0.15222168,0.335571289,0.026324061,1.200928659,0.795850338,1.557105695,0.037760148,973.1005981,973.062821,973.1672275,0.000690781,-0.000155642,stairs up
-1.156761813,-1.478149414,-0.851318359,0.037116821,0.203076466,-0.157104492,0.458618164,0.024534473,0.197645072,-0.044555664,0.34765625,0.010958633,1.207236527,0.854182988,1.503502284,0.033115577,973.0908427,973.0642275,973.1539556,0.000488571,-7.58E-05,stairs up
-1.102215706,-1.3125,-0.821289063,0.021897418,0.156582447,0.031982422,0.386474609,0.0126005,0.15006597,-0.084228516,0.321289063,0.014263126,1.135651315,0.827751372,1.357056828,0.022657553,973.1056083,973.0797215,973.1519889,0.000291207,0.000233595,stairs up
-1.092368214,-1.293334961,-0.870361328,0.01391093,0.185930704,0.022949219,0.356811523,0.00959374,0.125860784,-0.0546875,0.266235352,0.006318013,1.121949802,0.88291928,1.306681366,0.014573598,973.0986047,973.0791866,973.1639668,0.00044924,0.000219662,stairs up
-1.07878867,-1.495605469,-0.80078125,0.040012375,0.09583642,-0.049804688,0.218017578,0.004176926,0.089519632,-0.246459961,0.247436523,0.014614471,1.100078709,0.822441254,1.496445975,0.039419688,973.0832837,973.0450506,973.1614632,0.001240175,-0.000520913,stairs up
-1.06732255,-1.552734375,-0.818359375,0.031416975,0.114314985,-0.065063477,0.258544922,0.007961161,0.062620525,-0.174316406,0.302368164,0.018753866,1.087162387,0.827581137,1.556341097,0.032046421,973.0441702,973.0183744,973.1083853,0.00071534,-0.000228406,stairs up
-1.016591797,-1.455200195,-0.766601563,0.039489473,0.042646484,-0.16796875,0.222045898,0.010009875,0.066938477,-0.173461914,0.243530273,0.012399258,1.030986843,0.782809722,1.456800898,0.038409915,973.0029792,972.9580432,973.0895849,0.00105738,-0.000312501,stairs up
-1.074351384,-1.36328125,-0.839599609,0.024842604,0.120191134,-0.096313477,0.249145508,0.006287967,0.074894832,-0.114135742,0.278808594,0.012619031,1.093734491,0.860930769,1.381608175,0.023957192,972.965396,972.9185685,973.0525838,0.000898886,-0.000384758,stairs up
-1.014014203,-1.270385742,-0.833251953,0.016988562,0.131006655,0.015380859,0.283935547,0.005005358,0.061336351,-0.174804688,0.203979492,0.010765609,1.031679683,0.83708329,1.293372451,0.017379077,972.9119913,972.8780366,972.9652607,0.000435102,-0.000684682,stairs up
-1.070011684,-1.399780273,-0.836181641,0.024176768,0.115607852,-0.025878906,0.303833008,0.007460694,0.055712019,-0.184570313,0.187988281,0.012422112,1.086914165,0.842079469,1.422341543,0.023830356,972.8665864,972.8373626,972.9347643,0.000760978,-0.000786396,stairs up
-1.034058974,-1.422607422,-0.757202148,0.030354579,0.099024794,-0.040405273,0.352416992,0.007985996,0.050272624,-0.244506836,0.228759766,0.014574988,1.050266368,0.76400729,1.438292332,0.031226334,972.8206671,972.7719334,972.9369704,0.001669684,-0.000889059,stairs up
-1.0428997,-1.344360352,-0.81652832,0.020332358,0.115658539,0.016845703,0.239990234,0.004871299,0.029157542,-0.189208984,0.172363281,0.00767459,1.055162037,0.817163782,1.360889107,0.021260819,972.7721236,972.7295512,972.8188511,0.00068127,-0.000451664,stairs up
-1.069620306,-1.267333984,-0.874633789,0.014243786,0.133475564,-0.091308594,0.383178711,0.00997449,0.128046209,-0.126831055,0.367797852,0.021273034,1.09940549,0.910089294,1.322565346,0.014748688,972.7339707,972.7120564,972.7992096,0.000520446,-0.000265924,stairs up
-1.074365543,-1.426025391,-0.790527344,0.026076242,0.090191419,-0.096069336,0.33996582,0.012029798,0.016312611,-0.193115234,0.186035156,0.01294537,1.089159396,0.795508784,1.463002383,0.02714249,972.7108238,972.6683915,972.7735293,0.000833323,-0.000684399,Null
-1.055676912,-1.239501953,-0.804321289,0.016463291,0.177573756,0.024536133,0.377807617,0.009244648,0.071719521,-0.044799805,0.217773438,0.004994827,1.078977296,0.805776415,1.266401312,0.01746647,972.6623141,972.6420542,972.7084506,0.000234632,-1.59E-05,Null
-0.986411581,-1.322998047,-0.597412109,0.028088352,0.247563576,-0.046020508,0.740844727,0.036002511,0.180697694,-0.159667969,0.8359375,0.074450955,1.085314653,0.938917892,1.512006491,0.026437186,972.7816433,972.6420542,973.274314,0.041680683,0.005474588,Null
-0.507317794,-0.719604492,-0.286132813,0.018776699,0.737464021,0.615356445,0.871459961,0.005663923,0.262794254,-0.42956543,0.716186523,0.147567557,1.016391981,0.838421082,1.176490126,0.0075093,972.8421047,972.5454284,973.2322514,0.039511176,-0.002249929,Null
-0.355829216,-0.593017578,-0.072021484,0.031082702,0.469628906,0.329833984,0.612670898,0.004886655,0.832342888,0.577758789,0.948242188,0.008532691,1.038860335,0.916592764,1.249609332,0.004764173,972.7012538,972.4268803,973.0785672,0.032279891,-0.00598461,Null
-0.369246898,-0.602783203,-0.13269043,0.020288691,0.721841969,0.390991211,0.942871094,0.019852503,0.579700425,0.192016602,0.937133789,0.04244956,1.035162992,0.926773425,1.157347133,0.003550127,972.5422771,972.3109153,972.7861761,0.013835068,0.001180682,Null
-0.397133402,-0.684692383,-0.183227539,0.015917145,0.735648882,0.598754883,0.896606445,0.007926842,0.612774839,0.379882813,0.794555664,0.011291006,1.048679595,0.888943582,1.312589114,0.009539903,972.6838651,972.4559653,973.0111866,0.025335339,-0.001575991,Null
-0.264672852,-0.399902344,-0.100830078,0.006338579,0.735337999,0.642211914,0.806396484,0.002174732,0.6499037,0.509521484,0.735595703,0.004771123,1.022577119,0.971289881,1.08595894,0.000628358,972.6174638,972.4919074,972.675573,0.002101438,0.000202381,Null
-0.404698814,-0.503051758,-0.31640625,0.002622138,0.748887969,0.604370117,0.901611328,0.007567351,0.542099371,0.173828125,0.724487305,0.024189257,1.025132274,0.9521435,1.109293102,0.001568491,972.6028205,972.4803887,972.6869907,0.002669103,-0.000819448,Null
-0.380019339,-0.507568359,-0.243896484,0.005554291,0.724471243,0.532836914,0.96887207,0.027020934,0.489834434,0.026489258,0.840454102,0.108313299,1.022950559,0.92429066,1.102806802,0.001842172,972.7837534,972.6276622,972.9486212,0.007562544,0.000623647,Null
-0.348099632,-0.456787109,-0.22668457,0.003465432,0.592853415,0.520507813,0.649291992,0.001656321,0.75272764,0.686279297,0.865600586,0.002388392,1.022684351,0.972784111,1.078498527,0.000797127,972.6606821,972.5605189,972.7631148,0.00318657,2.04E-05,Null
-0.373966139,-0.521240234,-0.240356445,0.005498341,0.588350257,0.532348633,0.648803711,0.000682799,0.747831384,0.70715332,0.786010742,0.000527366,1.025468502,0.988252285,1.065944348,0.000316105,972.6475656,972.5157645,972.7788236,0.004644786,-0.000590493,Null
-0.340169271,-0.392333984,-0.240844727,0.002486761,0.575484212,0.510375977,0.625,0.000771855,0.771955024,0.73046875,0.817016602,0.000683687,1.022950128,0.992363118,1.063901055,0.000277537,972.6736029,972.583965,972.7798551,0.00316481,-0.000305537,Null
-0.328976478,-0.503173828,-0.131958008,0.010157079,0.556494442,0.388549805,0.741577148,0.008895162,0.775536808,0.492797852,0.943725586,0.012632661,1.022583427,0.837176626,1.159948221,0.005048116,972.6548355,972.384031,973.035119,0.02654364,0.000345643,Null
-0.310857599,-0.439819336,-0.204223633,0.003461489,0.472786952,0.357788086,0.943237305,0.013930281,0.899119367,0.782592773,1.198486328,0.009528416,1.065655256,0.93457842,1.585082054,0.019802753,972.6451379,972.3305685,972.9711106,0.026712823,-0.004322009,Null
0.333905159,-0.489013672,0.555786133,0.073151971,0.85310656,0.363525391,1.136230469,0.025519381,0.072452626,-0.157958984,0.563110352,0.031516221,0.976298031,0.650001811,1.214438938,0.020394558,972.3992683,972.12221,972.5492012,0.007981839,0.002721922,Null
-0.411382766,-0.769897461,0.156982422,0.072506206,0.87080456,0.510620117,1.145019531,0.030738043,0.030821301,-0.460327148,0.317016602,0.064560676,1.0434941,0.851685979,1.153439644,0.005478848,972.7702096,972.4992431,973.0831358,0.029636946,-0.002115338,Null
-0.471649952,-0.708496094,-0.327514648,0.014791734,0.676441682,0.450927734,0.843383789,0.010933387,0.59753418,0.401123047,0.821655273,0.011850517,1.034893219,0.931946966,1.143696647,0.003205137,972.7574125,972.5062881,973.1645633,0.027379172,-0.00492784,Null
-0.549905877,-1.259521484,-0.123291016,0.096541087,0.644046181,0.003662109,1.154663086,0.08290636,0.424030505,-0.09765625,0.822143555,0.096003061,1.063951367,0.666796475,1.543672493,0.037318508,972.6138935,972.1632804,972.9669222,0.027062697,0.003212997,Null
-1.160923909,-1.457397461,-0.866577148,0.034715327,0.234221468,0.050170898,0.499633789,0.016491866,0.177551899,-0.094726563,0.564819336,0.033085991,1.219676448,0.875122564,1.481980299,0.030254138,972.4642164,972.1361896,972.6254525,0.019111551,0.004407176,Null
-0.923251538,-1.645263672,-0.005004883,0.205528573,0.407400578,0.055175781,0.941894531,0.060828385,0.05166561,-0.531738281,0.446411133,0.08293058,1.136876835,0.765730928,1.735353456,0.074917741,972.6413874,972.6011412,972.7378826,0.001106176,0.000889636,Null
0.144535508,0.01184082,0.321777344,0.00676934,0.999873671,0.819824219,1.168823242,0.007600065,-0.212395247,-0.380981445,0.074584961,0.014564195,1.042064195,0.866804055,1.198410178,0.008548388,972.6318029,972.5833971,972.7110285,0.001346599,0.000109588,Null
-0.489097959,-1.776855469,0.359008789,0.561623707,0.707407633,0.213989258,1.273071289,0.140071113,-0.090420678,-0.594848633,0.284912109,0.043364271,1.180073505,0.561144427,1.833814087,0.092535751,972.6421663,972.6021754,972.7595436,0.001366213,-0.000304636,Null
-0.317319384,-1.448730469,0.042236328,0.188749708,0.480766745,0.122070313,0.84765625,0.067098702,-0.607472139,-1.255981445,0.284912109,0.200205361,1.061621836,0.769882287,1.491906929,0.025643798,972.6841259,972.6046077,972.769638,0.002432948,0.001061947,Null
0.185506185,-0.424316406,0.487792969,0.047169464,0.485810004,-0.119628906,0.988891602,0.074127861,-0.74460178,-1.159423828,-0.17980957,0.084025083,1.009707342,0.829550982,1.24041086,0.008482092,972.6815791,972.3995778,972.77055,0.006869784,-9.60E-05,Null
-0.166326755,-1.394897461,0.192260742,0.125994793,0.908701827,0.486206055,1.131958008,0.032632166,-0.191254406,-0.487792969,0.062255859,0.020477258,1.021266911,0.664161204,1.478516502,0.024211021,972.5288577,972.3995778,972.6109356,0.003664418,0.002357092,Null
-1.199393825,-1.550048828,-0.853149414,0.037377447,0.307764957,0.056274414,0.735473633,0.039704025,0.164341977,-0.079223633,0.329833984,0.015791152,1.271355742,0.85950742,1.620795537,0.036052671,972.639437,972.6076968,972.6784983,0.000330142,0.000653659,Null
-1.131543231,-1.441040039,-0.722900391,0.033093133,0.152532762,-0.039794922,0.557617188,0.020797515,0.154817971,-0.110107422,0.378173828,0.022772771,1.169926909,0.72597796,1.47046848,0.035112596,972.6614381,972.637569,972.7113881,0.000493017,0.000158108,Null
-1.011504812,-1.168701172,-0.909301758,0.00338739,0.180232412,0.077758789,0.291015625,0.003642993,0.060468851,-0.249145508,0.188598633,0.010372834,1.035828512,0.925582438,1.203137571,0.003602424,972.6580325,972.6382045,972.6819868,0.000165365,0.000274222,Null
-1.015782148,-1.196777344,-0.923339844,0.004365062,0.158434638,-0.040161133,0.251220703,0.005806294,0.022082099,-0.151489258,0.201293945,0.007406591,1.034265173,0.928183565,1.222454999,0.005132979,972.665848,972.6420801,972.7259584,0.000396754,7.34E-05,Null
-1.059474182,-1.297851563,-0.938354492,0.006664369,0.140766907,-0.180664063,0.299682617,0.012812789,0.089794922,-0.176879883,0.27331543,0.017245677,1.086479413,0.954866117,1.309894934,0.006268634,972.6661409,972.649413,972.737604,0.000329857,2.58E-05,Null
-0.716916575,-1.2890625,0.740844727,0.370974748,0.397462123,0.12097168,0.947631836,0.072530104,0.014464739,-0.335449219,0.445678711,0.038595667,1.065682823,0.861176778,1.312308916,0.014031018,972.7106525,972.6729597,972.8565423,0.003271884,0.001328537,Null
0.410643204,0.069091797,0.783325195,0.063818407,0.862199866,0.630371094,1.091430664,0.021592477,-0.038835608,-0.499511719,0.262695313,0.060552844,1.026759035,0.925197707,1.149996296,0.003708008,972.6295423,972.5254523,972.7967089,0.00592206,-0.002392814,Null
0.104473296,0.000488281,0.159057617,0.001668871,0.992043631,0.864013672,1.177490234,0.003962186,-0.128057571,-0.262817383,0.024414063,0.004070251,1.00841132,0.865417194,1.19461536,0.004206481,972.6320222,972.5683919,972.6769746,0.001180663,0.000132742,Null
-0.28027665,-1.225097656,0.374023438,0.336962009,0.76883577,0.208496094,1.084716797,0.065502336,-0.054559005,-0.327270508,0.129272461,0.018591488,1.033284298,0.751763436,1.367177342,0.020752368,972.6214006,972.5678702,972.6624717,0.000717169,0.001040796,Null
-0.990902085,-1.07019043,-0.934326172,0.001167148,0.03359728,-0.460083008,0.330566406,0.038822734,0.035413627,-0.092651367,0.325561523,0.012256115,1.016798321,0.961144417,1.114286812,0.002032028,972.6607452,972.6355532,972.6908734,0.000247329,4.52E-05,Null
-1.008839824,-1.10534668,-0.872924805,0.003637468,0.186421914,-0.119262695,0.385253906,0.009778753,0.01994218,-0.309814453,0.175537109,0.014394151,1.037513969,0.893470685,1.161668518,0.004048482,972.6716238,972.6587702,972.6923768,9.67E-05,0.000140367,Null
-1.006142849,-1.153564453,-0.88671875,0.006324261,0.280440267,0.032348633,0.498291016,0.016857862,0.16802436,-0.039672852,0.577636719,0.024419096,1.074812187,0.913471324,1.273916283,0.011177638,972.7673725,972.4846928,973.4004809,0.065191364,-0.001275035,Null
-0.527479218,-0.823242188,-0.253051758,0.022756368,0.795603682,0.340087891,1.107543945,0.034448268,0.161344203,-0.275146484,0.515258789,0.043882821,1.012117695,0.831688331,1.281295432,0.012881038,972.7692852,972.472682,973.1569981,0.043973742,0.002292364,Null
-0.445958455,-0.615722656,-0.364501953,0.00436878,0.838067373,0.723022461,0.995727539,0.006285159,0.365947723,0.043212891,0.544067383,0.025339103,1.033608635,0.887750857,1.157882736,0.002450431,972.6746672,972.3090961,973.6361814,0.105735576,-0.004508183,Null
-0.321125031,-0.564819336,-0.146118164,0.018289079,0.816827138,0.703369141,0.940551758,0.004977569,0.508483887,0.15222168,0.743041992,0.024225461,1.035559299,0.887750857,1.128245031,0.003534882,972.6616486,972.3419976,973.3265327,0.075765712,0.006057168,Null
-0.315235227,-0.462768555,-0.194702148,0.006040268,0.454750238,0.154907227,0.923339844,0.060583152,0.770168571,0.148193359,1.008056641,0.080512191,1.021006574,0.951942312,1.144669267,0.002328033,972.7182509,972.5056608,972.9299048,0.012679779,0.000406579,Null
-0.302343124,-0.3828125,-0.204345703,0.001992772,0.422618377,0.364501953,0.467895508,0.000782006,0.878475874,0.786010742,0.953857422,0.001265009,1.021880534,0.918412592,1.107475845,0.001504982,972.6331447,972.4972631,972.752352,0.004708646,-0.000582019,Null
-0.271805613,-0.356567383,-0.203857422,0.00192293,0.43045847,0.272583008,0.545654297,0.003957309,0.882497687,0.831665039,0.937866211,0.000983344,1.022036459,0.9881958,1.05265914,0.000192233,972.6580475,972.5829753,972.723514,0.001895096,2.43E-05,Null
-0.302087284,-0.469360352,-0.147705078,0.005600337,0.343217868,0.272583008,0.498168945,0.003030125,0.922550535,0.814941406,1.079956055,0.003670726,1.033644207,0.936840366,1.238952371,0.003954528,972.6558375,972.4643979,972.8035744,0.006556036,-0.000751387,Null
-0.245572297,-0.630126953,0.543334961,0.12851431,0.813580057,0.498901367,1.139282227,0.034368296,0.30334738,-0.103271484,0.701171875,0.065867568,1.014767517,0.908441598,1.250348341,0.009803609,972.4505779,972.282388,972.600457,0.011436922,0.001428973,Null
0.651916504,0.5703125,0.817626953,0.004128404,0.639017741,0.018920898,0.898803711,0.080671318,0.196453276,-0.002685547,0.574951172,0.036500267,0.993647652,0.803834639,1.109417135,0.004506626,972.608133,972.5290023,972.6765688,0.001943571,0.001439137,Null
0.324297894,0.05847168,0.750854492,0.03118916,0.814288129,0.252807617,0.996704102,0.019146268,-0.398147751,-0.590209961,0.351196289,0.049708437,1.011823512,0.866621597,1.065805434,0.001934837,972.6056724,972.5597651,972.6757443,0.000771925,0.00058018,Null
0.110381457,0.012573242,0.235351563,0.00298596,0.964391592,0.909301758,1.042358398,0.001230117,-0.235362773,-0.418579102,0.224853516,0.047104872,1.023578476,0.982160029,1.078373811,0.000722585,972.63056,972.606487,972.6560113,0.000210829,-0.000255523,Null
-0.174023157,-0.559814453,0.163818359,0.072560075,0.945858309,0.818237305,1.038818359,0.00453951,-0.051788681,-0.411865234,0.421508789,0.048703316,1.025031679,0.942292655,1.104624746,0.001295909,972.7815612,972.6106517,973.1475271,0.03128397,0.003509021,Null
-0.396291226,-0.598388672,-0.246826172,0.007578542,0.790154952,0.642211914,0.922241211,0.0080468,0.475638474,0.26574707,0.725097656,0.015848746,1.018068754,0.935208006,1.165673524,0.002263893,972.781802,972.6273978,972.9941053,0.008375735,0.001721246,Null
-0.347988731,-0.530761719,-0.074951172,0.010563209,0.819559198,0.596313477,1.231689453,0.02792274,0.343730726,-0.238647461,0.731567383,0.13678984,1.036097685,0.822999921,1.282161528,0.010533967,972.484331,972.3410982,972.8043559,0.015413686,-0.005034499,Null
0.205958775,0.0390625,0.277832031,0.003130496,0.935298998,0.760498047,1.124633789,0.007064822,-0.32794314,-0.551757813,0.113037109,0.042101075,1.036599892,0.903577564,1.134648736,0.001993697,972.6321685,972.4110063,972.7022942,0.004255706,0.001508508,Null
0.37747353,0.15625,0.974975586,0.033282715,0.464738384,-0.098876953,0.968017578,0.136422659,-0.757461708,-1.014038086,-0.369995117,0.041891782,1.058522592,0.709273403,1.385861554,0.02134065,972.5804036,972.5339084,972.6665731,0.001437696,0.000419313,Null
0.798690257,0.595703125,0.935913086,0.00551623,-0.207699046,-0.426147461,-0.078369141,0.006502464,-0.433845071,-0.571533203,-0.237182617,0.009687952,0.939862512,0.716717084,1.033146682,0.007464111,972.576742,972.5026941,972.6492023,0.001603128,-0.000951988,Null
0.898553826,0.364868164,1.012573242,0.010563045,-0.134853228,-0.504150391,0.161010742,0.034809152,-0.423685949,-0.599975586,-0.229125977,0.009513031,1.026589438,0.658834839,1.158384274,0.005512654,972.6418548,972.5026941,972.7657328,0.005072175,0.001029557,Null
0.049346622,-0.11328125,0.389526367,0.02873844,0.945030892,0.161010742,1.32043457,0.072024303,-0.373711614,-0.791259766,-0.215942383,0.017467136,1.05899569,0.604085474,1.439274869,0.031073925,972.5689834,972.4512186,972.7468428,0.005356283,0.000202206,Null
-0.066902669,-0.095825195,-0.033569336,0.000271806,0.902681478,0.870849609,0.933349609,0.000277994,-0.468899197,-0.519287109,-0.395996094,0.000758148,1.019919081,0.980990883,1.061705917,0.000293558,972.6397672,972.6236875,972.6522189,5.90E-05,0.000243021,Null
-0.091701601,-0.109985352,-0.06652832,0.000132571,0.869980231,0.848388672,0.891845703,7.97E-05,-0.528891959,-0.546020508,-0.49597168,0.000191536,1.022391249,0.987761749,1.037035212,0.000117902,972.6464133,972.6428366,972.6505385,3.68E-06,-2.32E-05,Null
-0.119625694,-0.189208984,-0.094238281,0.000489097,0.869004099,0.823730469,0.896728516,0.000126447,-0.545079281,-0.57019043,-0.528564453,0.000122522,1.032970348,1.004501953,1.073118229,0.000173468,972.6494636,972.6413999,972.6578322,2.11E-05,9.36E-05,Null
-0.106850706,-0.176879883,-0.071777344,0.000545395,0.843973042,0.817749023,0.869506836,0.000199136,-0.573270821,-0.614013672,-0.54699707,0.000253481,1.026252923,0.995998385,1.043171681,0.000139352,972.6450207,972.6383465,972.6506096,8.49E-06,-6.77E-05,Null
-0.110387821,-0.138549805,-0.080078125,0.00031265,0.855141215,0.831054688,0.881835938,0.000139837,-0.564375774,-0.576293945,-0.546875,5.86E-05,1.030720241,1.006570287,1.049059326,9.47E-05,972.6451488,972.6406045,972.6509543,6.65E-06,5.45E-05,Null
-0.123011998,-0.138549805,-0.108764648,5.56E-05,0.855125343,0.840942383,0.864257813,4.22E-05,-0.568675953,-0.582397461,-0.557861328,6.06E-05,1.034362993,1.029926614,1.043536435,1.37E-05,972.6452803,972.6396297,972.6509543,7.55E-06,-4.98E-05,Null
-0.213420087,-0.625732422,-0.069091797,0.027406265,0.868022873,0.722167969,0.968505859,0.002481813,-0.444169745,-0.576660156,-0.138427734,0.026567428,1.024130605,0.840073594,1.128766517,0.003269822,972.6382582,972.6044167,972.6547522,0.000243172,-0.000438327,Null
-0.403773154,-0.50390625,-0.280273438,0.00369954,0.934815766,0.872802734,0.975585938,0.000743355,-0.091313844,-0.172973633,0.002685547,0.0028485,1.025757189,0.993874287,1.059201815,0.000289793,972.6496101,972.6143508,972.6877116,0.000312229,0.000459279,Null
-0.228459572,-0.477661133,0.192138672,0.045704527,0.916039292,0.697143555,1.127685547,0.011926325,-0.291532555,-0.569213867,-0.045776367,0.037411627,1.029696424,0.82096302,1.184920402,0.010215159,972.7675444,972.6588418,972.9836652,0.012646089,0.003503136,Null
-0.388617937,-0.477050781,-0.303222656,0.002079737,0.865435933,0.534912109,0.977783203,0.011362858,-0.127485408,-0.486694336,0.831176758,0.116744561,1.021130756,0.933479637,1.130126063,0.002247246,972.7357524,972.5029571,972.9786347,0.024292168,-0.00530105,Null
-0.296397535,-0.380126953,-0.252929688,0.00153575,0.436971544,0.362182617,0.482910156,0.000846501,0.884025477,0.835083008,1.017578125,0.001658961,1.030818105,0.990068132,1.163301136,0.001722568,972.713511,972.6375611,972.8230314,0.002540296,-0.000991554,Null
-0.234251658,-0.317749023,-0.163330078,0.002439939,0.529191335,0.435180664,0.593505859,0.003001342,0.8380572,0.791748047,0.877807617,0.000575739,1.021296686,0.995601024,1.04361337,0.000166333,972.6025897,972.5536658,972.6700184,0.001202381,6.06E-06,Null
-0.235440572,-0.24987793,-0.221679688,6.68E-05,0.573084513,0.549194336,0.59362793,0.000213427,0.810483297,0.798217773,0.825927734,6.73E-05,1.020306517,1.004976133,1.038533399,6.05E-05,972.6584668,972.6439121,972.6782263,0.000113952,0.000172015,Null
-0.254154699,-0.352905273,-0.235229492,0.000685161,0.545558077,0.521118164,0.562255859,5.84E-05,0.817230584,0.807128906,0.82800293,2.92E-05,1.015292542,1.003495789,1.026783264,3.93E-05,972.6599837,972.6259858,972.6818907,0.000331798,-0.000499038,Null
-0.435929923,-0.542724609,-0.30065918,0.005191025,0.558655487,0.482055664,0.664428711,0.003707773,0.729751762,0.57409668,0.856323242,0.007397656,1.024991221,0.99641029,1.043275045,0.000172605,972.6271556,972.5755764,972.6869683,0.000969229,-0.000739308,Null
-0.264996519,-0.61706543,0.086425781,0.050879411,0.703852587,0.489624023,0.966064453,0.016792528,-0.284049157,-0.945678711,0.615966797,0.329224297,1.012338584,0.736238125,1.171945474,0.014597233,972.5297787,972.3723539,972.7580038,0.013019526,-0.000956438,Null
-0.937711589,-1.399658203,-0.420166016,0.105468089,0.331429036,0.041381836,0.855224609,0.072262241,-0.036920844,-0.672119141,0.329345703,0.069029085,1.09535376,0.701440043,1.442651929,0.035119378,972.5949918,972.5212391,972.7580038,0.002200072,-0.000150907,Null
-1.04574924,-1.193115234,-0.919067383,0.004543734,0.110347041,-0.222900391,0.26550293,0.011899626,0.072711709,-0.024780273,0.155761719,0.002244932,1.060565164,0.936088939,1.219769211,0.004772966,972.6598809,972.6288187,972.6892925,0.000192031,0.00039174,Null
-0.493723016,-1.086547852,0.165771484,0.222285053,0.497523258,-0.222900391,0.908935547,0.077720494,-0.336287649,-0.96862793,0.332275391,0.197482845,1.035313671,0.746792192,1.335666724,0.023761942,972.7043302,972.6417675,972.8704954,0.004129735,0.00194389,Null
-0.018694535,-0.599121094,0.172241211,0.018990974,0.168588583,-0.028930664,0.591552734,0.016319318,-0.934191065,-1.075317383,-0.314575195,0.048114183,0.982664849,0.580008891,1.101254846,0.018649933,972.6239486,972.5380526,972.7358421,0.004078661,-0.001593664,Null
-0.882921302,-1.571044922,-0.229003906,0.199175629,0.386072573,-0.088867188,1.03918457,0.091184824,-0.236003046,-0.634643555,0.356201172,0.107895004,1.149972755,0.820575082,1.627443352,0.056401814,972.6475067,972.5036625,973.0910498,0.022892166,0.000649044,Null
-0.48767384,-0.629638672,-0.250610352,0.011357138,0.862007601,0.632446289,1.013427734,0.00879064,-0.09957849,-0.441772461,0.166992188,0.031102889,1.016874833,0.770634388,1.15137615,0.00748773,972.7638657,972.5760982,973.0626634,0.017065069,0.002371238,Null
-0.447712774,-0.62109375,-0.353881836,0.005160141,0.815572987,0.640625,1.045288086,0.011282644,0.282616657,-0.213256836,0.630249023,0.069181813,1.012558625,0.814716562,1.130859395,0.004950942,972.6895175,972.3338471,973.1332666,0.041017683,-0.003493138,Null
-0.448532891,-0.572143555,-0.383544922,0.002908529,0.734948856,0.674926758,0.785766602,0.001238794,0.553008719,0.464477539,0.598022461,0.001691458,1.025886446,0.981359237,1.062686497,0.000490866,972.6624314,972.534798,972.8424407,0.005373493,0.001430643,Null
-0.462098555,-0.525756836,-0.400512695,0.001286825,0.698430842,0.655517578,0.804077148,0.00167498,0.587954434,0.475219727,0.640625,0.001603333,1.025377893,1.00121795,1.050765098,0.000146232,972.6276165,972.3810437,972.7110232,0.011198333,-0.002864303,Null
-0.440982867,-0.611572266,-0.193359375,0.014433761,0.824651404,0.661499023,1.028442383,0.008132626,-0.010471779,-0.508178711,0.497924805,0.128399967,1.010882653,0.913165508,1.101943992,0.001820174,972.6332211,972.3436876,972.8349722,0.015532421,-0.001196563,Null
-0.284913381,-0.46472168,-0.01953125,0.014768311,0.923482259,0.812866211,1.244873047,0.003991636,-0.325594584,-0.433959961,0.042724609,0.006078627,1.03037898,0.9127593,1.245759112,0.002936537,972.5383334,972.4582051,972.6165643,0.001375032,0.001003008,Null
0.262466591,-0.01953125,0.484130859,0.0112923,0.8347592,0.649902344,1.244873047,0.01958483,0.432728978,0.042724609,0.655761719,0.016239487,0.993888582,0.78619503,1.245759112,0.008114608,972.6404029,972.5620758,972.711486,0.001842143,0.000567407,Null
0.334607501,0.160522461,0.424804688,0.007938014,0.802515784,0.704589844,0.976806641,0.005672896,0.527981071,0.431640625,0.669555664,0.004831667,1.02520529,0.952135777,1.122823637,0.001962841,972.5958236,972.5478352,972.6369439,0.000576478,0.000614503,Null
0.42560706,0.411254883,0.439086914,7.04E-05,0.736336354,0.716796875,0.758666992,0.000111768,0.548058671,0.517578125,0.56652832,0.000116812,1.011895201,0.98760022,1.025112071,6.53E-05,972.6154535,972.603744,972.6273854,5.99E-05,0.000219613,Null
0.421246338,0.400756836,0.434570313,7.31E-05,0.728624268,0.7109375,0.750366211,0.000102339,0.564971924,0.545898438,0.584228516,7.23E-05,1.013741339,0.99115841,1.036148352,0.0001099,972.6220922,972.6159553,972.6293152,1.13E-05,7.35E-05,Null
0.420812433,0.397338867,0.43347168,6.81E-05,0.730379972,0.713500977,0.797729492,0.0002557,0.556119052,0.516723633,0.582885742,0.000191992,1.010064726,0.993093565,1.030968642,8.66E-05,972.6274349,972.6227246,972.63931,1.08E-05,-2.45E-06,Null
0.611764526,0.22644043,0.958496094,0.068173662,0.488194275,-0.476806641,1.14050293,0.208037365,-0.094091797,-0.376953125,0.518310547,0.080192236,0.982709687,0.84546273,1.205689027,0.007488701,972.6566793,972.5493243,972.8378829,0.005426685,-0.001403033,Null
-0.199245409,-0.827758789,0.928222656,0.216097438,0.510867064,-0.496582031,0.980712891,0.197015036,-0.405419361,-1.157348633,0.475708008,0.208755386,1.025427362,0.788214057,1.382867354,0.028596117,972.7342861,972.5460887,972.9241724,0.013968475,0.001945371,Null
-0.347174134,-0.432617188,-0.225830078,0.00299117,0.70731978,0.453735352,0.980712891,0.030965728,0.608748619,0.300415039,0.87878418,0.039465586,1.030842181,0.964379156,1.10431636,0.00116901,972.6845512,972.4195078,973.0017752,0.035049533,0.004505318,Null
-0.339528287,-0.365356445,-0.306640625,0.000298714,0.501183671,0.419189453,0.880004883,0.010834792,0.823085828,0.487670898,0.896850586,0.008678185,1.0309743,0.983047483,1.105538693,0.000622888,972.6227558,972.3277828,972.8523478,0.02477372,-0.005425992,Null
-0.33135911,-0.428466797,-0.221069336,0.002828172,0.554475007,0.202026367,1.015136719,0.096275693,0.64234152,0.090942383,1.056396484,0.125456019,1.023565565,0.873235712,1.157821464,0.003994408,972.7913057,972.3494995,973.3275835,0.075788978,0.0082462,Null
-0.321139194,-0.378173828,-0.280395508,0.000421953,0.238263121,0.220825195,0.261962891,0.00012716,0.93901198,0.907958984,0.985473633,0.000387629,1.020892354,0.989313943,1.061664884,0.000352959,972.7185212,972.5830776,972.8440696,0.0040019,-0.000936081,Null
-0.308608188,-0.330200195,-0.283325195,0.000156799,0.223426737,0.204589844,0.249755859,0.000113312,0.945661647,0.906738281,0.981445313,0.000423593,1.0197585,0.988697025,1.053468671,0.00040096,972.6560719,972.5830776,972.7660552,0.003345541,-0.00014616,Null
-0.31397211,-0.343505859,-0.276123047,0.000279175,0.218335833,0.19543457,0.244384766,0.00015256,0.946072533,0.913452148,0.983398438,0.000365015,1.020635141,0.98443732,1.056744096,0.000398174,972.6459432,972.5463124,972.7426311,0.003857118,-0.000240638,Null
-0.306250321,-0.328979492,-0.278198242,0.000240288,0.209766589,0.188232422,0.225341797,7.25E-05,0.945742958,0.930053711,0.96862793,0.000127482,1.016157356,1.00113222,1.031886822,8.08E-05,972.6618331,972.5778505,972.7314336,0.002092788,-0.000281634,Null
-0.300473421,-0.328979492,-0.26953125,0.000225364,0.204933498,0.176879883,0.225219727,0.000189789,0.955634076,0.940063477,0.972412109,8.47E-05,1.02271964,1.008631743,1.04062041,5.80E-05,972.630904,972.5411025,972.7600385,0.002021684,-5.97E-05,Null
-0.303054023,-0.327148438,-0.26953125,0.000243808,0.210577581,0.18359375,0.227294922,0.000136158,0.947370077,0.926391602,0.970825195,0.000106883,1.016932282,0.99380414,1.031256329,6.98E-05,972.6465313,972.5928269,972.699492,0.001001828,0.000117026,Null
-0.298289906,-0.322753906,-0.272094727,0.000200769,0.203781128,0.186035156,0.22668457,0.000101386,0.950571234,0.927246094,0.981567383,0.00021018,1.017069032,1.000225824,1.050316754,0.000168297,972.6498054,972.6082123,972.7286491,0.000786744,-0.000166701,Null
-0.30202179,-0.330566406,-0.27331543,0.000269627,0.203369141,0.183227539,0.22265625,0.000135298,0.947758484,0.936157227,0.962646484,3.92E-05,1.015491625,1.001221455,1.026225116,3.81E-05,972.6369359,972.5653319,972.7116154,0.00149404,-0.000356028,Null
-0.301510082,-0.325927734,-0.265991211,0.000371073,0.209385292,0.196777344,0.225952148,6.46E-05,0.948206284,0.931152344,0.966918945,9.22E-05,1.017017285,1.005020955,1.032719411,4.46E-05,972.6472393,972.560869,972.7221201,0.001923388,8.53E-06,Null
-0.298502604,-0.331787109,-0.260864258,0.000351372,0.201309696,0.162963867,0.217407227,0.00015053,0.954337828,0.929199219,0.981567383,0.000206468,1.02028855,0.999436294,1.03699288,0.000103225,972.6685228,972.5753537,972.7537185,0.001909768,0.00037753,Null
-0.288246247,-0.312744141,-0.25,0.000315168,0.1946242,0.162963867,0.21472168,0.000112821,0.959478539,0.945922852,0.973510742,5.89E-05,1.020787984,1.003515813,1.030778871,3.69E-05,972.6355289,972.5667078,972.7056692,0.001678893,1.41E-05,Null
-0.316388582,-0.360595703,-0.263549805,0.000745644,0.169231214,0.119018555,0.21472168,0.000612806,0.951109234,0.928710938,0.973144531,0.000120173,1.017229093,0.996115546,1.028379151,5.46E-05,972.6310778,972.5328856,972.7169453,0.002697132,0.000162881,Null
-0.302023,-0.333862305,-0.27734375,0.000239253,0.197119702,0.178466797,0.208496094,4.11E-05,0.949946963,0.931640625,0.973388672,8.25E-05,1.01626195,0.999296552,1.033312765,4.41E-05,972.688569,972.6475645,972.7768459,0.0012497,-0.000337531,Null
-0.294408933,-0.306152344,-0.283325195,3.77E-05,0.200903074,0.190673828,0.212280273,3.89E-05,0.954069504,0.942871094,0.965576172,3.39E-05,1.018511712,1.008639595,1.030839564,3.09E-05,972.6483019,972.6306112,972.6729895,0.000174993,-0.000349109,Null
-0.293640823,-0.307128906,-0.283691406,2.05E-05,0.2007412,0.188964844,0.21484375,4.41E-05,0.953526872,0.948730469,0.959594727,8.17E-06,1.017742723,1.012433959,1.024955105,7.30E-06,972.6541238,972.6396295,972.673131,4.82E-05,1.30E-05,Null
-0.28977533,-0.299926758,-0.28137207,3.70E-05,0.201120636,0.189208984,0.217285156,1.95E-05,0.954512985,0.945678711,0.965087891,2.38E-05,1.017627502,1.007475885,1.029736253,2.83E-05,972.6487244,972.6267435,972.6766227,0.000135942,6.14E-05,Null
-0.280724252,-0.287231445,-0.275878906,9.41E-06,0.200082911,0.188476563,0.217285156,5.74E-05,0.955016486,0.947509766,0.962036133,1.55E-05,1.015361554,1.006674612,1.021296154,1.84E-05,972.649924,972.6395496,972.6637825,6.00E-05,0.000105315,Null
-0.292111633,-0.362792969,-0.273803711,0.000307334,0.253209268,0.193847656,0.643554688,0.014487385,0.946253623,0.553222656,1.011352539,0.004948413,1.03076479,0.922949989,1.166667698,0.001915442,972.5898921,972.3409093,972.6585739,0.011852207,-0.00292898,Null
-0.100410098,-0.579589844,0.331298828,0.105534708,0.093816848,-0.529174805,1.047973633,0.378840281,-0.529597691,-0.96484375,0.553222656,0.201748834,0.985282806,0.819034835,1.150061368,0.006609664,972.4180172,972.1924311,973.1485236,0.068393343,0.001923785,Null
0.240939846,0.06640625,0.366943359,0.008027618,-0.434638482,-0.482910156,-0.349121094,0.002024768,-0.879805131,-0.972412109,-0.82019043,0.002620348,1.016523939,0.997810627,1.054238521,0.000209646,972.5445723,972.4256943,972.5978248,0.002272405,0.00204275,Null
0.253073952,0.12097168,0.291748047,0.001777373,-0.432991325,-0.459716797,-0.384399414,0.000332638,-0.872845538,-0.968017578,-0.84753418,0.000616223,1.007959238,0.993915667,1.054238521,9.75E-05,972.6202914,972.5968039,972.632028,0.000107932,0.000371299,Null
0.265222531,0.221435547,0.300048828,0.000755879,-0.429438525,-0.444335938,-0.410644531,9.33E-05,-0.872847453,-0.901977539,-0.8515625,0.000200697,1.0087791,1.000136634,1.017639407,2.76E-05,972.6377949,972.628138,972.6474284,2.64E-05,0.0001245,Null
0.276743899,0.223144531,0.307128906,0.000566416,-0.433350922,-0.441894531,-0.423339844,2.25E-05,-0.871772356,-0.890869141,-0.856323242,8.63E-05,1.012424852,1.002050191,1.023786478,3.14E-05,972.6542452,972.6470916,972.6621985,1.74E-05,0.000131762,Null
0.281988166,0.255371094,0.303344727,0.000190646,-0.428224092,-0.442626953,-0.415283203,6.15E-05,-0.867803596,-0.886474609,-0.849487305,8.47E-05,1.008095183,0.993029125,1.023128186,5.39E-05,972.6615001,972.6583235,972.6642105,3.04E-06,5.86E-06,Null
0.39274181,0.014038086,0.598876953,0.030196127,0.203610507,-0.456298828,0.837158203,0.337762897,-0.449630737,-1.202392578,0.130493164,0.253353107,1.003448789,0.857652229,1.223834838,0.005273386,972.6727432,972.6181027,972.7654162,0.000874926,-5.78E-05,Null
0.612144775,0.592895508,0.632202148,6.72E-05,0.796392822,0.764770508,0.821899414,0.000292071,0.123911133,0.058959961,0.215087891,0.00183533,1.013102813,0.988029757,1.030092999,0.000113217,972.627779,972.5904369,972.7035098,0.001091807,0.00076166,Null
0.626481303,0.611206055,0.634033203,3.45E-05,0.766039216,0.751220703,0.792480469,7.59E-05,0.202477616,0.170166016,0.219970703,0.000149952,1.010188388,0.992367811,1.033331663,6.97E-05,972.6307809,972.6250693,972.6400639,1.68E-05,-8.41E-05,Null
0.624219353,0.601928711,0.639648438,0.000125526,0.77218967,0.734863281,0.819824219,0.000630007,0.176359954,0.056152344,0.252685547,0.003365521,1.010432458,0.991436486,1.03156525,0.000127518,972.6407526,972.6277112,972.6562956,6.74E-05,-5.19E-05,Null
0.620884946,0.607910156,0.642578125,0.000117432,0.781421862,0.754150391,0.800048828,7.50E-05,0.178892437,0.149291992,0.204833984,0.000297558,1.014166859,0.998943755,1.029243692,7.08E-05,972.6291867,972.6191847,972.6478128,6.77E-05,-6.67E-05,Null
0.600821146,0.578369141,0.618164063,0.000203511,0.799003787,0.765869141,0.816772461,0.000138843,0.182395377,0.165283203,0.200439453,8.90E-05,1.016373393,0.99711416,1.031554798,7.32E-05,972.6429864,972.6329993,972.6575351,3.96E-05,-5.80E-05,Null
0.594290939,0.57409668,0.604858398,5.98E-05,0.794874004,0.778442383,0.810058594,8.19E-05,0.21579518,0.167602539,0.244506836,0.000305379,1.015861749,1.002205309,1.02591532,4.20E-05,972.6401806,972.6293514,972.65422,5.06E-05,-0.000207234,Null
0.595881535,0.577270508,0.612426758,8.07E-05,0.794968825,0.777832031,0.824829102,0.000174131,0.220082042,0.202026367,0.236816406,8.95E-05,1.017716743,1.001935658,1.034902304,8.04E-05,972.6421435,972.6313915,972.6534517,3.99E-05,-0.00010782,Null
0.59500792,0.572021484,0.60949707,0.000106537,0.800587724,0.768432617,0.824707031,0.000185147,0.19316436,0.117797852,0.227050781,0.000756187,1.016464916,0.994170625,1.037551154,0.000123269,972.6173219,972.5894795,972.6396565,0.000210387,-0.000478123,Null
0.591603073,0.574951172,0.610717773,7.47E-05,0.792509413,0.763916016,0.833129883,0.000276255,0.195471066,0.170043945,0.220947266,0.000241867,1.008350365,0.989960973,1.030747645,9.15E-05,972.623061,972.6048287,972.6364806,0.000112557,0.000151613,Null
0.594341278,0.557128906,0.611938477,0.000146557,0.798817952,0.768310547,0.843261719,0.000516855,0.188947042,0.123168945,0.239257813,0.001169286,1.014288235,1.003004515,1.04013463,8.65E-05,972.613572,972.6067015,972.622879,2.63E-05,7.21E-05,Null
0.606715303,0.599609375,0.619018555,2.24E-05,0.786493279,0.770996094,0.812133789,8.89E-05,0.190547449,0.14074707,0.237670898,0.000683702,1.011762098,0.995410228,1.041353511,0.000107844,972.6038011,972.5953289,972.6119169,2.31E-05,-6.66E-05,Null
0.608321752,0.595458984,0.62109375,3.79E-05,0.792189378,0.775024414,0.814941406,0.000121037,0.167372483,0.138305664,0.193115234,0.000165847,1.012866025,0.999702536,1.026968333,5.67E-05,972.6171698,972.6088135,972.6326776,4.31E-05,0.000215808,Null
0.607127004,0.592041016,0.626708984,0.000117858,0.787459733,0.766235352,0.814086914,0.000188532,0.199808492,0.111694336,0.251953125,0.001836427,1.01520647,0.994891125,1.031329672,9.15E-05,972.61354,972.594265,972.6352691,0.00011684,-0.000164875,Null
0.597164232,0.573242188,0.617431641,0.000109977,0.80083232,0.77355957,0.842651367,0.000289269,0.17165328,0.149414063,0.20690918,0.000131181,1.013792315,0.988955129,1.035439319,0.000123453,972.605966,972.5838507,972.6169515,9.65E-05,0.000244009,Null
0.597301604,0.587158203,0.610717773,5.16E-05,0.804616828,0.777587891,0.830566406,0.000185681,0.150947009,0.125244141,0.182739258,0.000229463,1.013566494,0.990359274,1.035517281,0.000108352,972.608734,972.5991718,972.6157755,2.01E-05,-4.34E-05,Null
0.602158657,0.585083008,0.627563477,0.000137105,0.795124852,0.778808594,0.82409668,0.000114259,0.153665232,0.103637695,0.177246094,0.000384496,1.009415273,0.982993913,1.031236685,0.000142511,972.6110644,972.6008225,972.6204287,2.92E-05,9.36E-05,Null
0.597881721,0.561767578,0.628540039,0.000280014,0.807150448,0.782470703,0.844482422,0.000275704,0.175201057,0.127563477,0.197387695,0.000485224,1.020077475,1.002906673,1.043217533,0.000121883,972.6096107,972.5981359,972.6279838,5.92E-05,-0.00017097,Null
0.583643296,0.458251953,0.624755859,0.001475937,0.800216376,0.740722656,0.889282227,0.000538989,0.187392291,0.157104492,0.286010742,0.000714553,1.009116738,0.94200136,1.045870456,0.000492573,972.6111131,972.5857787,972.6298475,8.18E-05,1.85E-06,Null
0.024198405,-0.327636719,0.458251953,0.034658221,0.025961643,-0.356933594,0.974731445,0.22794639,-0.802528212,-1.02722168,0.286010742,0.128896373,1.015693577,0.964062981,1.081295231,0.000837942,972.6322481,972.5574147,972.8063751,0.005000388,-0.001118985,Null
0.140689087,-0.039794922,0.214477539,0.002768159,-0.209213257,-0.233520508,-0.176879883,0.000311772,-0.989212036,-1.025512695,-0.954589844,0.000307011,1.022394991,0.986127852,1.048918658,0.000159136,972.6136669,972.5938911,972.6293537,9.96E-05,0.000395643,Null
0.087051986,-0.08215332,0.285400391,0.014044091,-0.35129775,-0.539916992,-0.208496094,0.010785911,-0.951271751,-1.098510742,-0.827758789,0.005385704,1.030811911,0.930773517,1.129989072,0.003197729,972.6479204,972.5654613,972.8044257,0.004501102,-0.001271476,Null
-0.006219023,-0.130371094,0.200073242,0.010073356,-0.362870411,-0.534790039,-0.28918457,0.004910423,-0.945278373,-1.007446289,-0.845214844,0.002170165,1.020137106,0.936769654,1.104263302,0.00157149,972.6096162,972.59167,972.6249901,9.12E-05,0.000114636,Null
0.109500846,-0.130371094,0.179199219,0.004667061,-0.413717683,-0.452880859,-0.354858398,0.000479905,-0.915095693,-1.008789063,-0.776855469,0.00220203,1.012546679,0.855680988,1.114627626,0.002587742,972.6150167,972.60744,972.621192,1.38E-05,8.49E-05,Null
0.081096781,-0.069213867,0.203369141,0.006652932,-0.380467908,-0.483154297,-0.283325195,0.003747056,-0.947540634,-1.119384766,-0.823486328,0.007091788,1.029549941,0.901803858,1.207663694,0.006558798,972.631315,972.621192,972.6432108,3.41E-05,3.99E-05,Null
0.091751099,-0.017822266,0.199584961,0.003531828,-0.304026794,-0.454956055,-0.144165039,0.006192174,-0.959768677,-1.143920898,-0.842041016,0.008595505,1.015771794,0.90091336,1.198406659,0.008409768,972.6435106,972.6167507,972.6699183,0.000144764,0.000224367,Null
-0.643947895,-1.223022461,0.101196289,0.184721369,0.189696092,-0.428344727,0.983154297,0.145085931,-0.425472553,-1.14465332,0.108154297,0.193920588,1.061440693,0.813396225,1.365844721,0.023946345,972.6392252,972.5767887,972.757035,0.002276231,-0.00040904,Null
-1.055269988,-1.258544922,-0.864990234,0.01533068,0.121389638,-0.072143555,0.32824707,0.009248795,0.075183371,-0.119140625,0.176513672,0.006327629,1.07174663,0.867821934,1.27502584,0.016087919,972.6372718,972.6118136,972.6725707,0.000363663,9.71E-05,Null
-1.11441518,-1.337280273,-0.923706055,0.011424197,0.136308417,-0.075683594,0.356079102,0.013219484,-0.01101133,-0.159545898,0.22277832,0.014027215,1.13420081,0.926615456,1.358512841,0.012567347,972.6425191,972.6085772,972.6850451,0.000495983,-9.72E-05,Null
-0.737662972,-2,0.388671875,0.502226314,0.299731762,-0.174804688,0.903808594,0.086760989,-0.19810902,-0.945800781,0.214233398,0.10135467,1.078165318,0.24928043,2.057189205,0.194697551,972.659555,972.5290707,972.800915,0.004511768,0.00061676,stairs down
0.349803783,-0.872436523,1.066772461,0.288012559,0.640932436,-0.169311523,1.47265625,0.198725165,-0.370307075,-0.828613281,0.047729492,0.045867268,1.059037545,0.563897173,1.676280447,0.075687922,972.6205334,972.5572934,972.6913156,0.001301042,0.000854777,stairs down
-0.727142932,-1.341918945,0.621826172,0.382933615,0.230955834,-0.573730469,1.167724609,0.194969049,-0.282643038,-0.855957031,0.102905273,0.074093114,1.091437361,0.431888889,1.811665458,0.117484485,972.7026094,972.6157223,972.8296668,0.003222317,-0.000143274,stairs down
0.114937337,-1.606201172,1.069702148,0.677869415,0.137113444,-0.826538086,0.885620117,0.213234208,-0.208981662,-0.567016602,0.103149414,0.032555093,0.951881393,0.265633134,1.636273781,0.08915374,972.8431703,972.754316,972.9774228,0.003508393,0.001894636,stairs down
-1.052075489,-2.023925781,-0.396240234,0.202406945,0.177638778,-0.44519043,0.642578125,0.114176932,-0.293724703,-0.871948242,0.499511719,0.167695725,1.253963938,0.674296131,2.131300575,0.13230597,972.9574212,972.8278004,973.1129774,0.00834595,0.00327051,stairs down
-1.249110445,-1.978637695,-0.396240234,0.137104404,0.327744504,-0.411743164,0.974121094,0.139092848,-0.073262965,-1.017944336,0.244506836,0.115022179,1.408917015,0.674296131,2.032419858,0.07587841,973.0002092,972.9108403,973.1308396,0.002026009,0.000906292,stairs down
-1.005006141,-1.225097656,-0.798828125,0.011618976,0.180715659,-0.069213867,0.918823242,0.070768052,0.017097394,-0.127319336,0.138671875,0.00564988,1.060219622,0.908822372,1.293654344,0.006114514,973.0645127,973.0177026,973.1308396,0.000861984,0.000251994,stairs down
-1.212980424,-1.916259766,-0.192504883,0.204852221,0.371242479,-0.890136719,1.292480469,0.392678441,-0.07182084,-0.454223633,0.275634766,0.023183577,1.448062492,0.616438024,1.923809249,0.132518534,973.0700462,973.0394198,973.133683,0.000672804,-0.000380569,stairs down
-1.28503727,-1.560791016,-0.978393555,0.021643007,0.244630451,-0.213745117,0.865112305,0.067538417,0.20391923,-0.016113281,0.641845703,0.028550923,1.354602973,0.980802244,1.795857871,0.034477166,973.0646807,973.0436397,973.1096007,0.000330614,0.000193323,stairs down
-0.758313112,-1.689208984,0.012817383,0.189325899,-0.048402728,-0.520751953,0.511962891,0.083118096,-0.528664329,-1.170532227,0.321411133,0.257454147,1.152183534,0.739443132,1.708018474,0.054436172,973.1574634,973.0486822,973.3022752,0.005108946,0.00026566,stairs down
-0.628515365,-0.986083984,0.012817383,0.085334631,0.336075154,-0.292724609,1.31628418,0.133874284,-0.682987294,-0.952636719,-0.362548828,0.033530931,1.071911909,0.753863981,1.857504545,0.076317591,973.1432402,973.0284448,973.2551293,0.00451726,0.001067211,stairs down
-0.499409754,-0.870117188,-0.098754883,0.041202256,0.37487793,-0.022827148,0.749633789,0.033157112,-0.806923541,-0.938842773,-0.606689453,0.009388901,1.05633376,0.872704612,1.218547572,0.008086281,973.2342324,973.1327037,973.3959515,0.004623598,0.001194578,stairs down
-0.927263343,-1.673095703,-0.241821289,0.20551086,0.283299985,-0.417480469,0.966552734,0.13399213,-0.22517594,-0.937011719,0.28527832,0.143534439,1.189419116,0.790185299,1.757158522,0.054441334,973.3194709,973.2064223,973.4160286,0.004373445,0.00236065,stairs down
-1.13688068,-1.760375977,-0.579467773,0.065709047,0.368982432,-0.16418457,1.188354492,0.145115718,0.024475098,-0.351074219,0.440673828,0.037029201,1.272591551,0.916400267,1.909170407,0.055648173,973.4437353,973.3992354,973.5024145,0.000759687,0.000868996,stairs down
-1.367241599,-1.747192383,-1.041137695,0.034320735,0.192891901,-0.197631836,0.630615234,0.068759148,0.227282437,-0.200317383,0.715942383,0.051091788,1.439347463,1.055304079,1.751761257,0.039360057,973.5009257,973.4719344,973.5295642,0.00027736,0.000304884,stairs down
-1.251480296,-1.703613281,-0.798706055,0.053421587,0.166740321,-0.245605469,0.564819336,0.052613058,0.071500754,-0.148193359,0.240356445,0.016077469,1.291799915,0.811293688,1.71230927,0.051590031,973.5236639,973.4867852,973.5989688,0.000835491,0.000119191,stairs down
-1.181729524,-1.524169922,-0.860839844,0.028198027,0.143049157,-0.094726563,0.583984375,0.037427065,0.181050176,-0.128173828,0.634887695,0.040332231,1.23247115,0.874454916,1.586576723,0.035938004,973.535664,973.4901631,973.567769,0.000529038,0.000200194,stairs down
-1.169824717,-1.485595703,-0.920898438,0.020823382,0.207868304,-0.069091797,0.51550293,0.035558474,0.130663813,-0.044189453,0.301757813,0.012519437,1.213956124,0.922790372,1.523597088,0.023520889,973.5275951,973.4901837,973.5627191,0.00025448,9.93E-05,stairs down
-1.087304126,-1.468383789,-0.67578125,0.06033605,0.35735172,-0.069702148,0.956420898,0.118933068,-0.046197299,-0.505859375,0.196411133,0.029877795,1.206569867,0.698535148,1.649765,0.063729307,973.5551242,973.5008188,973.651956,0.001873565,0.000664937,stairs down
-0.46178894,-1.646362305,0.316162109,0.268781999,0.671658325,0.00402832,1.33190918,0.125947189,-0.297694397,-0.930908203,0.139648438,0.088280948,1.087284302,0.727012515,1.665700053,0.048386068,973.6153865,973.5125805,973.8036491,0.008060454,-0.002979282,stairs down
-1.044045082,-1.764892578,-0.727050781,0.062586384,0.33905264,-0.050415039,0.70715332,0.070170789,-0.049479558,-0.2109375,0.185913086,0.00936638,1.131987565,0.735746452,1.778123177,0.067444692,973.6173481,973.5471272,973.6863525,0.002138731,0.001261247,stairs down
-0.877008853,-1.764892578,-0.103027344,0.171545906,0.41530576,-0.017944336,1.240112305,0.140523672,-0.062157672,-0.589599609,0.19909668,0.041146977,1.11311885,0.781783237,1.778123177,0.056444172,973.7209412,973.6456301,973.8106991,0.001386546,0.000788521,stairs down
