avg_accX,min_accX,max_accX,var_accX,avg_accY,min_accY,max_accY,var_accY,avg_accZ,min_accZ,max_accZ,var_accZ,avg_magnitude,min_magnitude,max_magnitude,var_magnitude,avg_pressure,min_pressure,max_pressure,var_pressure,slope_pressure,Label
-0.8733093917973117,-0.8974609375,-0.85534667968,0.00013380431166644597,0.476532310564301,0.44140625,0.51477050781,0.00035736860656034297,0.2088688676039785,0.17761230468,0.23461914062,0.00018718202658095362,1.0168161200218282,0.98941090821,1.03738352282,0.00013604235973355825,976.0257121630328,976.01688416311,976.03321814304,1.770686983603855e-05,6.83348973009642e-05,Null
-0.8760888671844,-0.88159179687,-0.86767578125,1.4449514515997868e-05,0.46577148437159993,0.44653320312,0.48071289062,7.09355479480449e-05,0.22266601562120003,0.20849609375,0.23303222656,5.98538042201813e-05,1.016945368102,1.0070866329,1.02462728515,2.104863026993991e-05,976.0279872806236,976.01626195924,976.04348775908,7.582093966031251e-05,0.00018330610610361122,Null
-0.8753906249955999,-0.88500976562,-0.86791992187,2.1950163024379533e-05,0.4754150390583999,0.46826171875,0.48278808593,1.3593471408533577e-05,0.20805664062159995,0.19360351562,0.22131347656,3.773034221274266e-05,1.0176780106892,1.0093857366,1.02680935758,1.9978989767564075e-05,976.0516357449739,976.04064144251,976.05999857519,3.632290302360244e-05,0.00017889139420275196,Null
-0.8728417968708001,-0.88342285156,-0.86462402343,2.128875617089943e-05,0.48186035155919993,0.46545410156,0.49658203125,5.726139954696378e-05,0.20713378905879998,0.1875,0.2236328125,0.00011173965953916803,1.0183874940439999,1.00853955856,1.02731339152,2.2127507807993677e-05,976.0599139806047,976.05615995374,976.06658263204,6.280964112979041e-06,5.606765295576919e-05,Null
-0.8670703124968,-0.87744140625,-0.83203125,9.412895548301078e-05,0.48557128905919983,0.47314453125,0.49841308593,3.543526234272412e-05,0.22580078124720004,0.21606445312,0.26953125,0.00011617280017618272,1.0192144257392002,1.00664725695,1.02583596867,2.1848885922635096e-05,976.0648160194615,976.05905405845,976.06920478614,8.426551431992593e-06,6.991493576810124e-05,Null
-0.8547070312464001,-0.94860839843,-0.80859375,0.001467611187484276,0.5335644531211998,0.41467285156,0.61352539062,0.003391292938111251,0.19669433593439997,-0.01794433593,0.32824707031,0.008636585052454845,1.0324276048544,0.93519494877,1.10670480269,0.0013712845535428367,976.047861871468,976.01370200726,976.08295030228,0.0005071729685723053,-0.00028240281878960736,Null
-0.8802490234339999,-0.96923828125,-0.78967285156,0.003052570603148897,0.46585937499559976,0.33544921875,0.62866210937,0.009024849708550498,0.1472851562452,0.02099609375,0.33068847656,0.007567776670368254,1.0156052079180002,0.91939633334,1.06899425325,0.0015666913548110155,976.0384750798761,976.01026734736,976.06594535535,0.0003522869739247923,-0.00039199325937992974,Null
-0.8864160156204,-0.93933105468,-0.830078125,0.0008936110409541684,0.47333496093399985,0.43029785156,0.56811523437,0.0013696486058160855,0.15769042968400002,0.12158203125,0.23645019531,0.0013229329176483832,1.0187936072200001,0.98962080114,1.05154371429,0.00025810720559677353,976.050451591147,976.03074124675,976.07401214021,0.0002199704878893811,0.00044471401509397704,Null
-0.8856542968699999,-1.11657714843,-0.73474121093,0.008711990105823714,0.5051660156215999,0.34826660156,0.67358398437,0.00952226431683924,0.1490087890592,-0.18505859375,0.33288574218,0.017354038892908118,1.0419593759327999,0.83712910011,1.30457639506,0.011447399408139913,976.0613422733743,976.03354678828,976.07726378321,0.00015375248119863517,1.604372737009949e-05,Null
-0.4654443359347999,-1.20202636718,0.03686523437,0.1724786360080755,0.7223583984331998,0.27856445312,1.03649902343,0.0392197287203526,-0.18941406249840007,-0.56811523437,0.29113769531,0.06796839709104566,1.0148946662007998,0.74889312963,1.47930219582,0.02139058932683326,976.0563425988294,975.98197729433,976.18861821684,0.0033359375105015423,-0.0007000579459905784,Lift up
-0.7564111328083999,-1.63122558593,-0.11071777343,0.16944227329423237,0.6506201171843999,0.33056640625,1.21350097656,0.04965746200472235,-0.0752929687492,-0.78283691406,0.72900390625,0.13347483885228398,1.1199452049207996,0.44138877969,1.76171112904,0.09687367297815631,976.1033230153907,975.97014510466,976.28437659949,0.011238361389179247,0.001991051164751025,Lift up
-0.8980419921831999,-1.04821777343,-0.79077148437,0.003847654756803156,0.3981494140583999,0.18615722656,0.56384277343,0.011897433743242909,0.24423828124559996,0.03674316406,0.54113769531,0.01019512884555813,1.0243036918076,0.95343047859,1.12544756172,0.0011489654459157445,975.979691855577,975.81445906562,976.05687685848,0.006299449347920559,0.002288259062279622,Lift up
-0.8888525390596002,-0.97521972656,-0.80139160156,0.0015667112427827322,0.46263671874599993,0.38610839843,0.6064453125,0.003134691257716442,0.18445800780840002,0.1396484375,0.23205566406,0.0005511285319337485,1.0208676767792002,0.96190645631,1.08296963045,0.0011570894940591805,976.0353897965759,976.01692739522,976.06039535579,0.00012403654911692267,-0.00021379142315683364,Lift up
-0.8906151357295959,-0.951171875,-0.84582519531,0.0005965335262012776,0.44674898397656554,0.41394042968,0.48181152343,0.0002592749827459401,0.175786182129697,0.14831542968,0.21154785156,0.00024599138547431516,1.0119771808018183,0.968701346,1.07990826448,0.0006804862389913883,976.0090651117988,976.00225795865,976.03266079527,5.127276543725829e-05,-5.313948927440893e-05,Lift up
-0.8957519531205049,-0.94555664062,-0.8642578125,0.00028710523427573695,0.44545183277707073,0.41784667968,0.4658203125,0.00015919823126600628,0.1867564808193939,0.16662597656,0.20971679687,0.00013226303849502477,1.018205349891313,0.97617126257,1.06905227452,0.0003106640932212097,976.0105916163614,976.00107138689,976.0238649755,3.6705968866184535e-05,7.999194633146187e-05,Lift up
-0.9017670300498981,-1.0068359375,-0.83081054687,0.0010494521539461295,0.4490294164511223,0.41259765625,0.47277832031,0.0002406716108390205,0.1725065270209184,0.11450195312,0.19653320312,0.0002834286964979683,1.022396693425816,0.95240925664,1.10393072102,0.0008407715657023883,976.0143275414636,975.99833438828,976.03350137574,9.331296288831386e-05,-4.648468680666976e-05,Lift up
-0.8963409109171135,-0.92785644531,-0.84252929687,0.0005536942463933793,0.44640358206773195,0.39379882812,0.47961425781,0.0004011426165895636,0.16133290713226803,0.08911132812,0.21508789062,0.0007595665708358738,1.0148326725516497,0.95809097006,1.04797573722,0.0005485243753679548,976.0118345466622,975.84746394436,976.3858935626,0.01938746880474512,-0.0017850308335013022,Lift up
-0.9097359254149485,-0.95068359375,-0.87158203125,0.0003775910688381406,0.44860588152010306,0.41333007812,0.47143554687,0.0002511500627298898,0.16664737032494845,0.13671875,0.19128417968,0.0002775210918649395,1.0280933450761855,0.9794534008,1.07053761307,0.0005648533194090235,975.9996499731159,975.94839638859,976.12257449835,0.0011821348413193777,-0.0002628934328120173,Lift up
-0.9375940958621874,-0.9775390625,-0.87414550781,0.0004941320667547502,0.46031188964572917,0.42626953125,0.47998046875,0.00022045475870843982,0.19369125365874998,0.16516113281,0.2177734375,0.00016128662482028106,1.0624016357365627,0.98757598047,1.10931750941,0.0006624406643166694,975.9629845049071,975.88325977905,976.01842089867,0.0015640704722383039,-0.0013761702286018524,Lift up
-0.907538805505579,-0.93493652343,-0.88903808593,0.00010008593689064724,0.4290681537801052,0.4140625,0.44421386718,6.0006101731997495e-05,0.17911569695378948,0.16479492187,0.18957519531,5.657567089715155e-05,1.0197667802727368,1.00375588474,1.0488166098,9.974781026892035e-05,975.7781361186409,975.6824049823,975.88668917284,0.003935980424071487,-0.0022597455820688042,Lift up
-0.900103629900851,-0.92443847656,-0.87316894531,0.00021771740766358765,0.4448073366814893,0.42602539062,0.48608398437,0.00021114708308994708,0.17868496508957443,0.15661621093,0.19494628906,9.435507312962856e-05,1.0199177903078722,0.99635971856,1.05556783316,0.0002565113298179821,975.5640580135698,975.45388137755,975.65784473707,0.0036668738114832944,-0.0022055747741241754,Lift up
-0.893962454284468,-0.93225097656,-0.85754394531,0.0004709079551610712,0.44242826420872317,0.40954589843,0.46740722656,0.0002563316924848468,0.1878168633601063,0.1708984375,0.21020507812,7.498082266341321e-05,1.0152234088321281,0.9882398001,1.0474454763,0.00030517572505351596,975.3464638105122,975.2390137552,975.46548047908,0.004804867899026723,-0.0025009229709650957,Lift up
-0.89601053217043,-0.93371582031,-0.8583984375,0.00029706820502996376,0.44065938969645163,0.40283203125,0.46643066406,0.0002740339252599687,0.17965206022731184,0.15502929687,0.19970703125,0.00010704656679711023,1.0147392091743008,0.98682918851,1.05167981551,0.0002685156381067985,975.1314291617614,975.02750099372,975.24737287418,0.00414674775069383,-0.0023626776026380732,Lift up
-0.8975697392967392,-0.92785644531,-0.87548828125,0.00020250922262026212,0.438001549758913,0.42150878906,0.45373535156,6.974118638090234e-05,0.18184363323336958,0.1640625,0.19213867187,6.0909160268100693e-05,1.0152126677018476,0.99004372712,1.04738498478,0.00021906013742719276,974.9116734541038,974.80809169622,975.0219088599,0.0039663579727108175,-0.002339831824658327,Lift up
-0.9065458878184781,-0.94226074218,-0.88403320312,0.00017718503555300014,0.4293106742489129,0.41271972656,0.44873046875,9.638452664536143e-05,0.18615457285695652,0.16516113281,0.20068359375,8.528899957004787e-05,1.0202811010744564,0.99947191242,1.05259391541,0.00016990626540490551,974.6988850408541,974.58161684836,974.80830055755,0.00950728229554991,-0.0032528722762718123,Lift up
-0.9015858409128571,-0.94104003906,-0.86242675781,0.0004012742031270143,0.44001250214197796,0.41186523437,0.46740722656,0.00022283364202147258,0.1788652021768132,0.15576171875,0.20336914062,0.00015455048453330913,1.019194303776703,0.97681128575,1.06312098307,0.0004791290753973442,974.474361020085,974.38584554931,974.57564359278,0.004081809204010399,-0.0023811621462839776,Lift up
-0.9033352322012221,-0.94519042968,-0.87707519531,0.0003115567691661556,0.4362589518191112,0.40161132812,0.46240234375,0.00020873019199786183,0.18744303385055558,0.16088867187,0.20812988281,0.00012736883057714113,1.020637929716778,0.98282147996,1.06913381956,0.00041458829484842266,974.262936780043,974.15821698037,974.35921815305,0.003962058517879993,-0.002397269276199032,Lift up
-0.906260850691889,-0.95080566406,-0.86840820312,0.0004290947232756819,0.4308661566796667,0.41687011718,0.44860839843,7.115795407802895e-05,0.18332383897266671,0.16357421875,0.2021484375,9.763592228616525e-05,1.0201532346054443,0.98812805466,1.06347310859,0.0004455785926610378,974.0472582769503,973.92782771891,974.15121128779,0.0041365624814398184,-0.0024421658547595206,Lift up
-0.9083916558114443,-1.07067871093,-0.73107910156,0.003188185531375899,0.4943603515578889,0.42163085937,0.93627929687,0.020720684193437745,0.16218532985755557,0.01013183593,0.20031738281,0.0024483641138599126,1.056359983243111,1.00160048973,1.28847837796,0.006107460928647916,973.8725242694973,973.77666244935,974.0409757073,0.004140288887837621,-0.0003448736906639501,Lift up
-0.7047479802873864,-1.05493164062,-0.26293945312,0.04774197770199461,0.6753609397156818,0.44348144531,1.08557128906,0.03477355490417025,0.17131736061465908,-0.30090332031,0.330078125,0.025018614185939595,1.0259143651147726,0.5708052453,1.48866922723,0.03635678120818393,973.572480636714,973.41020862044,973.91758353442,0.0179891256218739,-0.0037785340418763505,Lift up
-0.8799596207830338,-1.24548339843,-0.58422851562,0.03373573089948873,0.6183574547882021,0.34155273437,0.98486328125,0.01953658319647823,0.07514867889617978,-0.33764648437,0.36767578125,0.049004271796498085,1.1093413403880898,0.71631897422,1.37880112568,0.033204485423398544,973.4333381497061,973.25873443669,973.68480096516,0.01987851934116077,-2.4116317679057425e-05,Lift up
-0.8805366603770115,-0.99475097656,-0.77954101562,0.0019865150288353476,0.4601924501581609,0.38916015625,0.7646484375,0.010498737885057141,0.24012072332655168,0.17895507812,0.45397949218,0.005203729726744625,1.0271772020512642,0.95675600726,1.25999307279,0.007255921203880965,973.1058702953093,973.01366142788,973.32210520405,0.003430843094007632,-1.1906712871392516e-05,Lift up
-0.8826210715518182,-0.92224121093,-0.84252929687,0.0002964724053485766,0.4297069202728409,0.40063476562,0.45349121093,0.00023650742341904676,0.20059065384931818,0.18981933593,0.21252441406,2.5936582430849667e-05,1.0020254700222728,0.95305634079,1.03895067746,0.00040674834824992875,973.0606926613301,973.04416068921,973.08591140462,8.283340898855988e-05,-0.0002702513268610985,Lift up
-0.8955262649859301,-0.92126464843,-0.85522460937,0.00021826993628085018,0.43971429868790685,0.41625976562,0.45617675781,8.62854939410078e-05,0.21393815860790705,0.19702148437,0.23583984375,9.161460579169096e-05,1.020423350690349,0.97736402043,1.04512156779,0.00021712808678259231,973.0450414262071,973.03997690318,973.05403988486,1.5516954315430084e-05,-5.197840624035042e-05,Lift up
-0.8937974086987208,-0.90954589843,-0.87268066406,7.960883804934104e-05,0.4337087231973254,0.42224121093,0.44409179687,3.022038048508834e-05,0.2179934479427907,0.20324707031,0.22729492187,4.7261511501499705e-05,1.0171423444712793,0.9952267782,1.03464577521,7.580434365760276e-05,973.0435192054305,973.03627181001,973.05629605599,2.229272312678126e-05,-1.7966969599474285e-05,Lift up
-0.8943154978172092,-0.90490722656,-0.87194824218,5.902110634707744e-05,0.43770155795348836,0.42626953125,0.45922851562,7.04168457906262e-05,0.21414539425418605,0.201171875,0.2275390625,5.279872388265218e-05,1.0185107093568606,0.99858569924,1.03266513425,5.7838464567619235e-05,973.048378578736,973.03987683946,973.05727700574,2.250222130606352e-05,-4.460557389768041e-05,Lift up
-0.874520335474353,-0.98107910156,-0.77954101562,0.002238696809370598,0.4564108455843529,0.33569335937,0.59118652343,0.00447154159041954,0.19786305146623528,-0.06018066406,0.29382324218,0.009324146531442118,1.0127542189307057,0.88863166466,1.099535633,0.002449924045010838,973.0427251435063,973.0275519935,973.05686106123,8.62691547632605e-05,-0.0002798992478089112,Null
-0.8888815487087058,-1.17517089843,-0.60119628906,0.016787756273774993,0.39758731617188214,0.20874023437,0.67504882812,0.011283258755639803,0.19841883041929412,-0.0634765625,0.36926269531,0.013524993014425992,1.0039759434856472,0.65877224233,1.30930495222,0.02094143181633794,973.0342727471436,972.99815294139,973.05151490263,0.00016603390996326484,-0.00029086615491568323,Null
-0.9228486560598809,-1.26782226562,-0.82666015625,0.010819792738871912,0.48699660527880945,0.34509277343,0.78234863281,0.008795052578869578,0.1895185198070238,-0.09509277343,0.29931640625,0.011012245533607632,1.0675012848121426,0.90042824159,1.49016308895,0.015622071491021433,973.0382309451468,973.02014564072,973.07022438925,0.00012194658600270624,9.34584479469221e-05,Null
-0.8675580705864285,-0.91882324218,-0.77099609375,0.0017771384967868757,0.438459123880357,0.30444335937,0.6279296875,0.007432580404469583,0.2480686732657143,0.15100097656,0.30261230468,0.0014052133102839717,1.0081927152673809,0.96413475118,1.0603910581,0.00048324153958110324,973.0407087759519,973.0231768501,973.05025733367,5.854949549989474e-05,-0.0001432444646199007,Null
-0.9103665639080724,-1.31433105468,-0.74377441406,0.014517800950630917,0.4885901025934939,0.37231445312,0.65026855468,0.0070831395274448955,0.15329972232385541,-0.19738769531,0.33862304687,0.026457906066255428,1.060516477493012,0.91241947269,1.43208476277,0.013940962569078256,973.0349738197809,972.99665677083,973.08666376672,0.00038074195948242654,-0.00017619399765614232,Null
-0.9060617469834938,-1.42504882812,-0.59362792968,0.047198102351040584,0.5173501623646988,0.24597167968,0.93176269531,0.033824437555520455,0.1324051087144578,-0.43872070312,0.40441894531,0.044093403246882525,1.092006291875301,0.69192862308,1.49406589495,0.0377153754339055,973.0393781112074,972.98144353072,973.2367221499,0.003953966901482192,0.0014275129455731585,Null
-0.8147359708419512,-1.06665039062,-0.48510742187,0.028200768348992235,0.5971992306553657,0.36889648437,0.88159179687,0.017707232637982906,0.10037157012012193,-0.64367675781,0.44897460937,0.08085334063979888,1.058835330360488,0.68220081646,1.46344270462,0.03502644188646481,973.018949528171,972.918115603,973.24701526075,0.00730399999304995,-0.0007229788390245907,Null
-0.7259655463940243,-1.02111816406,-0.47302246093,0.020761467794867962,0.5610277129343902,0.34899902343,0.74108886718,0.01234860749439395,0.19834490519939027,-0.03991699218,0.51513671875,0.02223555852928009,0.9534269207974391,0.64518480399,1.19537386393,0.027097015827048817,973.0082822368447,972.94635420598,973.16392853762,0.0028444456877661354,0.0004053260206603257,Stairs down 
-0.7845112364932099,-1.44677734375,-0.46374511718,0.04987568342528901,0.5713011188240741,0.35681152343,0.83276367187,0.017978495584832162,0.1256103515602469,-0.08947753906,0.43566894531,0.015334228425723587,0.9896164295792594,0.67250816318,1.67225496484,0.061197040354208546,973.0607401251717,972.97970621151,973.20387501032,0.003117907844835001,0.0009437794464311792,Stairs down 
-0.8154658564776543,-1.17614746093,-0.59143066406,0.020276007594285682,0.5652382933030864,0.33203125,0.86181640625,0.019283829606302236,0.1028721185348148,-0.29821777343,0.30163574218,0.027209754664573527,1.0188536340387655,0.77563945323,1.46961118429,0.02323091379734441,973.1061717572063,973.03300127668,973.21440481223,0.0017891052359762106,-2.390829413700472e-05,Stairs down 
0.4527889298787654,-0.46728515625,0.96716308593,0.156226774873516,0.2882697964862963,-0.13171386718,0.75927734375,0.03637780998714958,-0.7262204017144444,-1.19165039062,-0.24084472656,0.09220035762322257,1.0118796277067903,0.64538980579,1.53804344966,0.07381308623711463,973.0604311133277,972.83135847801,973.62987092345,0.024236620589299946,-0.0005422747872675079,Stairs down 
-0.024816894531625004,-1.21020507812,0.82360839843,0.2907131315746914,0.291682434079625,-0.10913085937,0.703125,0.04416097717282371,-0.666381835934,-1.09094238281,-0.05871582031,0.07461074183285987,0.8992146264875001,0.19621381693,1.67102758375,0.1271277137483822,973.1516927567209,973.01709090402,973.39090077585,0.013061086668381496,0.0018979525798042678,Stairs down 
-0.7459167480425,-1.6484375,-0.14001464843,0.2096668858706049,0.55075836181225,0.10766601562,1.19030761718,0.0931418987370198,-0.07798614501675001,-0.82373046875,0.90185546875,0.15320529354574539,1.0521096131858751,0.2230977817,1.81496164856,0.2118356161524632,973.2276119460166,973.01358095948,973.43152454552,0.008775887997769075,0.0011611769066421365,Stairs down 
-1.0632030631887341,-1.89892578125,-0.60668945312,0.12120806797036128,0.37545892256468355,-0.02172851562,1.27416992187,0.06752194778077932,0.017652294303544303,-0.59143066406,0.54895019531,0.11217290560896288,1.187065121414684,0.63037173199,2.35175985794,0.16079128806963047,973.322884376815,973.2243014401,973.54908018326,0.006894004583942584,0.0005279575176658247,Stairs down 
-1.119446573373924,-1.63024902343,-0.74987792968,0.05225768183774452,0.2485938736117722,0.00085449218,0.46154785156,0.014989721798248427,-0.05586648289012657,-0.224609375,0.05261230468,0.00652513171052276,1.1582405327473413,0.74998587356,1.66899586037,0.05003149266815647,973.3830936593797,973.34746802206,973.45046475594,0.0006845314345843447,-8.350067988528229e-05,Stairs down 
-0.7053778925992403,-1.02502441406,-0.23754882812,0.043308093302480706,0.6537282436665822,0.23693847656,1.0078125,0.030845760109270693,0.05405242533645569,-0.21142578125,0.4033203125,0.04221863065628923,0.9975769792941772,0.62592788007,1.49299308741,0.04818983557287792,973.4477226379896,973.22809564379,973.73882098386,0.01862446049039226,-0.0013462755939454769,Stairs down 
-0.90045013427375,-1.25158691406,-0.61022949218,0.025912909943190048,0.5365905761686249,0.30456542968,0.880859375,0.03362253553572415,0.18929595946924999,-0.06323242187,0.39221191406,0.016062869374175975,1.079514525737625,0.71353486097,1.53162163486,0.044429950032847255,973.411236178125,973.28855005783,973.48220216156,0.0020507792405765044,0.0012640934325230297,Stairs down 
-0.8207046508751251,-1.02465820312,-0.50073242187,0.019469480233061845,0.6121078491175,0.40966796875,0.93005371093,0.01710941651703837,0.18342437743824996,-0.03454589843,0.40478515625,0.01606283553522972,1.05683424610775,0.67920667807,1.24841485844,0.017176437513719466,973.5471942314376,973.38641939013,973.73382914089,0.009748327551742481,0.0019271138324791527,Stairs down 
-0.8064132690398751,-1.02502441406,-0.62475585937,0.011413540924767478,0.57700195312075,0.36596679687,0.83251953125,0.011462518837004216,0.19491424560212503,-0.06958007812,0.44580078125,0.020114426651913042,1.024316519005125,0.7333759858,1.19957300476,0.014636913171378099,973.4043442947004,973.29051063071,973.55714625822,0.004040533687767959,0.0014956718308072588,Stairs down 
-0.8654043463173416,-1.10217285156,-0.61560058593,0.020976998262768276,0.5699092044067087,0.33227539062,0.91918945312,0.023583999564394467,0.1767160922632911,-0.09680175781,0.35131835937,0.020304907928727908,1.0666612721739241,0.72871774523,1.37911349244,0.03162867289478661,973.4564231717169,973.38510735069,973.54452435152,0.002057192288418146,-0.00012393748050664607,Stairs down 
-0.8447960962184807,-1.08520507812,-0.60107421875,0.01502413118633397,0.5463666312267087,0.3798828125,0.77624511718,0.010507011807197453,0.2263631699927848,-0.07751464843,0.43054199218,0.01571398903783247,1.043291119767848,0.71988953565,1.33650105284,0.015905237927732033,973.4552562587761,973.38548183358,973.5566935621,0.002134166502349975,-0.0003654121998673816,Stairs down 
-0.847249864019367,-1.04284667968,-0.66137695312,0.01118289802385419,0.5783011520925316,0.36511230468,0.88891601562,0.014364338741540493,0.10616099683405064,-0.14514160156,0.32055664062,0.019866537864108483,1.0448782271183539,0.79723968762,1.34559459276,0.016815979558274918,973.4609320475626,973.38514483308,973.52809714906,0.0015422540635833602,0.0007466736313817152,Stairs down 
-0.7225999098521794,-1.36633300781,-0.17712402343,0.12011943610167206,0.553806402741154,-0.52551269531,1.0126953125,0.12959472956821752,-0.05566093248923078,-0.29467773437,0.27783203125,0.03806679975317499,1.025759589023205,0.68496648015,1.52043374627,0.06468837031555442,973.4218943490515,973.32588293748,973.48304243865,0.0019137923789399984,0.0011209829889511924,Stairs down 
-1.010122445910128,-1.54968261718,-0.56750488281,0.08613062940982014,0.34586588541358976,-0.06713867187,0.92639160156,0.053681728772590864,0.10132148938153844,-0.21301269531,0.48669433593,0.03593933310282502,1.110995629000513,0.60671703498,1.58697627018,0.09058513533762669,973.5170420605056,973.39387896346,973.70501099123,0.0052527763385412955,0.002104275776008092,Stairs down 
-0.7087386693669229,-1.03625488281,-0.35522460937,0.03078572838866888,0.5965732672256409,0.17822265625,1.03479003906,0.04272965113768249,0.007732684795,-0.87414550781,0.30358886718,0.0661630742051557,0.9699638326826926,0.40374816294,1.41011232217,0.06477446086650597,973.545416917559,973.43294545054,973.88207057346,0.007927235988267866,-0.00013208059188898641,Stairs down 
-0.8061038286225639,-1.30187988281,-0.4912109375,0.04745784066753857,0.5415039062474358,0.31958007812,0.78515625,0.019264600880569308,0.02297738882294871,-0.16613769531,0.2646484375,0.01259141731619576,0.9814344604476918,0.63705974645,1.52439585154,0.05940281227768701,973.5916349773289,973.50737218794,973.64470714258,0.001203385120629694,0.0013475490047448776,Stairs down 
-0.8119372082950648,-1.21228027343,-0.52172851562,0.040287940970950696,0.6262952135716882,0.31408691406,1.04736328125,0.03260421327679361,0.08666833654402598,-0.03723144531,0.25183105468,0.00668078523397407,1.0372222267806492,0.70195509751,1.53745736008,0.06252065888172365,973.6766300800028,973.64079612677,973.71277202152,0.00048501507659127975,0.0008452203282428277,Stairs down 
-0.8519254985582895,-1.20031738281,-0.54516601562,0.034662072250568006,0.5772223221588156,0.35083007812,0.84313964843,0.018368187776703872,0.07449822676776315,-0.12084960937,0.36352539062,0.019823982641874384,1.0451219675257897,0.76303750346,1.44604930139,0.04471673538854238,973.7391108595494,973.69687804639,973.76829999232,0.00036625025875159105,0.0007370681231800621,Stairs down 
-0.8153911389772366,-1.49169921875,-0.47729492187,0.05486163107995786,0.6374463533055262,0.30041503906,1.35034179687,0.056608102894057405,0.09279753032460528,-0.13317871093,0.50695800781,0.02221889615770391,1.0573529362078946,0.7102993417,1.71821833103,0.0949962324293072,973.802043392004,973.76829999232,973.8605521364,0.0004804426347531803,0.0006561207553860696,Stairs down 
-0.8570458984339999,-1.0068359375,-0.7021484375,0.009134619123246517,0.5313281249972,0.28405761718,0.90209960937,0.020019945115730006,0.14855468749760004,-0.138671875,0.37609863281,0.017580746170196452,1.0333060240248002,0.79880054491,1.33586801381,0.017530314794514303,973.8407074971751,973.79616552256,973.87032472506,0.00040657399449279744,6.936720920683362e-05,Stairs down 
-0.9056408335828154,-1.46484375,-0.54260253906,0.07421973858856494,0.5209972788942717,0.29162597656,0.80676269531,0.014880360486261257,0.09020403519203883,-0.04919433593,0.296875,0.00713581500608491,1.0603318779464077,0.63800174658,1.57218692179,0.07145185277093226,973.884666125885,973.84394107398,973.92527832439,0.0005579847824256574,0.00047060055871226395,Stairs down 
-0.9066004599259141,-1.15637207031,-0.63623046875,0.0174528205607991,0.41544727612172033,0.10974121093,0.75341796875,0.0171227939412074,0.2188090662766666,-0.03527832031,0.384765625,0.012098385462391163,1.0329011041858063,0.71522563885,1.34613493592,0.018871200632773234,973.9224266597369,973.88306002753,973.97081408563,0.0005597569615358175,0.0002042677449954901,Stairs down 
-0.8937145414767856,-1.21032714843,-0.56689453125,0.03226762506460399,0.4700549897653571,0.24841308593,0.99377441406,0.027549383143464043,0.1474522181895238,-0.17846679687,0.34387207031,0.020249609409817487,1.03645168008,0.6590316154,1.57532344611,0.046858732208680504,973.9206621759681,973.87006230815,973.96554033637,0.0008875071051959394,0.0004005749681767137,Stairs down 
-0.9177343195104545,-1.14147949218,-0.67822265625,0.018143969781851767,0.50254821777,0.11767578125,0.84228515625,0.027557219860165797,0.16984835537749998,-0.15600585937,0.37780761718,0.02096940920847659,1.0788572856990908,0.75482891132,1.39698595229,0.02591386748529526,973.9134321702172,973.85957007029,973.95746172583,0.0009553418079430999,-0.00027347167654693415,Stairs down 
-0.9186242675742998,-1.2392578125,-0.64538574218,0.02085804959012224,0.4941076660119999,0.20446777343,0.84399414062,0.02188490552580971,0.19041748046469997,-0.17346191406,0.40283203125,0.019402561614768544,1.0753734804329003,0.69950670035,1.50331931117,0.0296643298994656,973.9244181709043,973.8757030735,973.95583288482,0.0008105907851493174,-0.00023631679496390255,Stairs down 
-0.8671751558083146,-1.04748535156,-0.64270019531,0.01424298741764291,0.4184611459753932,0.10400390625,0.71936035156,0.02280845440563036,0.1616800715397753,-0.19323730468,0.38720703125,0.021990938996111317,0.994174018297528,0.71073765094,1.27075275637,0.023504021835007795,973.9143291164052,973.85911094944,973.9604937012,0.000729260335403359,0.00027996143781197457,Stairs down 
-0.8069194275617284,-1.00756835937,-0.59704589843,0.01074457885137584,0.49258686583358025,0.3466796875,0.73132324218,0.005913156275463899,0.15099494839641975,-0.06665039062,0.35083007812,0.01246687617154899,0.9655119029955558,0.7656831038,1.22091118832,0.013275971664842876,973.9135915616021,973.86493665,973.94908846369,0.000453640050008668,0.00022209600335417034,Stairs down 
-0.8577913411421332,-1.14624023437,-0.482421875,0.02935634471790606,0.6018050130178667,0.240234375,1.01867675781,0.030647147947588774,0.15770996093573336,-0.23767089843,0.51049804687,0.042366511691432,1.0867976049646664,0.67088466669,1.56212165543,0.04330107488494373,973.9737623448253,973.93240947247,974.03312513067,0.0005930832991327121,0.000906267951492459,Stairs down 
-0.8604597897820618,-1.35571289062,-0.52136230468,0.03968492643171795,0.5034620147350515,0.33959960937,0.806640625,0.014271355912805666,0.08067463353639176,-0.05676269531,0.24926757812,0.009177367784868863,1.0094284062654642,0.71018478873,1.57754568287,0.044367928316349496,974.0145097044851,973.96854168681,974.06517533862,0.0006462808146001196,0.0007031708479432794,Stairs down 
-0.8219777960496841,-1.29724121093,-0.51879882812,0.057456116382915444,0.6417647512297893,0.43041992187,1.14501953125,0.029245206526850226,0.05049984580589473,-0.17614746093,0.36511230468,0.019735371835223486,1.058039475770421,0.68793511709,1.70923533749,0.07673625378115331,974.0770032455787,974.03822065541,974.20045855084,0.0017508451502701182,0.001219451326400115,Stairs down 
0.3993340853978162,-0.42102050781,1.13684082031,0.1673352409313024,0.6502853919688504,0.14770507812,1.06945800781,0.07556435506486082,0.20687269890137922,-0.18481445312,0.62145996093,0.05321888906764158,0.9339536170214944,0.6018355852,1.504759336,0.04611058865312574,974.0908819986591,974.00734121492,974.24580347371,0.0034268435054261334,0.0006907399625187146,Stairs down 
-0.8058729056818073,-1.20983886718,-0.42102050781,0.04996504635711586,0.6767401637772288,0.38110351562,1.13757324218,0.041197258209369134,0.10665268495614456,-0.18298339843,0.38818359375,0.018056337693046123,1.0715289723773493,0.70182300395,1.6493952125,0.07946905949776242,974.2089092958277,974.06600146862,974.4116701037,0.007112380263325229,-0.001229184714267049,Stairs down 
-0.8085518631247056,-1.51428222656,-0.47912597656,0.08568587117086089,0.6518255495520588,0.38732910156,1.14904785156,0.041340276285044844,0.06726792279245099,-0.09057617187,0.25732421875,0.006377766870726817,1.0496979181631374,0.61789502259,1.90620580997,0.11451060222777307,974.2391828075712,974.1352830365,974.40330081405,0.00493368246700985,0.0008640708304814392,Stairs down 
-0.7732268951714285,-1.20288085937,-0.53369140625,0.031989700286328755,0.5807770110706594,0.38366699218,1.00769042968,0.022043173533715297,0.1981751158953846,0.0166015625,0.49267578125,0.014708840603242467,1.0007441931994505,0.71120785194,1.49226913428,0.04140754326132983,974.3075336938944,974.20744559103,974.46123076951,0.0065226690837344265,-0.0005473013625329923,Stairs down 
-0.8016714700814634,-1.35803222656,-0.45910644531,0.055598213896252316,0.5794156702524389,0.32873535156,1.05725097656,0.028033255070473717,0.16597840843939027,-0.080078125,0.47033691406,0.028989534940274463,1.025819988522561,0.63351436827,1.52344367197,0.06569052913421387,974.3557089985653,974.25027734916,974.59617307842,0.006999678336488383,0.0018918660068377989,Stairs down 
-0.8415687962556578,-1.10961914062,-0.57971191406,0.02275674038803378,0.5480169998924999,0.37475585937,0.79382324218,0.012701964260865038,0.21794369345921047,-0.01879882812,0.39477539062,0.014181867868938366,1.0401985580899995,0.7247006238,1.29750436425,0.02334161791028571,974.3738550752448,974.26483799931,974.4333212178,0.0017626582999048016,0.0008907962259602686,Stairs down 
-0.8467109147863954,-1.056640625,-0.57568359375,0.013954829884363994,0.5479622774310463,0.3447265625,0.78430175781,0.01114946801092035,0.24342239734558146,-0.10754394531,0.4208984375,0.018955471732253464,1.0507804419697675,0.69370291352,1.23404336651,0.016030808484917124,974.3992722716569,974.33208258174,974.51611330146,0.0032381445462634634,-0.0003935991373775962,Stairs down 
-0.8464294433543,-1.20031738281,-0.56188964843,0.02272306499324324,0.5236596679658999,0.35119628906,0.75988769531,0.011212863819698033,0.19911499023179996,-0.0625,0.38208007812,0.0207880751572306,1.0279353930218,0.67973357077,1.42063205489,0.028115779262205494,974.3870260727533,974.36363732239,974.41709123972,0.00025942192680226896,0.00032965686296636363,Stairs down 
-0.8490525149185394,-1.07763671875,-0.58068847656,0.01861156691056946,0.48838274666033704,0.23986816406,0.85864257812,0.017151353791409283,0.21293588702325844,-0.13232421875,0.40515136718,0.020181835165080424,1.0181535970477529,0.6849404503,1.27669803969,0.023695226737532993,974.3930513675039,974.34551765105,974.4640765895,0.0013002885416425513,-0.0001382677013498859,Stairs down 
-0.830825433494878,-1.07861328125,-0.63549804687,0.012090605861719539,0.5632234898973171,0.36865234375,0.85864257812,0.013772282254829467,0.18081888338085364,-0.11242675781,0.37158203125,0.019218805044998566,1.033637136194756,0.74880139617,1.27669803969,0.016514654424161064,974.372333587209,974.3213780367,974.47445850544,0.0023602877275115592,-0.0005788547442226338,Stairs down 
-0.8290990193643749,-1.52197265625,-0.45812988281,0.073043254482076,0.5962333679160418,0.39538574218,0.94409179687,0.03654650883548401,0.14415868123145834,-0.13549804687,0.44116210937,0.02334859821937903,1.0485253768064584,0.64334123744,1.80867233682,0.0968379884799948,974.368248170378,974.29807795731,974.47442849321,0.002180572745120159,0.0007633748484564578,Stairs down 
-0.8116570723650526,-1.3916015625,-0.46301269531,0.03553304649224987,0.5501143606042106,0.30712890625,0.83703613281,0.016581876737909982,0.14758814761210529,-0.04296875,0.41235351562,0.017144495475301832,1.0076732058075788,0.69075197847,1.61913282072,0.03670674344106036,974.4309897826361,974.37228620786,974.62423216328,0.003235105987931627,9.150692714403245e-05,Stairs down 
-0.7464312385070587,-1.08117675781,-0.51806640625,0.02116993411905203,0.6137609145185882,0.375,0.85559082031,0.017308198195016642,0.12880572150341177,-0.08984375,0.38940429687,0.012797877609747961,0.9890099705476468,0.74218209917,1.34026365123,0.02325863986851324,974.4642426777654,974.41602252437,974.56512500864,0.0014881589357586577,0.00012791489148746918,Stairs down 
-0.7857712965710254,-1.23974609375,-0.45922851562,0.039105086141882635,0.5556061573476919,0.33935546875,0.93115234375,0.029613870972544348,0.1063936673648718,-0.005859375,0.48010253906,0.0133509421191377,0.9826231428484615,0.70839552162,1.55343945886,0.05361114763563401,974.5176447047744,974.47585228915,974.55825703897,0.0006140216754635852,0.0006206949516335328,Stairs down 
-0.8001805355640788,-1.26831054687,-0.51391601562,0.0405450033201361,0.6167988024218419,0.35546875,0.86303710937,0.023174737179536678,0.16977249948144738,0.01208496093,0.44799804687,0.012468524614512023,1.036978338809342,0.74839903905,1.53853563788,0.05007292074607889,974.5931277715482,974.53089896214,974.69558679619,0.0019534382893417316,0.00025026005236657465,Stairs down 
-0.8230140763048484,-1.24621582031,-0.52941894531,0.028914772930777502,0.5413682725647473,0.35864257812,0.87048339843,0.012702176427639964,0.09909643307808082,-0.07873535156,0.38696289062,0.015205152478281837,1.0003525925677776,0.73572345463,1.54228870519,0.03615996329923009,974.6572627411049,974.52639997561,974.9346965456,0.008862004866846154,-0.00017808507825778632,Stairs down 
-0.8156356811484374,-1.27465820312,-0.51196289062,0.04532554504512421,0.5669631957969791,0.29467773437,0.87048339843,0.025596967437332408,0.14366022745520832,-0.06982421875,0.44860839843,0.015328241529703093,1.017526922989896,0.69944889394,1.54228870519,0.05794192204160413,974.7266734066416,974.63938307791,974.85651892824,0.004153736082934446,0.0009292922721316774,Stairs down 
-0.8506289395384091,-1.0361328125,-0.5361328125,0.00865715058361658,0.4901289506354546,0.33947753906,0.69592285156,0.008416584573305944,0.14469909667579547,-0.041015625,0.29528808593,0.0076863516721374335,1.0002851181232955,0.77275305624,1.17006010025,0.008741550074288213,974.7631906939711,974.72011897574,974.83952393742,0.0011686993609035731,-0.00010256056903447501,Stairs down 
-0.8087962757418183,-1.19140625,-0.49780273437,0.038225104029810726,0.6341608220842044,0.29760742187,0.91711425781,0.027016202577571844,0.1011990633859091,-0.15307617187,0.3671875,0.01815375787622683,1.0459350803830683,0.67979995849,1.43744325007,0.055652226941846704,974.8101761629213,974.71448437295,974.98567608904,0.0055728120646911265,0.001877449599309686,Stairs down 
-0.8205718994101924,-1.05676269531,-0.66711425781,0.011418409627422256,0.5413301908012499,0.28735351562,0.73266601562,0.015538032972821645,0.19245910644250003,-0.0556640625,0.40942382812,0.017621651490321112,1.0181741931021153,0.8013022147,1.24088436125,0.010993604034260545,974.8260527550117,974.72993337052,974.94411399301,0.003358498410227414,-5.682103765815634e-05,Stairs down 
-0.8823550716825275,-1.11975097656,-0.68774414062,0.01446640014432007,0.5059613238283514,0.21350097656,0.853515625,0.02615659278755747,0.13342955872153847,-0.14880371093,0.30688476562,0.017761109060537905,1.0457505011220878,0.76063665164,1.40180471149,0.01668251305429968,974.8210398938406,974.76211753274,974.89554019697,0.0016359007376322118,-0.0007237989677142617,Stairs down 
-0.7822397990365061,-1.2373046875,0.25891113281,0.08731857269715151,0.5586731692349397,0.3330078125,0.93395996093,0.025640203252501218,0.03661815229650602,-0.50842285156,0.38146972656,0.08366165472603555,1.0444497097977106,0.65865232494,1.40740324522,0.029082406265713654,974.8174293767494,974.67801045132,975.06998847204,0.005311657776033148,-0.0010125410831490706,Stairs down 
-0.30902020342974024,-1.19396972656,0.86474609375,0.5396641479554689,0.6125837053538961,0.32214355468,0.96484375,0.035131882624340784,-0.19492250912999998,-1.0322265625,0.39282226562,0.1276240509724309,1.059067837084805,0.43851117377,1.59238854861,0.08147828559457934,974.8409686109117,974.74350473577,975.09679279752,0.01105624110422535,0.002220568882264348,Stairs down 
-0.8208866328941757,-1.00024414062,-0.56213378906,0.014464385474375868,0.5286194518334065,0.34582519531,0.87426757812,0.015347072238008077,0.19650369161813186,-0.01391601562,0.40209960937,0.017180645247366694,1.008080269994945,0.67719534289,1.32647693142,0.02240315371414639,974.8283710199648,974.77043784211,974.88185644444,0.0007988639449794422,0.0006072696262600949,Stairs down 
-0.7954300860924489,-1.04125976562,-0.47473144531,0.022457154968845223,0.592362384402551,0.41394042968,0.89831542968,0.014270979838214428,0.16460558832581632,-0.05578613281,0.49780273437,0.016565947225901503,1.0167734567266327,0.67150507213,1.37053680519,0.029924571361873636,974.8460925417544,974.81340436074,974.88943536723,0.00028722011413926995,0.00026162046002827687,Stairs down 
-0.8053796941547727,-1.26037597656,-0.53295898437,0.04742359625961764,0.6452622847088637,0.34338378906,0.98400878906,0.032935286559530194,0.07707353071545454,-0.07495117187,0.30090332031,0.008396740422331562,1.0449132742174998,0.70976219911,1.54528373213,0.0676117988367429,974.9044926920039,974.86634409371,974.95018763679,0.0006179748418567804,0.0007799135451779802,Stairs down 
-0.8383834273693826,-1.24401855468,-0.49499511718,0.020831985937241636,0.5745231722576543,0.29431152343,1.01293945312,0.02682976764604475,0.17785945939024692,-0.10949707031,0.32775878906,0.018235926320372808,1.0485043759348147,0.67733504433,1.62734849116,0.030699340187983953,974.9662759196264,974.9333183232,975.00002774587,0.00046121815095934263,-1.6163331379715803e-05,Stairs down 
-0.7845764160123,-1.18237304687,-0.46325683593,0.03935112055371778,0.6076635742146999,0.27978515625,0.86352539062,0.02736409655106791,0.05077758788979999,-0.09118652343,0.28942871093,0.009577220272779399,1.0057058441096998,0.67733504433,1.40134042322,0.05199879146380638,975.0041748323805,974.95314877845,975.07916589954,0.0016332043785343409,0.0003439588756760088,Stairs down 
-0.8543428461563828,-1.53552246093,-0.47766113281,0.07491441412439181,0.632198252572553,0.34838867187,1.05810546875,0.03564932380071692,0.0939564806343617,-0.07849121093,0.42236328125,0.016345623688329262,1.0762733097561703,0.65924091196,1.87936299456,0.10159744851114597,975.0674505209379,975.02270761211,975.13366669836,0.0011062512359064935,0.0005481342331302261,Stairs down 
-0.8090180896534525,-1.32653808593,-0.47497558593,0.04983360525947749,0.6394362676672619,0.30126953125,1.15673828125,0.05017372359656302,0.08035423642011905,-0.05932617187,0.33447265625,0.007545953097772943,1.0432564763944048,0.67600869336,1.66947901246,0.08879166696191024,975.1318476832804,975.07049511205,975.18739425074,0.0010122660241988074,0.0009400297600995077,Stairs down 
-0.7819205940512987,-1.21435546875,-0.416015625,0.039416469094051804,0.6385339513966234,0.3564453125,1.04736328125,0.035040120682774484,0.07858950131688312,-0.0595703125,0.3330078125,0.010461523359766545,1.0229961681970128,0.67953649575,1.53398915934,0.06341948219661353,975.1949177609857,975.14323367432,975.28547085206,0.0010981880546651207,0.0007879805758594105,Stairs down 
-0.833873548002763,-1.18310546875,-0.47497558593,0.042707560927922945,0.570041054168421,0.24731445312,0.82849121093,0.022840881188209292,0.17055150082013162,-0.13513183593,0.44152832031,0.027071263810633534,1.0463941604011844,0.71834879541,1.48209041161,0.04645119857601082,975.2696235011365,975.22062326424,975.32026428129,0.0011958190904750718,0.0011276813356860577,Stairs down 
-0.7964376801387376,-1.49792480468,-0.44958496093,0.07032437170357204,0.5698372553800969,0.28088378906,1.10119628906,0.03804062859465997,0.13857232250961166,-0.03308105468,0.46472167968,0.013920782169422767,1.0026381925711652,0.64541598776,1.87147337739,0.09496697061622228,975.3038810182659,975.24435619508,975.39835360814,0.0016709865006740625,0.0010863978965869531,Stairs down 
-0.8118843410285869,-1.36022949218,-0.44323730468,0.06046331286159572,0.5485229492143477,0.10424804687,1.08776855468,0.04150786029757,0.15457684060586957,-0.05944824218,0.53173828125,0.02232334330099623,1.0184108452301088,0.61887008339,1.49137045675,0.07047649698158374,975.37537655034,975.31703274894,975.46748385088,0.001446010515687303,0.0008175116225567159,Stairs down 
-0.8713495163653571,-1.08874511718,-0.65551757812,0.011223228085301339,0.5328877766891666,0.33020019531,0.78686523437,0.014152740214399469,0.21139090401499996,-0.08996582031,0.380859375,0.013766141027918493,1.0546444718255952,0.78184713431,1.34347627868,0.014479015632510582,975.4231353900138,975.38455334452,975.50206149135,0.0010426169324096533,2.180882120327333e-05,Null
-0.8581570400248316,-1.06066894531,-0.73071289062,0.008311154482716947,0.5119752348104494,0.33312988281,0.79187011718,0.016295189222341612,0.15149885884494382,-0.03051757812,0.35961914062,0.010091556142485488,1.020105978570899,0.84631499077,1.32164057688,0.015368559365179009,975.4087638798511,975.38610887539,975.45914838213,0.0003941988142615819,-0.00014813118629335167,Null
-0.854297368210303,-0.92028808593,-0.78759765625,0.001099655190009941,0.48448350693939385,0.36413574218,0.62976074218,0.0032549144324403203,0.278100832540101,0.17565917968,0.44812011718,0.005316139477778857,1.0250746931542423,0.97788172307,1.08764981356,0.0006902052841965634,975.4298841046772,975.32025994948,975.54507701786,0.005194976182733726,-0.001693863253860111,Null
-0.8070040927808989,-0.84289550781,-0.7373046875,0.0008684237496465855,0.5712396857408989,0.53002929687,0.63391113281,0.0009824524274909445,0.2397255200988764,0.19970703125,0.30029296875,0.0005125959610341179,1.018469863908427,1.00438174998,1.05070898807,9.583873922669318e-05,975.4329416728443,975.39537389509,975.46480574349,0.0003681860775152013,2.4228968465937456e-05,Null
-0.8749057431726581,-1.11694335937,-0.68884277343,0.01564437072587719,0.4813974114867086,0.30261230468,0.66979980468,0.012522432826176553,0.25367292572835454,-0.08923339843,0.40258789062,0.01566434792537483,1.0434204508882274,0.78819329949,1.27239405118,0.016310025939099176,975.3817113968028,975.33179579912,975.51266741918,0.0014156246523305217,0.0012369888576768445,Null
-0.3368787263544737,-1.34191894531,0.05041503906,0.12784825516277085,0.3050697728169737,-0.09204101562,1.06115722656,0.12011004819157318,-0.6168293200009209,-1.09094238281,-0.01086425781,0.10432739628768152,0.9313392565257896,0.19778121948,1.72911874626,0.06818801402372149,975.3674193126826,975.21558621893,975.51266741918,0.004797437824154832,-0.0013166316646732654,Null
-0.1421014694952381,-1.49267578125,0.24157714843,0.30610620422973783,0.4625578380721426,0.11901855468,1.99780273437,0.29119631122060713,-0.8380969819522619,-1.00024414062,-0.25109863281,0.03358286905575268,1.167010707299524,0.69353106884,2.45706204939,0.20040576857711206,975.3587947950966,975.27997083713,975.51133076216,0.0027942753638916544,-0.00011085636322698569,Null
0.07203735351500001,-0.25854492187,0.23681640625,0.025696592394596294,0.19054199218290002,0.05700683593,0.74548339843,0.0463247734730596,-0.9377783203091999,-1.01342773437,-0.73132324218,0.006113733330171102,0.9968250735978998,0.83097328836,1.15678225329,0.004663969676861167,975.3538243766085,975.3419693226,975.36588785428,6.986562215865482e-05,-6.312720860477208e-05,Null
-0.718059624562889,-1.10961914062,-0.25854492187,0.03575567923314462,0.7521335177908889,0.44592285156,1.18908691406,0.03859146265100846,-0.026491970487333334,-0.73132324218,0.41918945312,0.1083638323064759,1.1158937983793336,0.84653082642,1.39658169707,0.017674544333365926,975.406380560523,975.34328703904,975.59089069575,0.0039758968973578005,-0.00046317541392040806,Null
-0.8412311833037803,-1.13171386718,-0.53002929687,0.025262872934129817,0.49283060213170726,0.25842285156,0.83056640625,0.016914177106115993,0.19076463652621953,-0.16674804687,0.44165039062,0.037362568837701886,1.0169267909239026,0.60232684882,1.2656318111,0.03175989391725366,975.41114480891,975.35868042815,975.53073456106,0.0018063580822792105,0.00019126763373754208,Null
-0.8377469380657292,-1.29296875,-0.30236816406,0.04357095737045318,0.4830258687294791,0.17565917968,0.83837890625,0.025215247232858583,0.23055775960052083,-0.08068847656,0.43225097656,0.022188556657794848,1.0123508197677082,0.35278476595,1.35687769129,0.054026503909039215,975.3963476559608,975.33424814869,975.52564453039,0.0027498576769081204,-0.0003654478495345728,Null
-0.7272822062125002,-0.96276855468,-0.58190917968,0.013642009772382564,0.6870651245071876,0.48034667968,0.80908203125,0.009030646340641412,0.2498970031703125,0.13488769531,0.44128417968,0.0050514444954105845,1.0409446276790624,0.82122674585,1.25635027746,0.007393005461149072,975.4157596954911,975.37113101698,975.43799394522,0.00022838027648550458,-0.00041170909435264284,Null
-0.8415144099704649,-1.12255859375,-0.70922851562,0.008583878510809485,0.5138436250866277,0.42443847656,0.67077636718,0.003945363752158239,0.18486839116709303,-0.22119140625,0.37915039062,0.022952189025808378,1.0170248158020934,0.91581455455,1.30413085232,0.007170857902071973,975.4156617651779,975.33501562209,975.56155446127,0.004534365612380328,-0.001663868336431339,Lift up
-0.8036858974321793,-0.96630859375,-0.69189453125,0.0056614014076553955,0.5587565104130768,0.48510742187,0.67370605468,0.0031614205538102002,0.3125062600124359,0.06323242187,0.47827148437,0.011057193363358574,1.0342065116929489,0.87587751936,1.19544816338,0.005897667840511442,975.4162922199058,975.38895596212,975.46406168345,0.0003488408260045192,-0.00012092175102339362,Lift up
-0.8911481584781817,-0.98522949218,-0.84838867187,0.0012629325676094094,0.4081714184218182,0.26586914062,0.52111816406,0.00474008423821494,0.26211666750831175,0.095703125,0.44348144531,0.004639983334994774,1.0193488939855846,0.94056585797,1.11541614287,0.0008983734404696427,975.4226103127016,975.39192574925,975.45281905262,0.0002504414116549201,0.0003290574336153965,Lift up
-0.9017310509281731,-0.94592285156,-0.84838867187,0.000545651293716294,0.4132737379771154,0.38500976562,0.43896484375,0.00017186071199413842,0.19302368163557693,0.15539550781,0.232421875,0.0003317767410670915,1.0107490676909616,0.9689796314,1.04809327195,0.0006035372199239756,975.4219467262144,975.41061568446,975.43429694413,4.552551900128293e-05,1.0215901146214013e-05,Lift up
-0.8977621327226086,-0.91882324218,-0.869140625,0.00020046203052766456,0.4288767938981521,0.37902832031,0.45837402343,0.00026951339922627696,0.1957079016601087,0.17126464843,0.21423339843,0.0001207159016233635,1.0141528093305436,0.97291857081,1.03722742274,0.0002952938897066423,975.4229089634634,975.39802073329,975.42804473764,4.949966370518122e-05,-0.0001350222560640802,Lift up
-0.8921972067931323,-0.94970703125,-0.83081054687,0.0008899022157234574,0.4621229056814458,0.40734863281,0.62255859375,0.0021350560138877956,0.21685423333602408,0.17199707031,0.27648925781,0.0006519215635160529,1.0292533210437351,0.97164242927,1.08653648926,0.0008799775779963125,975.429700787344,975.36986832391,975.56002681269,0.0015039831878704013,-0.0002755919478009796,Lift up
-0.8880601820015385,-0.92358398437,-0.87817382812,8.360660556413787e-05,0.45253611134505495,0.43542480468,0.46765136718,3.9912460064380764e-05,0.22637872381043958,0.21264648437,0.25805664062,5.138263888540861e-05,1.0221403605527473,1.00791685909,1.05952545633,9.0199766406737e-05,975.4288553436993,975.42163186385,975.43933931235,1.1460651563692955e-05,-9.807213733502675e-07,Lift up
-0.8801979532021429,-0.90686035156,-0.8515625,0.0001869404203459966,0.45804518095969377,0.44409179687,0.47131347656,6.96678162143085e-05,0.22385577765857145,0.21020507812,0.23425292968,3.4278823392024735e-05,1.0172283523587753,0.98802490076,1.044403304,0.00020168985354458312,975.4217448634237,975.4119560324,975.42976157871,2.227206843258299e-05,-9.036676312440028e-05,Lift up
-0.9024905086869665,-0.93383789062,-0.86401367187,0.0002865097671212835,0.4622308966792134,0.43371582031,0.47912597656,0.00015110682328926172,0.2233324372335955,0.208984375,0.24340820312,5.740471054025737e-05,1.0383398018703371,0.99559539595,1.0754862642,0.00036794698895762837,975.4192333128647,975.4074987667,975.42944222952,3.101299123251431e-05,-9.618477965010034e-05,Lift up
-0.9171052155639506,-0.93566894531,-0.8984375,7.322385078180637e-05,0.4664457344681482,0.43627929687,0.48754882812,0.00011823750388904803,0.21881630979679012,0.19165039062,0.23706054687,0.00012279117456063892,1.0520383917654321,1.03411727443,1.07062257326,6.0519322526429664e-05,975.356590687836,975.26387148946,975.434082205,0.002581499106202727,-0.0019890082975445185,Lift up
-0.8819025213028571,-0.90661621093,-0.85510253906,0.00017414459487164366,0.4560848087418181,0.4326171875,0.47644042968,0.00012678659112768276,0.21630383776064938,0.19348144531,0.2490234375,0.0001703800502544363,1.0163025283605196,0.99612760299,1.04035213576,0.0001490570434659496,975.1522268061361,975.02829296081,975.26387148946,0.004616722198913643,-0.003022139435206212,Lift up
-0.8317171855999027,-0.87805175781,-0.78784179687,0.0006103193064563575,0.43862944667339776,0.36608886718,0.46716308593,0.00035653182058998354,0.2187808138606796,0.19018554687,0.30676269531,0.0006640269237640409,0.9660115515533011,0.92017982089,1.00458732835,0.00045546132869313114,974.9369611739168,974.86962029924,975.02829296081,0.0020553455121215675,-0.001403296555964272,Lift up
-0.9267272949183334,-1.07165527343,-0.857421875,0.00357732427742963,0.3635902404754166,0.16772460937,0.48840332031,0.009378344433372654,0.1612599690721875,-0.05419921875,0.26831054687,0.011043725175391832,1.0190503738510417,0.89723474186,1.10091311339,0.0023361908162892586,974.8654748296082,974.73936561221,974.9940409237,0.006809220076200154,-0.00197588356687958,Lift up
-0.9199091001954648,-0.96813964843,-0.87634277343,0.0004918179193033265,0.3752867232883721,0.33642578125,0.41259765625,0.0004895809003333701,0.1982833507409303,0.16760253906,0.234375,0.00035257045328589734,1.01347440646093,0.96725118732,1.06281493231,0.0005840411083337692,974.84871264573,974.82400389078,974.86593982234,0.00015429726737294528,0.0004079912975501647,Lift up
-0.9172533917135484,-0.95935058593,-0.88891601562,0.0002741174177446942,0.37945884786225803,0.35339355468,0.43212890625,0.00038403745302966326,0.23428836945161288,0.20617675781,0.27697753906,0.000489881045351019,1.0204013739925804,0.98171803495,1.06252876411,0.00015220591547301278,974.8644594044981,974.85478791874,974.87509375827,2.830956052373313e-05,-5.922315431385528e-05,Lift up
-0.9130520962231682,-1.01000976562,-0.8388671875,0.0023910677787263557,0.41410117573881183,0.28674316406,0.56176757812,0.002311100343103667,0.2019707708044554,-0.03881835937,0.369140625,0.010366684652444417,1.0284927673639606,0.92154346582,1.15501263496,0.003088974017688442,974.8572014973977,974.83380136092,974.88377270912,0.00013780879029516693,0.0001274576722699448,Null
-0.9175537109333334,-1.16333007812,-0.71569824218,0.010156883885473079,0.3813693576355555,0.2041015625,0.61340332031,0.009433749879865483,0.1852362738691111,-0.03076171875,0.35656738281,0.011588878230015002,1.019018449997889,0.76418357545,1.31534512141,0.01425271154950153,974.8510806197813,974.81209357212,974.88943465619,0.000540035985358958,-0.0001792821430439115,Null
-0.9203018188440002,-1.041015625,-0.83935546875,0.0027317242508300968,0.36226959228125,0.22985839843,0.49548339843,0.005593370483662258,0.21149139403949996,-0.009765625,0.32495117187,0.006959413781692231,1.0172693111370001,0.90334714282,1.14735445218,0.003220157764360926,974.847020651469,974.83090466806,974.86903642217,0.00010627706281708511,-5.137609801530988e-06,Null
-0.9331982421819,-1.01257324218,-0.8759765625,0.0011941833086606005,0.34476684569879995,0.27783203125,0.42260742187,0.0016684580495562366,0.19025756835500005,0.0400390625,0.3125,0.005939647734399792,1.0166071177372,0.92671376355,1.06834264459,0.0011568826203875453,974.8626797509111,974.84634451508,974.87959327882,6.265341924062067e-05,4.776186696667651e-05,Null
-0.9263802754470103,-0.9677734375,-0.88745117187,0.0005128473920513814,0.345817644566701,0.23608398437,0.37170410156,0.0004628880615002839,0.24616799894907218,0.23071289062,0.30395507812,0.00020986347044836282,1.0193831905548454,0.98165273419,1.05304035559,0.00040439785651431723,974.8603887079623,974.85209689968,974.87086511754,3.682645621247303e-05,3.244583054088019e-05,Null
-0.9082915207401148,-1.16687011718,-0.78247070312,0.009904496784020724,0.3898140041271263,0.12377929687,0.61694335937,0.025340641645726615,0.20478627873298846,-0.07385253906,0.31286621093,0.01664351458981171,1.0327715421802297,0.87247751432,1.17573865388,0.0036024452192021028,974.8643786700471,974.82915594698,974.95426938899,0.001231851247363405,-0.0005068616126053679,Null
-0.8788931241560214,-0.89953613281,-0.86267089843,6.887364076998631e-05,0.4303687310951612,0.41235351562,0.45068359375,0.00010373518603511282,0.2915800361182795,0.26477050781,0.29821777343,2.987194125035647e-05,1.021205784138925,1.01188474199,1.03270602752,2.864385225744628e-05,974.8562250927523,974.83651601586,974.86860749523,7.911692787936207e-05,0.00020760806477747152,Null
-0.8598959139045543,-1.05444335937,-0.59619140625,0.010463719633533108,0.49709931930188106,0.31567382812,0.76110839843,0.010788393958995392,0.14070718595069306,-0.1962890625,0.36315917968,0.02787903848475055,1.0223731776772276,0.78892875708,1.19275844946,0.00982226896145482,974.8752028596698,974.8209721276,974.9291567093,0.000828006452665907,-0.00028514424535528023,Lift up
-0.8984196695006742,-1.07141113281,-0.78881835937,0.004523225315226532,0.41595664720415726,0.30200195312,0.53063964843,0.004314087707942632,0.1797807672019101,0.01916503906,0.31640625,0.0072396925979836685,1.0121986013522473,0.9425559957,1.13825702471,0.0029506131448245394,974.8445790978037,974.81611683571,974.89739236668,0.0007400036247811027,0.00028334630547537017,Lift up
-0.9456207275355,-1.24621582031,-0.54418945312,0.01469046027432834,0.408493041989,0.24133300781,1.453125,0.02071645153295417,0.26581115722287496,0.03527832031,0.365234375,0.008926044149853731,1.079185350153375,0.93940710958,1.56295390688,0.010995920024238737,974.8849713068121,974.82222846254,975.05082429021,0.003885706531751509,0.001741828246082033,Lift up
-0.008277723523555556,-0.78527832031,0.77563476562,0.2719323976268105,0.7397732204814444,0.25061035156,1.51879882812,0.16838828491955543,-0.2686971028634444,-0.68859863281,0.23962402343,0.10134637966741367,1.0367441913193334,0.63326822754,1.62483013622,0.08124380150979016,974.8201846245786,974.74220304022,975.0270733088,0.004957578867649828,0.0009657749609967121,Lift up
-0.9422071807205101,-1.07604980468,-0.78527832031,0.0023339071427820367,0.4101388113806122,0.34326171875,0.54797363281,0.0024609574951758597,0.13421257174459184,-0.09948730468,0.38256835937,0.011324805452773961,1.042292779850204,0.95829735132,1.21070094105,0.0035988986056950376,974.8374084463757,974.7232141756,974.99126831901,0.0030521549312268643,0.0001185771103414135,Lift up
-0.9279230291147726,-0.93591308593,-0.92065429687,1.510837608858529e-05,0.4179007790275,0.39282226562,0.42919921875,6.331138841768258e-05,0.061749545007386365,0.04821777343,0.07043457031,4.050804959281981e-05,1.0196046026402272,1.01115140877,1.02886969951,1.9467238887337668e-05,974.8616837110123,974.85303394337,974.86786540036,1.2834996417914735e-05,0.00010940701061742525,Lift up
-0.9290635850651854,-0.93676757812,-0.91784667968,2.6571378111356102e-05,0.4089626736066666,0.3994140625,0.41833496093,2.5919079775329596e-05,0.061547550151234566,0.0439453125,0.072265625,4.9854226325515174e-05,1.016995685027037,1.00908364115,1.02564341017,1.8804387221851543e-05,974.8640028992986,974.85764149617,974.86786540036,8.582796368186819e-06,4.257480162443446e-05,Lift up
-0.928028987,-0.93640136718,-0.91662597656,2.0712212041197413e-05,0.40546710674221154,0.39428710937,0.43029785156,6.254599238332636e-05,0.06407048151778846,0.0556640625,0.07531738281,2.8511580237251376e-05,1.0148038176798078,1.00672598237,1.02679360457,3.060292255723316e-05,974.8660349156827,974.86038244892,974.87162827465,8.065483873248728e-06,-6.449407610683459e-05,Lift up
-0.9248046874971428,-0.9326171875,-0.91284179687,2.6043918394463436e-05,0.41081489311109887,0.38122558593,0.4326171875,0.0001634110607121853,0.06823059752450548,0.05261230468,0.07556152343,2.1193876076494266e-05,1.0143160181764836,0.99323454,1.02699632172,6.000960498526346e-05,974.856740712781,974.85075157114,974.86382368505,1.0521758934342252e-05,-5.637506041223689e-05,Lift up
-0.9059587961179517,-0.91760253906,-0.89611816406,3.211375829392641e-05,0.38461414015000006,0.37634277343,0.39660644531,3.7427933608908524e-05,0.0627617893413253,0.05078125,0.07690429687,5.781582671561151e-05,0.9862717074015661,0.97784098288,0.99466757308,2.2634240942523908e-05,974.8786716217903,974.85771226782,974.92387019271,0.00037059581219991544,0.0007439573734991795,Lift up
-0.917784926467294,-0.95324707031,-0.89086914062,0.00024290546900535516,0.39249913832329403,0.38439941406,0.40600585937,3.236805607946272e-05,0.06356847426141177,0.04357910156,0.07739257812,7.495138827395552e-05,1.0002853562172942,0.97304445202,1.03282858219,0.00020339944771795632,975.0139408249914,974.92387019271,975.11804799255,0.0036718362444894026,0.002442116606308139,Lift up
-0.9525817871064,-0.98107910156,-0.92248535156,0.0003906935077368676,0.4097680664030999,0.39294433593,0.43200683593,0.00013253977202193332,0.0662719726528,0.04357910156,0.0810546875,5.404259822587263e-05,1.0391412939743998,1.01069362357,1.07292414943,0.00047553333599909605,975.2344187496151,975.11804799255,975.35074464838,0.005095481481565719,0.002447612389792268,Lift up
-0.9562823692024719,-0.97644042968,-0.92150878906,0.00027024515343535243,0.4014028484864044,0.34680175781,0.44165039062,0.0005807159306590567,0.06626772076483146,0.04772949218,0.09167480468,0.00015299604392623683,1.0394526263817976,1.00384797398,1.07205220306,0.0005284794262146626,975.3968814724906,975.35074464838,975.41928980451,0.00034936232809114104,0.0006733171707229343,Lift up
-0.9360485542078048,-0.95007324218,-0.9267578125,3.91863768780927e-05,0.40108880763731697,0.38818359375,0.41723632812,6.294554927175406e-05,0.06381746617317074,0.05480957031,0.07263183593,2.981363173489606e-05,1.0204014561087804,1.00949856825,1.0370968676,4.3532152991856064e-05,975.4255895780352,975.41928980451,975.43464860788,1.6494946530241066e-05,0.00013687291843433264,Lift up
-0.9359445099754454,-0.94311523437,-0.92724609375,2.162654801155849e-05,0.38988170056940585,0.37561035156,0.40881347656,5.025419561897608e-05,0.0528794090309901,0.04089355468,0.0634765625,3.09922435620371e-05,1.0153205098707923,1.00282301888,1.02426833724,2.2436916216026018e-05,975.4367185965424,975.40354789905,975.52037264661,0.0008848979283288728,-0.00031862865864332684,Lift up
-0.9372125440994624,-0.95739746093,-0.927734375,4.313583125807239e-05,0.38835160449881717,0.35412597656,0.39697265625,8.413257610393608e-05,0.05979082660913979,0.05358886718,0.06579589843,1.131492402056059e-05,1.0163062185898926,1.0089394604,1.02474429877,1.8223676616270507e-05,975.436942423406,975.42437338801,975.45160851566,5.799517490897854e-05,0.00027442024981395744,Lift up
-0.9224868047765475,-1.02856445312,-0.82946777343,0.002693206967425151,0.38520885648761916,0.20349121093,0.57153320312,0.007622882465249874,0.09566679454654761,-0.13232421875,0.28784179687,0.01056205859360611,1.0134758423730952,0.93069831008,1.11977902856,0.0020405110530686108,975.4290510805553,975.39316855956,975.45713210707,0.00037579098112397523,-0.0002536449344583977,Null
-0.9007198936023683,-1.06396484375,-0.73474121093,0.006505832680144895,0.42542788856434216,0.29565429687,0.60717773437,0.006431279412492999,0.23440551757513156,-0.09118652343,0.3798828125,0.014735831866364313,1.0326012217147365,0.82943397211,1.22334651535,0.008385034358557869,975.4245298457222,975.38891396471,975.45495089227,0.0003085340577460049,0.00015474046925699968,Null
-0.845494196961923,-1.04248046875,-0.73950195312,0.004806831239878338,0.4563152606632693,0.33190917968,0.6455078125,0.006657889183748961,0.23628586988846154,-0.00036621093,0.40087890625,0.015640328743120952,0.9994329032327887,0.81761952644,1.227579321,0.006960287996035591,975.433785808343,975.40048093229,975.4552075975,0.00023384222859855277,0.00014069190296680354,Null
-0.8578411599822825,-0.92797851562,-0.7529296875,0.002421570447833411,0.5082331118344564,0.33740234375,0.61096191406,0.005777048659797743,0.1795667565356522,-0.04663085937,0.32983398437,0.01771389766473656,1.0249589479618475,0.95145092577,1.08581154593,0.001543361420599729,975.4385922875929,975.41813141373,975.4687113188,0.00020675941666549222,-0.00016847168739143854,Null
-0.877267020085476,-1.14758300781,-0.63354492187,0.01878386171681164,0.45873151506238097,0.30236816406,0.65063476562,0.012876723109201096,0.21898687453178572,-0.07946777343,0.41979980468,0.01947629105242424,1.0263203627034523,0.70809778102,1.28039921448,0.025485291635289797,975.4270049551448,975.395523522,975.45970098251,0.00033514599773231367,-7.47564037577604e-05,Null
-0.8903410259007367,-1.07946777343,-0.60571289062,0.014080502074283994,0.4514018811642103,0.27197265625,0.70727539062,0.011443619355040959,0.2230314555891579,-0.12915039062,0.41345214843,0.021421196055114784,1.0356189897527368,0.6977925807,1.29524770581,0.02037274516448429,975.4293464287596,975.38117802185,975.45970098251,0.0004921440346259681,-3.207410550666296e-05,Null
-0.8847529093387502,-1.15344238281,-0.63391113281,0.018957201580995803,0.43305333455020834,0.181640625,0.74487304687,0.01545215429265678,0.19931538899385418,-0.06372070312,0.36865234375,0.015202874546053029,1.0158755265804167,0.66686587163,1.32552550551,0.027427580249130865,975.4252790764043,975.38853164498,975.45044131325,0.0003714517869363491,0.0002685355068538035,Null
-0.9087573522774712,-1.54675292968,-0.080078125,0.12047622605972805,0.5591241244574711,-0.32458496093,1.76635742187,0.17492187502157622,0.23243309985402294,-0.34155273437,0.74035644531,0.05243883598277763,1.186282502621379,0.53886882785,2.3969871721,0.13055816162964914,975.4297443183661,975.21970664231,975.8699727694,0.024342086952856803,-0.0015104317302578369,Null
0.05538236177846155,-1.05322265625,0.5283203125,0.11892458150299245,0.358608148034359,-0.78039550781,0.88720703125,0.233769366451254,-0.28691061949076924,-0.92822265625,0.70495605468,0.21952585086429652,0.849771862001923,0.2738945275,1.39729783701,0.05876953486739361,975.3672648471492,974.9979641033,975.97763529636,0.0770009625391853,-0.0053781839275377765,Null
-0.7799157714800999,-1.28552246093,-0.43310546875,0.046697056731435864,0.5078283691364,0.19909667968,0.88098144531,0.029345092946499108,0.11263061523360002,-0.22253417968,0.37976074218,0.030371254758243833,0.9662210982741999,0.61405563059,1.40419786446,0.05112119013730294,975.4307303433958,975.35729393587,975.50856157946,0.002151283639105882,0.0006439820505377509,Stairs down 
-0.8832955867649999,-1.32421875,-0.50476074218,0.030049498977145286,0.47854809050499997,0.22509765625,0.67846679687,0.012219769395610102,0.09556417262180851,-0.19946289062,0.43627929687,0.0349049573295717,1.028867609415213,0.6343955854,1.50094450083,0.03652511021534959,975.53835117132,975.48992470257,975.56482858977,0.0004366026168244727,0.0005921693830909756,Stairs down 
-0.8547392345566666,-1.19445800781,-0.55847167968,0.031792511414404305,0.48662894112380944,0.30639648437,0.73327636718,0.009190000484606605,0.07640729631523809,-0.13659667968,0.22534179687,0.013101240160667106,0.9982955988894049,0.70318130691,1.32128420742,0.03043305372605131,975.5762342414286,975.54982264991,975.6149449111,0.00034133431462761985,0.0006484841287424304,Stairs down 
-0.9341868524921739,-1.39440917968,-0.63171386718,0.0530366395141225,0.5246409540551086,0.29772949218,0.95581054687,0.026879291148712434,0.04671843155706521,-0.16003417968,0.36218261718,0.018736676306209996,1.0837469418338044,0.73343685775,1.72723940702,0.07401317096845562,975.6349742938397,975.59611505842,975.66546471209,0.0004535568535692759,0.0007076138406439478,Stairs down 
-0.8633410395374489,-1.30090332031,-0.49731445312,0.048350662375713276,0.4908397440969388,0.2578125,0.90783691406,0.019871461304817546,0.04748908840806122,-0.08862304687,0.25927734375,0.008433535066011343,1.0040561058615307,0.63928930086,1.51928231816,0.056861633631329886,975.6991100169608,975.65767388814,975.7395804903,0.0005816477428527567,0.0007472811370889064,Stairs down 
-0.8558868758943678,-1.32629394531,-0.58752441406,0.041117738718722735,0.5234529341733333,0.2578125,0.86291503906,0.02841433460069051,0.11071216100816095,-0.07189941406,0.31201171875,0.013850366967632349,1.019130574910345,0.6694068152,1.55742773261,0.06332729386420924,975.7689238199662,975.72003877324,975.81001672685,0.00041862489152748403,0.0007461506729040442,Stairs down 
-0.8842819793283545,-1.35498046875,-0.56091308593,0.05147084763529296,0.5138480270918985,0.26599121093,0.86633300781,0.028174729204967965,0.033059421972911396,-0.15686035156,0.18615722656,0.007074440426574429,1.0308685342478483,0.71705945893,1.50925452697,0.07091738837981983,975.8335936856803,975.79010839469,975.87953684293,0.0006154470923964637,0.0008940024719744297,Stairs down 
-0.8588801558260214,-1.43542480468,-0.58447265625,0.03786046717625661,0.48580046622537637,0.15307617187,0.84460449218,0.016117353530365766,0.17407489079096775,-0.03942871093,0.49304199218,0.022698577323944903,1.013335549535914,0.77180776457,1.67330502912,0.04382671479473772,975.8885017417867,975.85650420854,975.91592773827,0.0003237162128921109,0.00032174823868562184,Stairs down 
-0.8797861734978124,-1.27185058593,-0.61193847656,0.03904357455791077,0.49896113077447923,0.30810546875,0.77185058593,0.016387581823446268,0.08491897582770831,-0.10546875,0.32214355468,0.01199626070165758,1.0220557415158333,0.71537954543,1.48207292734,0.05287504466311184,975.9399521024216,975.89605802122,975.99010075003,0.0005322517768227164,0.0007473705263868452,Stairs down 
-0.9174453910702298,-1.45959472656,-0.59814453125,0.04678155513323321,0.4354809289649424,0.15405273437,0.61499023437,0.02104962904950439,0.16449044764390805,-0.09655761718,0.32214355468,0.012142769428452384,1.048109779294597,0.67809144433,1.54167091255,0.03938003990468946,975.9987303943728,975.97176333711,976.03298577178,0.00036071301393401884,0.00038417148848173037,Stairs down 
-0.9394428299087952,-1.14221191406,-0.78796386718,0.009581575017601127,0.34994764212686746,0.18078613281,0.58068847656,0.01109514124702352,0.14747858621746987,-0.087890625,0.35192871093,0.017706442581078546,1.02723132896747,0.83128218445,1.28217639229,0.013283760192186245,976.0073864444156,975.98278674453,976.03977972484,0.0003325572211704649,8.408813195063148e-05,Stairs down 
-0.9346121993687254,-1.09204101562,-0.880859375,0.0015752314030896717,0.33791695388686255,0.1669921875,0.49938964843,0.007211534288566222,0.1715470856289216,-0.01477050781,0.36437988281,0.013521799645803061,1.018528808880294,0.92143999763,1.13622295408,0.001823025715082231,976.0201658191404,976.00594361291,976.04023055421,0.00012947195737931835,5.093791606286383e-06,Null
-0.9479551210469229,-1.02783203125,-0.85925292968,0.0010849672468683429,0.3325933100072528,0.27416992187,0.49487304687,0.0030282804963001324,0.13443965701912092,0.01135253906,0.30920410156,0.010420837023228165,1.020175351107802,0.95810471879,1.09379737615,0.0009381749153145627,976.019273799108,975.9995568379,976.0571891019,0.0003300331297880762,0.0004983934201019093,Null
-0.8949629620762194,-0.92395019531,-0.85388183593,0.00023546785306314736,0.4330756954991463,0.39392089843,0.53051757812,0.001022169457864455,0.2393114043409756,0.18225097656,0.28295898437,0.0011945047119443196,1.0237634140102436,1.00598191931,1.04690435709,0.00011532617238264395,976.0163857628309,975.98738058877,976.04555698634,0.0002503795859268904,-0.0002522145521521969,Null
-0.8710953561840787,-0.90112304687,-0.80639648437,0.0006282021575914676,0.4663150185005262,0.42077636718,0.58483886718,0.002103286939727725,0.27785612407118415,0.24816894531,0.32739257812,0.0005262506086392492,1.027795697654474,0.99987386861,1.10812266275,0.0003158765944953842,976.022055191294,975.99595326753,976.0399509563,0.00013060874818724948,4.067486281463731e-05,Null
-0.9107360839801923,-1.16137695312,-0.77453613281,0.009821732573662223,0.3657426100465385,0.14501953125,0.59155273437,0.011689911800132782,0.17601952185576925,-0.05981445312,0.38012695312,0.015338214965579952,1.0093713255473078,0.83801924778,1.28754414811,0.012398097598114938,976.0148938730447,975.99117506074,976.05970957761,0.000211618123689452,9.31175613726239e-05,Null
-0.9399427330973912,-1.16137695312,-0.78369140625,0.010708658084159042,0.33486673105956516,0.06701660156,0.59497070312,0.017020182656579726,0.21073316490945654,-0.14916992187,0.44958496093,0.024851803303584524,1.0412335213996742,0.857563068,1.23352077961,0.007964980965684373,976.0182498451497,975.97743007089,976.06584238457,0.0007191315366958092,-0.0003679338213739557,Null
-0.8993661063021428,-0.96862792968,-0.80700683593,0.0018362377845341509,0.4161086309480952,0.31188964843,0.52954101562,0.004888739075724547,0.19830322265130948,0.05297851562,0.36145019531,0.011181760444503376,1.0191979416269046,0.98313475239,1.04162489648,0.0002621930192031487,976.0149331056857,976.00341814545,976.02555090726,5.303995542591971e-05,0.00016700924466285885,Null
-0.8938598632774999,-1.03881835937,-0.77941894531,0.004911956387600812,0.4384208347447826,0.23107910156,0.568359375,0.006337566497889381,0.19063667628695657,-0.0380859375,0.36145019531,0.012939258505475103,1.0229093113904346,0.90092903969,1.20267769313,0.00517932338185147,976.0075244876724,975.98942419097,976.02285080672,8.61771690085128e-05,0.00020587354937186787,Null
-0.7259359554336735,-1.22338867187,-0.26928710937,0.08772746639117714,0.5694592534239796,0.21533203125,0.962890625,0.0580585726433618,-0.006143375319387755,-0.36291503906,0.2724609375,0.04273696620830575,1.0142623916985714,0.84621589215,1.30364151673,0.009270290456224963,976.0142849980019,975.86804888988,976.49267023562,0.025236719282296344,-0.001664780528596334,Lift up
-0.29842862215556815,-0.74975585937,-0.24621582031,0.008720124496432242,0.8855729536540909,0.39770507812,0.97607421875,0.01953874560327021,-0.324254816225,-0.42517089843,0.19885253906,0.02015228420761969,1.0085952122879547,0.64492472573,1.07464959954,0.009140883592685655,975.9797377816848,975.96634477,975.99324790467,5.359129090094835e-05,2.0364232827675817e-05,Lift up
-0.9750281225240508,-1.81652832031,-0.67065429687,0.04832416760768896,0.38390804242151905,0.14196777343,0.68603515625,0.015827884267214244,0.227022967758481,-0.48059082031,0.50903320312,0.034506343476384704,1.091238557165823,0.74718671901,2.00034669761,0.05693329349605694,976.0264880625906,975.91258694389,976.27898524146,0.008342570349998631,-0.0004291560820648054,Lift up
-0.9126497395798665,-0.97924804687,-0.84899902343,0.0009756088954735675,0.3706608072878666,0.23156738281,0.48413085937,0.005369710073703089,0.20005208332959998,-0.01403808593,0.30871582031,0.00933156842008464,1.0122263899191999,0.94461798573,1.08162818727,0.0012217044280060424,976.0591841760514,976.0184554785,976.15780621968,0.0006914581390490248,-0.00021239584162735964,Lift up
-0.9178560697074999,-0.94165039062,-0.89147949218,0.00011001532872324801,0.3700373722921154,0.34753417968,0.39379882812,0.00010719599343061063,0.22744750976105768,0.20874023437,0.24096679687,7.44713018266889e-05,1.0155174801546154,0.99188069984,1.03807179826,0.00013420722766805093,976.0614705804638,976.05222100198,976.06795548253,1.609414003710755e-05,3.700348910886696e-05,Lift up
-0.9161085045827173,-0.93225097656,-0.892578125,7.668313402388879e-05,0.38523400347750003,0.37365722656,0.40185546875,3.468508155521285e-05,0.21831611964673908,0.20520019531,0.23559570312,4.537562882339707e-05,1.0175396099556522,0.99069776358,1.03613082065,9.113052868341053e-05,976.0628827669998,976.05860485642,976.06683393001,4.53925671318942e-06,2.0044728200659064e-05,Lift up
-0.9114946637794047,-0.93225097656,-0.88330078125,0.00014410659722328425,0.3849429175936905,0.37109375,0.42102050781,0.00011432400840118059,0.22168404715059528,0.19677734375,0.24389648437,0.0001456275928411659,1.0140771459333333,0.98620515566,1.04632259854,0.00019651824542737934,976.0525310012794,976.04229578776,976.06274664744,3.622463262675437e-05,-0.00020530623574039722,Lift up
-0.913072221731236,-0.93420410156,-0.8896484375,0.00010453518078772,0.3819209752421348,0.37109375,0.39721679687,5.926070038974283e-05,0.22361223884820228,0.21069335937,0.23303222656,4.0944406923704916e-05,1.0147126835349436,0.99046095112,1.03737808597,0.00012900600305479533,976.0247741523011,976.01361094939,976.04237933095,6.223273076421173e-05,-0.00023222898504024513,Lift up
-0.9184557982132323,-0.93176269531,-0.90197753906,4.82832579407142e-05,0.3859727647532323,0.37744140625,0.39660644531,3.24927084635735e-05,0.21153058908919195,0.19567871093,0.22351074218,5.484722407310076e-05,1.0185083752275759,1.0008178064,1.03305638935,5.673445048955434e-05,976.0183945451671,976.0132307552,976.02546462663,1.234068194314466e-05,6.814968692404815e-05,Lift up
-0.9385314255584271,-0.97705078125,-0.90087890625,0.0004985864227394073,0.3941156623032584,0.37878417968,0.41271972656,7.305928222295152e-05,0.22002968091134834,0.20349121093,0.24084472656,0.00011661720287290143,1.041463910911573,1.00023187243,1.08465913271,0.0006218919528249546,976.018086399608,975.99996984954,976.02710803584,2.3349548021444582e-05,-0.0001185037657828045,Lift up
-0.9420761108364999,-0.96520996093,-0.912109375,0.00035131505533982197,0.392384338375,0.37231445312,0.41076660156,8.178537923196357e-05,0.22240295409674998,0.20532226562,0.23510742187,8.806992745982747e-05,1.044507128660125,1.01050982176,1.07339636794,0.0004612207739209903,975.9328353202184,975.82099858656,976.00150866737,0.002741090710191249,-0.002222087301806138,Lift up
-0.9173844401008,-0.93090820312,-0.90100097656,8.438539396602496e-05,0.38782063801626665,0.37866210937,0.40319824218,5.083187743217939e-05,0.21618977864226666,0.20471191406,0.22875976562,3.2280737216232053e-05,1.0192120092447998,1.00246776875,1.03901984908,0.00011069950557498622,975.7211715660262,975.6044561207,975.82099858656,0.0038993905498983013,-0.0028548928854343065,Lift up
-0.9157601582604125,-0.939453125,-0.89453125,0.00011624491539624931,0.3891966514930928,0.36828613281,0.40808105468,8.648080284346525e-05,0.20865843467618553,0.19775390625,0.21850585937,2.644047191446678e-05,1.0167130304496907,0.9964594824,1.04224649345,0.00015202801941499743,975.4978832433154,975.3856557171,975.6044561207,0.0038989550516992278,-0.0022049716326021343,Lift up
-0.9173211348639998,-0.93041992187,-0.90856933593,3.617433590808986e-05,0.38879137540747355,0.37780761718,0.40026855468,3.984094267354441e-05,0.20970137746357884,0.1943359375,0.23388671875,0.00011884539752960288,1.0182190804145261,1.00832419749,1.02884017541,3.454317578894798e-05,975.2916547351131,975.17867720923,975.3856557171,0.0037948630356000003,-0.0022230267382471313,Lift up
-0.9161204618524705,-0.94750976562,-0.8974609375,0.00013051116498742946,0.3856545840963529,0.3740234375,0.39904785156,8.04001418474941e-05,0.21169146369176467,0.19873046875,0.22998046875,5.264657468515647e-05,1.0163112357677648,0.992520802,1.0509483318,0.00019364205543245694,975.0746950973082,974.95800748542,975.17867720923,0.004041307755233535,-0.0025600832520635253,Lift up
-0.9162808641934568,-0.93444824218,-0.9013671875,7.459550728532203e-05,0.3834334008462963,0.37377929687,0.39599609375,2.527728585049165e-05,0.2142409336385185,0.2041015625,0.22717285156,5.487067463382674e-05,1.0161462503548149,1.00003481595,1.0344635355,9.173610641174446e-05,974.8541889235125,974.75459344866,974.95800748542,0.003974048552204709,-0.0026676746197869658,Lift up
-0.9076642893740403,-0.92565917968,-0.87194824218,0.00024749734269899256,0.38670888572999995,0.37377929687,0.40112304687,5.873571755715683e-05,0.20874146740464647,0.19372558593,0.22705078125,6.221493135121456e-05,1.0084961634541414,0.96911388146,1.02949129762,0.00027420910448185923,974.6429734780356,974.53082773014,974.75459344866,0.004162078841923758,-0.00223499266948184,Lift up
-0.8796304424116855,-0.9111328125,-0.86083984375,0.0002712718457685032,0.37682282522382016,0.36279296875,0.39184570312,6.498728209723936e-05,0.19860154055179774,0.18933105468,0.21472167968,4.0480819464449936e-05,0.9773594630026966,0.95565801696,1.01264128729,0.00033245113829079634,974.4679185722499,974.43541496364,974.53082773014,0.0008092044735168151,-0.0010676073647246423,Lift up
-0.9208587646456252,-0.94470214843,-0.9072265625,9.095999821549909e-05,0.37890930175475,0.36572265625,0.39343261718,4.55609510844968e-05,0.21411437987825002,0.201171875,0.23046875,3.4909450172370424e-05,1.0185577787543751,1.00052080897,1.04329152059,0.00010878977998434887,974.4300916431002,974.42368828157,974.43931886495,1.4625773022516456e-05,-0.00012923277559846012,Lift up
-0.9195379959868419,-0.93920898437,-0.89562988281,0.00011991369881601569,0.3752714458231579,0.36596679687,0.39331054687,4.925195324636278e-05,0.21139044510342106,0.20092773437,0.22778320312,3.0426111138335866e-05,1.015457935478026,0.99117009121,1.03212357136,0.00010827590885763847,974.4173447841663,974.41001120735,974.42425859651,1.1315772027603278e-05,-3.6958921331000954e-05,Lift up
-0.919817243300879,-0.92456054687,-0.91174316406,9.901845266653878e-06,0.37822748540109896,0.37170410156,0.38720703125,1.3386941220839949e-05,0.21485448145230776,0.20568847656,0.22485351562,3.195128452433463e-05,1.017510633595055,1.01186090744,1.0248303872,9.083362654165415e-06,974.4201958932834,974.41405354109,974.42525735185,1.1288374134452795e-05,3.655927658972669e-05,Null
-0.9084771603911226,-0.96948242187,-0.85083007812,0.0012115513729493899,0.34522979113132657,0.16711425781,0.44897460937,0.00823148171471116,0.24298469387418367,-0.0185546875,0.333984375,0.008004982816885674,1.009522018365306,0.9114853973,1.08205946737,0.0017086254118434474,974.413652109724,974.39263163003,974.4391375115,0.00020128925102883818,-0.00027348895941375147,Null
-0.9356591235594253,-1.22119140625,-0.72973632812,0.018310237491921233,0.34502402118954023,0.037109375,0.51525878906,0.011730262602681396,0.23250044899045985,-0.12072753906,0.42065429687,0.018594053240600036,1.0375417461073562,0.79904599005,1.32583803854,0.020372860858961898,974.4071987785101,974.37236724812,974.44950420087,0.0005163091344276098,-0.0003731270197526226,Null
-0.926004028317125,-1.04907226562,-0.76318359375,0.0038605859668355827,0.37252044677325,0.20434570312,0.61120605468,0.010124718310545927,0.23034820556174998,0.04895019531,0.41882324218,0.00938817990486412,1.033135337814125,0.84539382247,1.18341867014,0.005091573590339534,974.4184549850357,974.37956522286,974.44472638686,0.0003702954943124484,-0.00010349106380536633,Null
-0.9306948763616505,-1.07727050781,-0.83264160156,0.0036689313949465428,0.3421227908788348,0.04956054687,0.50549316406,0.00997527305654581,0.2622248084766019,0.06335449218,0.46801757812,0.009695258329842913,1.0348860461569902,0.91954175218,1.22635743073,0.0041670009518505,974.4298600307976,974.36423273605,974.48829295217,0.0006338703538521876,0.00014561357643258133,Null
-0.9412125297166305,-1.12475585937,-0.72045898437,0.011989711782504044,0.28469450577043476,0.04956054687,0.57824707031,0.015518492993115817,0.20471589461249995,-0.01806640625,0.41613769531,0.013394669664804482,1.0177407483976089,0.80061251095,1.20550891712,0.01365101282389062,974.4373706741134,974.31906654939,974.6347339506,0.004944076430491602,0.0015395315612366349,Lift down 
-0.7329763389460241,-1.38159179687,-0.29577636718,0.0957170278925281,0.6320359563212048,0.31457519531,1.07751464843,0.04460281772474001,0.17362369399240962,-0.19250488281,0.50048828125,0.03181359466479319,1.0553124203042166,0.85097298646,1.42352102183,0.023527655344627155,974.4257195993226,974.31906654939,974.78339259935,0.011588294368150346,0.0023747967671760837,Lift down 
-0.913983154293,-1.18395996093,-0.56457519531,0.017527174383519376,0.37232360839537504,0.25927734375,0.66174316406,0.009677506238281841,0.23240203857199998,-0.19250488281,0.392578125,0.022537686946669914,1.0266109895816249,0.63543302223,1.36410795793,0.023484807369752402,974.4281855096302,974.34443505197,974.58869749624,0.002206057588571255,0.0003166031550724014,Lift down 
-0.928693160266505,-0.98278808593,-0.86450195312,0.0011298441442129069,0.344453978303301,0.27331542968,0.41882324218,0.0011665923934256273,0.22769431697174758,0.06091308593,0.35290527343,0.004818623029144401,1.0187733048755339,0.96889893094,1.07954116773,0.0009885405136371302,974.4402989828893,974.4202216192,974.46388294297,0.00019279842313725795,0.0001245018341288472,Lift down 
-0.9257262512841757,-0.97546386718,-0.87438964843,0.0008592063399541917,0.3441256009576923,0.28173828125,0.38134765625,0.0005888774099422989,0.2355849716657143,0.20959472656,0.28491210937,0.00025634555299366556,1.0157467699795604,0.97313473127,1.05886654312,0.000845287888599246,974.4410382461402,974.42812763068,974.4598134633,0.00011256467438035396,0.00010050787177409473,Lift down 
-0.9207293039313255,-0.96704101562,-0.88647460937,0.00040519485799369437,0.3637915921457831,0.349609375,0.38842773437,9.383339148123651e-05,0.23349844690831326,0.21606445312,0.24768066406,7.220126674726482e-05,1.0172311243754215,0.9825134083,1.05886654312,0.0004185276787971256,974.4441296705161,974.43660172035,974.45394768735,2.6308812466772756e-05,3.850618906113599e-05,Lift down 
-0.9255572446817526,-0.95935058593,-0.88818359375,0.00047543231410358735,0.35199037531845356,0.30786132812,0.38220214843,0.0002226724363018769,0.21930372100237114,0.17199707031,0.24865722656,0.000557956925855543,1.014901129486598,0.98002149251,1.05855037276,0.0004956213516441379,974.4344440900637,974.394102549,974.57299216167,0.0015784418711465296,-0.0005889946614819847,Lift down 
-0.9289203844543157,-0.96252441406,-0.89343261718,0.00031678906881236655,0.34365748354915787,0.32470703125,0.37768554687,0.00011070253866716006,0.23317485608115787,0.21838378906,0.24890136718,7.02471341876693e-05,1.017609907134737,0.98960954564,1.05107674822,0.00033011130560979513,974.4397456851138,974.42159841674,974.44853567054,3.354711978429705e-05,-5.804914023858385e-05,Lift down 
-0.926144622088372,-0.95678710937,-0.90417480468,0.00010288988026916855,0.35184070675523266,0.33447265625,0.36572265625,6.92801093879583e-05,0.22156755314000004,0.20849609375,0.23693847656,5.138138291683018e-05,1.015258596685465,0.99128235808,1.04717003522,0.00010002139097849696,974.4356633181822,974.42330279663,974.44907292159,4.905657980137131e-05,0.00010119463363343854,Lift down 
-0.901798396911948,-0.93798828125,-0.873046875,0.0005604893692238484,0.34019252231844155,0.3193359375,0.35986328125,0.00016762854012150816,0.22099165482532473,0.19995117187,0.23950195312,0.00013736043677651507,0.9888822169784415,0.95369829071,1.03266296256,0.0007850066205773099,974.4374626244594,974.4279442079,974.46078701267,8.976430942375512e-05,0.0002935926290386843,Lift down 
-0.9142157660544447,-0.94250488281,-0.86804199218,0.0006623132714486634,0.34388699001333334,0.32177734375,0.36145019531,0.0001379177234769982,0.21546495225322224,0.205078125,0.224609375,2.5079372370994996e-05,1.0002831129342222,0.95232887319,1.03195112409,0.0007318402430611091,974.5137764774522,974.45183072267,974.58466068551,0.0020618865800955057,0.0017202742822312901,Lift down 
-0.9282774633245918,-0.94262695312,-0.91247558593,5.040590372038286e-05,0.35212676378816327,0.33520507812,0.36547851562,3.977734873398649e-05,0.21693140146306122,0.20361328125,0.23608398437,5.845080016860445e-05,1.0162873454768369,1.00322553362,1.03819832682,5.929347177169761e-05,974.707981630559,974.58401506239,974.81434209004,0.004896790075374841,0.0024520597015681438,Lift down 
-0.7285322709489772,-1.21215820312,0.31457519531,0.2046000714869761,0.5730951482564772,-0.00854492187,1.51647949218,0.15816378256232136,-0.016372680665,-0.48071289062,0.25512695312,0.05916715826362817,1.051876559770227,0.31712384736,1.83622379911,0.17211326067848606,974.923504660257,974.81364852534,975.05739725233,0.009388722592228905,0.000980749934283718,Lift down 
-0.9110641479446249,-1.04284667968,-0.69372558593,0.0059610325489667885,0.39081268310149997,0.28283691406,0.81457519531,0.022662407591581935,0.22234954833725,-0.47009277343,0.37670898437,0.014269718260880356,1.03577840590275,0.95394293287,1.24132528311,0.0024587462410159936,975.1141042536389,974.86293428606,975.37744502357,0.012115950867724162,0.004508331112131878,Lift down 
-0.9290364583290195,-0.96704101562,-0.88452148437,0.00018459332264485873,0.3423138786728431,0.28833007812,0.36254882812,0.00016886266636040572,0.22344132965441177,0.20678710937,0.234375,4.215951892792502e-05,1.01509654697598,0.95394293287,1.04748546536,0.00018612220655156683,975.3527324848823,975.22522334641,975.46653489264,0.005526104278273805,0.002391509458227763,Lift down 
-0.9340833438298924,-0.96984863281,-0.90246582031,0.00028658706679941153,0.33585743237172044,0.32287597656,0.35070800781,4.031589970966689e-05,0.22172562793741926,0.212890625,0.24047851562,4.65670726729149e-05,1.0171282824539785,0.98869196081,1.05155897607,0.0002968655517175095,975.5828256894148,975.46653489264,975.68022068499,0.003941426502395567,0.002310971789842225,Lift down 
-0.940031120572289,-1.375,-0.44787597656,0.031131380972642266,0.39368705289530115,0.3232421875,0.70227050781,0.014841812123913136,0.25085890436397595,0.17492675781,0.6416015625,0.00982641135987014,1.0695211240930123,0.88798322719,1.44982573555,0.012986542715106339,975.8327926207933,975.68022068499,976.05446837331,0.013483382401349492,0.004498838047599188,Lift down 
-0.45663808847155846,-1.0576171875,0.38037109375,0.15073046151801028,0.5406874619492208,0.18469238281,1.01037597656,0.038557780518242886,0.5213638900131168,0.08618164062,0.96020507812,0.048899392349701296,0.9867617867532471,0.55828418023,1.26435734996,0.03582021090656298,975.9048349716853,975.65774475139,976.20932318662,0.032866673671965656,-0.0028742466302727372,Lift down 
0.009489982358494624,-0.8330078125,0.48974609375,0.17452199980485544,0.9312035345220429,0.45275878906,1.42834472656,0.07436161272042638,0.049791561659677436,-0.51965332031,1.17822265625,0.21828618854705475,1.1264259476450538,0.76104691049,1.5165493054,0.06370534009326666,975.9693285349099,975.89939800256,976.20055627924,0.004732390973688738,6.551677831941513e-05,Lift down 
-0.7819493611620834,-1.50903320312,-0.20471191406,0.14023216475943007,0.6611963907849998,-0.45751953125,1.5224609375,0.14184519742020638,0.288898468015,-0.30541992187,1.50939941406,0.17653785405216965,1.1964331224996874,0.70259742017,2.62170843259,0.1560995906129508,976.1818818033893,975.03265711197,978.59074240971,0.6566832966157018,0.006098846616533859,Lift down 
-0.4607890735954546,-1.50903320312,0.38061523437,0.29197048025525674,0.45965714887920456,-0.53820800781,1.5224609375,0.18159649358008725,0.23803710937238637,-0.65710449218,1.50939941406,0.27846084380596237,1.033999530585909,0.47364879463,2.62170843259,0.15637695893245557,975.8049389922987,975.24429853212,976.0567648823,0.04471554130191656,0.005948175781556471,Lift down 
-0.8583892822221252,-0.97387695312,-0.63989257812,0.006702413579733811,0.362184143063375,0.2734375,0.55676269531,0.0048821521308748195,0.31567993163625,0.08911132812,0.54125976562,0.01191965722581671,0.9927616556815,0.75854323245,1.08054752738,0.005365111615562456,976.0059240441166,975.93992346694,976.10197749146,0.0023088974296683468,-0.0002557417760450424,Null
-0.8962665632631374,-1.00939941406,-0.83386230468,0.0026423000544627782,0.35170012828960767,0.21569824218,0.48889160156,0.004496959079526358,0.3043093213801962,0.11157226562,0.45446777343,0.010585094297812164,1.0164436617883332,0.90428363469,1.15522031428,0.0040232066120065,976.026715771528,975.95531802182,976.0994698724,0.0017059101517738872,-0.0005603976004125782,Null
-0.9154610011851085,-1.09533691406,-0.74475097656,0.006998563013593367,0.34223340904891303,0.16967773437,0.47778320312,0.006681686650831585,0.3048666249103261,0.12585449218,0.43395996093,0.008275147142813445,1.0299275932930432,0.83215293531,1.27136186516,0.009202136937731312,976.0276636424463,975.97910177754,976.0615276842,0.0005655460430052192,-0.00015625331625609273,Null
-0.8929821196017856,-0.94555664062,-0.81567382812,0.0011099842572430188,0.3665437244186905,0.29516601562,0.44201660156,0.0014540626167224967,0.2699832007961905,0.08129882812,0.40612792968,0.009946944045526625,1.0076716331594047,0.88952950814,1.0556491212,0.001641771731252422,976.0273010925874,975.96918774239,976.0990417401,0.0013150996936516497,0.0002443930606348082,Null
-0.9056749845765788,-0.94091796875,-0.88146972656,0.00018833590182192148,0.3661177785738158,0.326171875,0.40454101562,0.0003279236429480047,0.28641228926407897,0.25622558593,0.30651855468,0.00024311614662275976,1.0182352332280264,0.98723859405,1.05638621541,0.0002713692869123332,976.0348206385181,976.0154122014,976.0738306605,0.00019754350432591355,-0.00036418457712607646,Null
-0.8927942034805744,-0.96960449218,-0.82897949218,0.001374114980916037,0.37916442169126435,0.31994628906,0.45739746093,0.0013408236119039688,0.3141977595156321,0.27355957031,0.39025878906,0.0009897374247985918,1.0210503724516093,0.96822375186,1.08417409662,0.0006935832003594772,976.0590565400585,975.98311277116,976.16367318655,0.003155314300856191,0.0016037324746927626,Null
-0.9086547851537999,-1.08837890625,-0.79943847656,0.00564852552592353,0.40742553710569984,0.31823730468,0.57641601562,0.0037879178183442682,0.2355065917927,0.01525878906,0.42565917968,0.01502456955664743,1.0313307190229002,0.89010126207,1.24979891351,0.007763426683882837,976.0011733265428,975.92673891706,976.14001723586,0.0020388061517439544,0.000436816812428353,Null
-0.8057998485756179,-1.09228515625,-0.58459472656,0.017400750530906436,0.3279233782439326,0.06201171875,0.64758300781,0.025460679795496457,0.5105611393930337,0.28051757812,0.81005859375,0.018995883150884043,1.0307668567048316,0.75408053977,1.23070194517,0.01638590086735342,976.0106358857716,975.94336979532,976.08366768021,0.0014408324335435693,-0.0002125357908880961,Null
-0.8514931761149381,-1.25610351562,-0.5712890625,0.03911539649125806,0.5551365981817284,0.26110839843,1.0576171875,0.035903042490503564,0.3488422911824691,-0.3515625,0.60375976562,0.05009283990875627,1.1164416821377776,0.83452241324,1.41547692937,0.03243329233676419,976.0324411376703,975.93475289549,976.33984789556,0.01017609703371542,0.0013127932399148833,Null
-0.8514749546208079,-1.1162109375,-0.66809082031,0.019962783078740564,0.47479802911555563,0.27453613281,0.74877929687,0.017040209281353497,0.2121729995237374,-0.16650390625,0.51794433593,0.03666151034272644,1.021291142679596,0.73302718517,1.29123387533,0.025603589342877677,975.9852305320003,975.89666116776,976.09724947181,0.0034132703703202666,-0.0002143667733314504,Stairs up
-0.8698042199926596,-1.16662597656,-0.64904785156,0.023067045454805167,0.4125781769421276,0.27966308593,0.60803222656,0.008044990577776663,0.2865535654893617,-0.17761230468,0.60205078125,0.04392580627583863,1.0268473469867019,0.71852022105,1.31934548126,0.029025959278822275,975.9336250342899,975.86412094429,976.11079570693,0.005347115907969898,-0.0009352721057102003,Stairs up
-0.8569005629554116,-1.01416015625,-0.73876953125,0.0048041909180667934,0.42245088464670577,0.31774902343,0.5126953125,0.0020825449951889026,0.2915355009157647,0.03637695312,0.46179199218,0.01983781164381322,1.0095231197177648,0.82050141475,1.16372758412,0.005069121624284998,975.9189626119028,975.83280353316,976.02776603168,0.002479673040851068,0.0009359157432792131,Stairs up
-0.8876318993470128,-1.22387695312,-0.69018554687,0.020686327081926168,0.3981299462224675,0.07177734375,0.57946777343,0.01204975835974715,0.23555765523389618,-0.21630859375,0.49450683593,0.03923862398393361,1.0258182275690908,0.81611358836,1.32326662385,0.0208935332709461,975.8948237825583,975.74641472366,976.10844627081,0.011067006775535487,-0.0005817002415637534,Stairs up
-0.8503043619762666,-1.12731933593,-0.66174316406,0.015839453473602185,0.32045410155840004,0.07177734375,0.52685546875,0.01868996549301771,0.17439941406039997,-0.29895019531,0.49243164062,0.04884646074052945,0.9579323995401335,0.7354009442,1.26038641013,0.016384659073226504,975.8335847864859,975.61304934972,976.16720912931,0.020704304790630235,-0.0022471857037392813,Stairs up
-0.8955841064417309,-1.2099609375,-0.70727539062,0.021099293749297945,0.4549384483894231,0.13049316406,0.92199707031,0.039943542416238806,0.16267395019278846,-0.27746582031,0.55590820312,0.056817371632056864,1.0581361573996153,0.78990344756,1.5463089437,0.03372850835774087,975.8199919199632,975.55958666474,976.2687838315,0.035470227660987334,-0.0006168170563423201,Stairs up
-0.884236653642258,-1.17456054687,-0.701171875,0.022123761582992313,0.4086769678223654,0.14562988281,0.6142578125,0.019745588902033522,0.21984600764236562,-0.4150390625,0.47534179687,0.05482978275789724,1.0320837546309676,0.83942480061,1.32424148607,0.024866408770954227,975.6799294369205,975.50288145589,976.14269919476,0.020263835579716206,0.0003036922384794905,Stairs up
-0.8944621258438553,-1.21325683593,-0.65161132812,0.03042019401831069,0.4052822618554217,0.22448730468,0.7724609375,0.02499297834912137,0.17968897072469875,-0.25036621093,0.50207519531,0.04869084659499599,1.0322425488078313,0.71660384819,1.37047574387,0.04014883312701108,975.6522095842816,975.54265463021,975.83568927373,0.005992235181269866,-0.0007917252059721032,Stairs up
-0.8291121773056522,-1.13537597656,-0.67834472656,0.016100893849781066,0.44115547511434766,0.28002929687,0.671875,0.008065356122451564,0.15794040845608698,-0.29748535156,0.51525878906,0.047522748869747215,0.9791778573684781,0.75307671958,1.30648614628,0.01932083167779959,975.6189348511208,975.54980580332,975.78070495145,0.0033527721962466656,-0.0006842240684544382,Stairs up
-0.8800547074264286,-1.12475585937,-0.689453125,0.014832093186139943,0.4755672532642857,0.32434082031,0.69006347656,0.007726461110781468,0.2223149513687755,-0.28466796875,0.53332519531,0.0548079443823718,1.0538814378845918,0.84254689448,1.30402174541,0.01616029854337263,975.5583557092925,975.49093535971,975.65772336184,0.002342874795376655,-0.00042064990020912956,Stairs up
-0.8761860240554546,-1.18884277343,-0.68444824218,0.018247128885626736,0.3337957208769318,0.16040039062,0.55029296875,0.012915978455610811,0.16769825328375002,-0.25183105468,0.46069335937,0.04418672413850719,0.9798981537840908,0.78256805814,1.30166740704,0.021784984428019346,975.528849853208,975.45798042733,975.63301226902,0.0025304696424725327,-0.0009194525718720279,Stairs up
-0.8731504029830377,-1.11669921875,-0.71325683593,0.014102123520475183,0.4120243893363292,0.1884765625,0.64587402343,0.013473404658787387,0.2439165718920253,-0.04321289062,0.55187988281,0.023917479174744953,1.0105413768287337,0.78365574455,1.28243097679,0.021571396181354435,975.4521810484287,975.39743887676,975.52779542076,0.001321349255489917,-0.00013560104210880093,Stairs up
-0.8877724095359212,-1.14416503906,-0.73486328125,0.008282830652314681,0.4394274259830262,0.29870605468,0.58605957031,0.005708522922113602,0.28957969263684213,-0.04211425781,0.51342773437,0.020679312097011876,1.042453353427763,0.804003017,1.2764359611,0.012766166735339363,975.4388019748927,975.39994158135,975.48904226632,0.0009747833908535625,-1.730415375515608e-05,Stairs up
-0.8612825027574748,-1.03991699218,-0.72827148437,0.007221160368686881,0.43013262507414146,0.25073242187,0.63122558593,0.010159838963901019,0.2509864267631313,0.02380371093,0.46276855468,0.016521945801443196,1.0059164369442424,0.79560445024,1.19500729772,0.011625857060112892,975.4439191923083,975.4099998654,975.5047284914,0.0008103284162859761,-0.00013778472631710133,Stairs up
-0.8852448159037234,-1.05810546875,-0.73742675781,0.007621800783996822,0.4343378594549998,0.27954101562,0.57788085937,0.006571403776798783,0.2525063372635107,0.02978515625,0.42749023437,0.010050603683699935,1.0243495318975535,0.78959944368,1.19744981154,0.01087685370090425,975.4510481639151,975.39057832832,975.59165402132,0.002505804361930218,0.0005429962515979034,Stairs up
-0.890967080756279,-1.09069824218,-0.72021484375,0.010314290600488314,0.42149033656965096,0.13122558593,0.64807128906,0.01268439942162595,0.21882380995267436,0.00158691406,0.47814941406,0.01858833932857005,1.0222213924913952,0.76585098746,1.26085150589,0.01570985937541486,975.4328193174782,975.37215479494,975.50825189399,0.0010109062107907965,0.0007592395972457715,Stairs up
-0.8740234374961176,-1.05102539062,-0.71765136718,0.006104988001683921,0.42585305606176466,0.18420410156,0.58557128906,0.007337007243754147,0.29855669806658824,-0.0478515625,0.47668457031,0.015853842587789078,1.026267310758118,0.81464595936,1.20384527914,0.010251085403538151,975.4414317694856,975.39639701283,975.48164819578,0.0007967847001652333,6.592724389649131e-05,Stairs up
-0.8868686184982177,-1.05212402343,-0.73083496093,0.007339034045087215,0.3881968885332673,0.17919921875,0.55236816406,0.009322017401590414,0.21440985650980196,-0.03942871093,0.43640136718,0.01790914251621809,1.0033323458016832,0.82015541025,1.2567930355,0.010864040758696087,975.4399582570366,975.40805634798,975.48213708475,0.0005083043589921885,0.00029656966163927077,Stairs up
-0.9084092881903333,-1.17004394531,-0.62939453125,0.01989922384337653,0.3895765516458888,0.18005371093,0.65612792968,0.014619153836670633,0.24361436631688885,-0.20971679687,0.55639648437,0.038920503534054775,1.0416183933939998,0.68484350132,1.34355994477,0.024248730467185214,975.4715250313483,975.42609481659,975.52043005001,0.000555078751187338,-9.213767640190118e-05,Stairs up
-0.916692286358889,-1.18408203125,-0.71301269531,0.018848998863090043,0.34730360242753083,0.18310546875,0.5498046875,0.010725338757132209,0.2952308183811111,-0.13537597656,0.58715820312,0.03174217644485812,1.040168491365926,0.80381821464,1.3243420805,0.027048740953811556,975.4312807586288,975.38725501853,975.50715419237,0.0006590589703296845,-0.00018007153965293108,Stairs up
-0.8721795333013156,-1.08850097656,-0.68347167968,0.00896471443939215,0.38608430560934215,0.17724609375,0.61340332031,0.013444188840986184,0.28336053145144735,-0.08483886718,0.54211425781,0.027102148061659483,1.0133120667152633,0.78087273071,1.20330310097,0.012271127934848506,975.3729642417162,975.32409383844,975.50715419237,0.0021179062977008897,-0.0007695917128506748,Stairs up
-0.8648917458234091,-1.09582519531,-0.724609375,0.010495736289943056,0.43152687765920456,0.28015136718,0.64611816406,0.011006679615515541,0.26458878950272724,-0.12976074218,0.57189941406,0.029707399590377978,1.020679239700568,0.78115538977,1.31893069285,0.016839265995912303,975.3440825710379,975.29979004673,975.46428596627,0.0016353802121324625,-0.0010493693727056056,Stairs up
-0.9704378089088777,-1.39929199218,-0.669921875,0.04565830852116282,0.22877097616091843,-0.29211425781,0.53991699218,0.03904750423493414,0.31971709582,-0.11694335937,0.84680175781,0.0690131971715048,1.0993509687073468,0.77423678626,1.42965979106,0.04029377906816757,975.2923646172377,975.19470766076,975.39100709529,0.0032629327471183777,-0.001323196642049802,Stairs up
-0.7797508668330336,-1.1845703125,-0.3798828125,0.047327231273504,0.43579787350359545,0.07653808593,0.9775390625,0.05273844246171791,0.2102091928534831,-0.17517089843,0.63562011718,0.055573679996498454,0.9592401872885392,0.45313330346,1.41482722432,0.07673010165077711,975.2178155153031,975.09599948091,975.39941906695,0.008035386604748408,-0.001558029685067269,Stairs up
-0.9114471435503748,-1.19006347656,-0.67639160156,0.024624845564639793,0.34824371337625004,0.13500976562,0.62060546875,0.016154695573619985,0.334127807613125,-0.03271484375,0.59509277343,0.029559485811778776,1.0508883185272502,0.79330479496,1.33930077964,0.02910835677318599,975.1357037896416,975.10845143414,975.17985867306,0.0003466676407901067,-0.00041654635695993617,Stairs up
-0.8633398437455,-1.19604492187,-0.65673828125,0.021791920962964468,0.4198266601524999,0.21826171875,0.77197265625,0.025480980096472566,0.20372924804439996,-0.18676757812,0.48779296875,0.03544028009188325,1.0083676127367,0.71547088837,1.30707532554,0.028481337181197077,975.0934735723192,975.0407228543,975.14044281812,0.0004936993107002236,-0.00036372622072787194,Stairs up
-0.8490751533058064,-1.18688964843,-0.63195800781,0.026830084917920542,0.44675240464946236,0.26831054687,0.76208496093,0.015215312514305596,0.3001223328266666,-0.12060546875,0.55078125,0.03107684336870445,1.026377429643118,0.78331124184,1.3593680831,0.02979547520463088,975.0249619932158,974.95208393609,975.07901673598,0.0017508008237582878,-0.0011600508805503398,Stairs up
-0.8283748851052941,-1.11462402343,-0.65502929687,0.014100813406383996,0.42783777573211773,0.23608398437,0.60144042968,0.013095776064506903,0.3125315946665883,-0.04748535156,0.58215332031,0.036086467813441984,1.0087708270532942,0.83419826543,1.28574799477,0.011987104257194283,975.0040427513597,974.86504299632,975.16475564246,0.00807102796423825,-0.0018920722247209418,Stairs up
-0.8461200664538963,-1.12316894531,-0.68774414062,0.01771604048206499,0.37732884790662347,0.173828125,0.68615722656,0.021640765731918827,0.287616680191948,-0.09057617187,0.61254882812,0.038752871149380724,0.9957433774024678,0.78765521752,1.29971680605,0.02696010460298707,974.9465775930078,974.90004614694,975.05380828668,0.0023248943407103333,-0.0011830259169520205,Stairs up
-0.8959993061228946,-1.16284179687,-0.71862792968,0.021289770195595664,0.34127807616802636,0.1552734375,0.61572265625,0.014617621153722924,0.33073505602,-0.00158691406,0.60913085937,0.02117433347941964,1.0291534720123685,0.82239131918,1.33187641575,0.026189538870144396,974.8879950764504,974.85271455091,974.93890064473,0.0008331049500361781,1.705892363738898e-05,Stairs up
-0.9184459339452523,-1.16076660156,-0.74670410156,0.011555592956049963,0.3602874447563637,0.20385742187,0.58142089843,0.00938041853158386,0.2746594361546465,-0.03735351562,0.51989746093,0.022814102773179853,1.038629739321717,0.82661744315,1.3042798976,0.013480406533825198,974.8792831424753,974.84878612778,974.90962422795,0.0003190679264506527,-3.78285553392665e-05,Stairs up
-0.8746298931977659,-1.08776855468,-0.7744140625,0.00671561797836085,0.39642074259957444,0.29479980468,0.54223632812,0.003185620785005271,0.3327428939452128,0.05798339843,0.50769042968,0.0167827845384162,1.0255064222531913,0.83736231405,1.24903475329,0.00766293795910134,974.8763904204092,974.86500760984,974.88632961756,4.88470498195665e-05,0.00014926106513797198,Stairs up
-0.9113554113016472,-1.08081054687,-0.74694824218,0.00863009307223273,0.34415067784529413,0.19226074218,0.47973632812,0.005877727061496813,0.2462790096470588,-0.02221679687,0.49890136718,0.029283245266609487,1.0194538250925884,0.79341625871,1.25208600747,0.013814018124258583,974.8801468487553,974.86745085278,974.89256804027,7.075027588822962e-05,0.00010942787818239263,Stairs up
-0.9384694653845347,-1.16540527343,-0.77990722656,0.013477127115276107,0.3003923283037209,0.10107421875,0.41906738281,0.004426505815152728,0.3167398142218605,0.10620117187,0.51098632812,0.013514168621641795,1.0452292412836046,0.89209029474,1.26535761916,0.009948591011895646,974.8823014565559,974.85467378602,974.91266289973,0.00017334439902674372,-0.00031140386631870604,Stairs up
-0.9039697265592999,-1.04711914062,-0.77453613281,0.00560875037701864,0.3630029296824999,0.23522949218,0.50708007812,0.004499329485126398,0.3354956054647999,0.05993652343,0.53759765625,0.015005671249748732,1.0384496288793001,0.86851833225,1.21762935761,0.008055228951426205,974.8773663735451,974.86419181877,974.92637937263,0.00023993945758758522,0.00025341679052396575,Stairs up
-0.8799153645791111,-1.15026855468,-0.66345214843,0.012153346485030794,0.4120185004304444,0.10498046875,0.64465332031,0.013975676378719479,0.2297051323741111,0.02844238281,0.46130371093,0.015556238863119621,1.010671798154889,0.77092460895,1.32534142674,0.01672518532021256,974.8764802150496,974.82515088524,974.91759676945,0.0007995867223424515,-0.0001230525205719915,Stairs up
-0.8822765815514633,-1.12316894531,-0.64086914062,0.017325311809320208,0.4042164872307316,0.19140625,0.56005859375,0.007425335535090098,0.23561356707170736,-0.25134277343,0.62487792968,0.051927115858035576,1.02752675537,0.83209101144,1.31999123067,0.01746106321587593,974.870476550024,974.83783229608,974.92006609347,0.0003911153489715595,-0.00026892365460272745,Stairs up
-0.8732452392542046,-1.14392089843,-0.61889648437,0.02270693453951817,0.2894037420060227,0.14916992187,0.56555175781,0.01680200475365149,0.35428133877420454,0.06164550781,0.64001464843,0.025621244868798316,1.0016991754888638,0.6740732604,1.37011611623,0.03319306495242906,974.833961304474,974.76145956342,974.95586811647,0.0035058160029531275,-0.0015248643309653705,Stairs up
-0.8585143426412121,-1.06652832031,-0.71179199218,0.005689377497077637,0.3909961430673737,0.27783203125,0.53308105468,0.0069933259727468396,0.3374097419469696,0.11926269531,0.54748535156,0.009585434629627201,1.0108288761435356,0.90478991585,1.14327437876,0.0040795929523182286,974.7874974701418,974.73865403589,974.82767776263,0.000444213993058708,0.0004574115271076307,Stairs up
-0.8910064697230683,-1.19311523437,-0.71411132812,0.01943298722577471,0.3802615078971591,0.14233398437,0.603515625,0.01662856684338796,0.2778264825970455,-0.15209960937,0.52978515625,0.03519889126825501,1.0289144299042046,0.78892594279,1.31494712332,0.02778034715824713,974.792400370356,974.7335478207,974.84170058507,0.0009068665290318329,-0.000857015642712089,Stairs up
-0.8709972993785184,-1.1591796875,-0.71520996093,0.015841177000379562,0.41041395399037034,0.21411132812,0.65246582031,0.013913055881782955,0.19672761139777778,-0.13134765625,0.49938964843,0.03887537709480891,1.0060238091525926,0.76368011899,1.31010455698,0.02174453960735151,974.7231899627244,974.67275379156,974.78366779482,0.0008221431815135415,-0.0009386613020245652,Stairs up
-0.8520709287741745,-1.14001464843,-0.65881347656,0.020698848628500386,0.4332073915316503,0.22021484375,0.61633300781,0.012588390561154586,0.2683449161840777,-0.0888671875,0.49169921875,0.02657150971396291,1.0115439437550484,0.74081895035,1.32078780134,0.021972274690886442,974.6907160299946,974.58723842589,974.80750441781,0.0038782355540160594,-0.0005355182510031692,Stairs up
-0.8886148203923913,-1.15759277343,-0.74548339843,0.01569548362275316,0.3293510105252174,0.18359375,0.54626464843,0.007171538476354535,0.2794574239952174,-0.10607910156,0.65600585937,0.0355717382350005,1.0068745341386955,0.83230942566,1.35576077923,0.020434178541771455,974.6148395783619,974.55849203399,974.7271976238,0.0019503310329730937,0.00034556323588393685,Stairs up
-0.8861334007874698,-1.22082519531,-0.69750976562,0.02142531325156557,0.4294860104450602,0.11486816406,0.77038574218,0.027745941220935707,0.20957266565987956,-0.09936523437,0.49426269531,0.03516328194608037,1.0339725760913254,0.75457163093,1.3362593291,0.02816990535824744,974.5709362994126,974.50422081443,974.7271976238,0.004384658183916676,-0.0014590368557212846,Stairs up
-0.8777610377228946,-1.109375,-0.71862792968,0.012302109387476124,0.39706420898052636,0.18029785156,0.54528808593,0.014065776318394367,0.3211396869821053,0.00891113281,0.53771972656,0.01948537174800804,1.0285839043755265,0.80403721097,1.29417421439,0.018767136741367155,974.5030629007096,974.46686386778,974.54818182908,0.0004306794531392067,-0.00034488370061192057,Stairs up
-0.8684940149248515,-1.14526367187,-0.640625,0.017110491855230513,0.43941324063742565,0.29052734375,0.63830566406,0.009226844045141017,0.2670547938548515,-0.10461425781,0.50903320312,0.02833251307454114,1.025352821822574,0.70652951304,1.32237471408,0.02167890972316831,974.5068561781773,974.47270811014,974.54354955326,0.0006176365478341349,-5.6480260790997157e-05,Stairs up
-0.8519663709240425,-1.18444824218,-0.66259765625,0.01746085927888186,0.38867317361585096,0.17565917968,0.54418945312,0.008172348139912234,0.25150769821744684,-0.11120605468,0.40466308593,0.01730842670614399,0.9826965914777659,0.7443536969,1.28708321598,0.017144258397601038,974.4713456386897,974.43101996779,974.52189001144,0.0005345518298931125,0.0001812721513477293,Stairs up
-0.9113784063397619,-1.14196777343,-0.740234375,0.009175780485117548,0.40635899134607134,0.22705078125,0.62121582031,0.009761669556071446,0.2517525809116667,-0.04089355468,0.42333984375,0.016531564615620657,1.0388799869650003,0.80133232135,1.30010270987,0.015072159016975922,974.4000435291005,974.33534964751,974.48546782516,0.0017783517021956958,9.540880163486132e-05,Stairs up
-0.8884358723921111,-1.12890625,-0.73742675781,0.009805076175887115,0.4359429253436667,0.29663085937,0.68859863281,0.007893993717596118,0.22445746527377775,0.02355957031,0.43273925781,0.0140178013756531,1.0234169412155556,0.8201439548,1.32423293969,0.013882159464650722,974.4102377370899,974.35680494575,974.46419245031,0.0008877566173667738,0.00011813275301943939,Stairs up
-0.8909036655577777,-1.06762695312,-0.68469238281,0.008386606476843644,0.42943349510444445,0.18774414062,0.75244140625,0.013694297804240228,0.27284564393525246,0.03796386718,0.41247558593,0.009649650893429035,1.0340839570565656,0.76339445416,1.29630185296,0.014797093300261535,974.4205355274305,974.38075009216,974.45624429918,0.0004574746458512885,-0.00019737250502321294,Stairs up
-0.8865356445275,-1.1826171875,-0.71350097656,0.014343577555111871,0.4227502996244317,0.25061035156,0.66259765625,0.0098928131664889,0.21540555086738636,-0.08264160156,0.41906738281,0.02003006056110778,1.0167778604007955,0.79476542889,1.35724967028,0.019899274344467838,974.4160954582713,974.36484190922,974.48506293617,0.0010174458801544472,0.00014242377419385318,Stairs up
-0.876019287105375,-1.0126953125,-0.68859863281,0.008136507114370221,0.44719696044525004,0.27087402343,0.6884765625,0.00853641608247843,0.256619262692125,-0.04455566406,0.47131347656,0.01601461555939613,1.0261270417523751,0.79114240407,1.2569855406,0.01274997215559894,974.4160380858386,974.36299691259,974.46665405928,0.0010666958138687579,-0.00017368085856612838,Stairs up
-0.8806591796832,-1.09399414062,-0.71667480468,0.010252933502204303,0.44895019530839986,0.27136230468,0.708984375,0.011534582521469196,0.2381103515592,0.04650878906,0.41857910156,0.013079677481833902,1.0252361337920002,0.80773471959,1.27342383839,0.015953552220347316,974.4125050762216,974.35008058453,974.45584049804,0.0009413789647772349,0.00020519559406558658,Stairs up
-0.8917310310102021,-1.13439941406,-0.65405273437,0.017421484546659396,0.45589439314656555,0.14672851562,0.76037597656,0.017505641691201713,0.23172644412626262,-0.20861816406,0.54907226562,0.04816699984463373,1.059144236587273,0.85420218641,1.2739636674,0.01736475340572418,974.4081399062949,974.355261738,974.45941180544,0.0010231674239587157,-0.00047353685159099037,Stairs up
-0.8485678814790424,-1.15209960937,-0.66528320312,0.021651180746372022,0.4096588784042553,0.2138671875,0.728515625,0.02175500387775322,0.22646899933223402,-0.07788085937,0.44360351562,0.022835631018826037,0.9887143238918082,0.74602291509,1.27889859937,0.02744916741946379,974.3773245868296,974.33515707564,974.4102309148,0.0006006855219045214,-0.0006538648570070514,Stairs up
-0.855379710474,-1.06164550781,-0.6728515625,0.010502525876046243,0.5212086397005881,0.34790039062,0.84069824218,0.012938690736428341,0.2576358570748236,-0.13928222656,0.48803710937,0.031514296398078324,1.053656680000706,0.82088523126,1.29229351056,0.015114905777764923,974.3343577202069,974.31831960201,974.37240037246,0.00021017104186830924,2.3514053939376256e-05,Stairs up
-0.9071956941410343,-1.16784667968,-0.70922851562,0.0254794065405204,0.3609394643467816,0.10913085937,0.79931640625,0.026553406108889878,0.2561315777633333,-0.16662597656,0.53454589843,0.03605280563515332,1.0351965446977014,0.80516902626,1.42398160988,0.03472510238685223,974.2956471479857,974.23211162599,974.37223870202,0.0010569899218854338,-0.0006590071210357872,Stairs up
-0.8422253417932,-1.14660644531,-0.67517089843,0.01705992357147757,0.45883666991780003,0.22924804687,0.68090820312,0.015158134065276385,0.21152587890350003,-0.12817382812,0.49011230468,0.032133420421791056,1.0051007316368001,0.74682879564,1.26696429797,0.018281107080520245,974.2362807093305,974.19644857373,974.27195163644,0.0005565363855518492,-0.0005415633069459616,Stairs up
-0.9053154839362222,-1.16333007812,-0.6552734375,0.02514628384960614,0.40485026041344435,0.20874023437,0.68017578125,0.01584717470620887,0.275610351559,-0.05944824218,0.48657226562,0.023518296506220743,1.0464883921584447,0.74506376982,1.31019838364,0.027096526661060032,974.1924111718001,974.13920393455,974.26149788117,0.0004799503620908116,-0.00024246782089552054,Stairs up
-0.8393661498985001,-1.14709472656,-0.6552734375,0.017989734755799822,0.430146789547125,0.26831054687,0.54565429687,0.007744865041716508,0.175859069822375,-0.14672851562,0.45654296875,0.040299179901376464,0.9827743539213751,0.74358608579,1.28088932659,0.02010241348891444,974.1490035580231,974.12522971324,974.18672932513,0.0003352119165023307,-0.0004502978471198045,Stairs up
-0.8653725071919736,-1.15063476562,-0.681640625,0.018436682757753765,0.46958843030013153,0.21496582031,0.91638183593,0.027836446103168815,0.2518824527111842,-0.12451171875,0.48083496093,0.027863597179264586,1.0390714234826317,0.75861007955,1.40910496186,0.02667038589770268,974.1108876557854,974.08295900209,974.17842180154,0.0008716031040738209,-0.0008570613703712413,Stairs up
-0.8758903171665217,-1.16455078125,-0.708984375,0.015354611237816333,0.41554990021739124,0.20458984375,0.71716308593,0.011936950136366456,0.25835518214663045,-0.04235839843,0.50427246093,0.02644255703707879,1.0194919650007608,0.78036954858,1.33185078357,0.020623319140127064,974.0599576975918,974.00803404182,974.09087706746,0.0003877887656320491,2.5163263843420032e-05,Stairs up
-0.8565774504642268,-1.177734375,-0.66809082031,0.018161404464959226,0.39553424009072163,0.2021484375,0.52551269531,0.008654522159040418,0.2398882993683505,-0.14013671875,0.46252441406,0.02720501729554876,0.9913125844728868,0.72680840381,1.29156008275,0.01867456805788668,974.0397025362736,973.99398909261,974.09737817561,0.0011730260209320915,-0.0009682474258903574,Stairs up
-0.9294475208590908,-1.13745117187,-0.74291992187,0.009728219813422952,0.41126181862159084,0.19812011718,0.66638183593,0.010331463319733216,0.23796913840204545,0.00170898437,0.42028808593,0.013051432390892343,1.0530262946248863,0.83081757763,1.30764886705,0.01366403714794231,974.0029782071754,973.94571476944,974.05291551971,0.0010542448948137654,-0.00017822905788993592,Stairs up
-0.8922381823551897,-1.15161132812,-0.73205566406,0.010176541205849574,0.4316112663129112,0.24987792968,0.61535644531,0.005932022828154758,0.23932580102544299,0.0146484375,0.43420410156,0.016241646633222678,1.0295953153672148,0.82850780276,1.27821742518,0.011676097907600868,973.994406620481,973.9398481266,974.04738664511,0.0007566980172656298,-3.919138725402683e-05,Stairs up
-0.8938046968869231,-1.08349609375,-0.76025390625,0.006684219484311658,0.3993248572678846,0.19116210937,0.61596679687,0.008924716951513048,0.26028794508374997,-0.03173828125,0.43310546875,0.015357573187410793,1.0229429770347116,0.83528073081,1.24639680818,0.010453931193963623,973.9955153528473,973.94583112747,974.03344436936,0.0006537535219025281,-4.900434718173693e-05,Stairs up
-0.887733791181413,-1.05334472656,-0.71960449218,0.009288675486651408,0.4376605489946738,0.2626953125,0.63647460937,0.00833172618978313,0.20915819250782608,-0.05114746093,0.46765136718,0.0208572660935526,1.0232907345711952,0.80107480692,1.26385575715,0.014457844926656024,973.9796119900092,973.93239399187,974.01857088476,0.0008187050604798683,1.6282443540075213e-05,Stairs up
-0.8878085584493975,-1.04858398437,-0.73364257812,0.007380907413096457,0.4009406767654216,0.17602539062,0.57202148437,0.007346292957194455,0.2818971197259036,-0.00024414062,0.49475097656,0.015551316932287028,1.023675607481807,0.82423806732,1.25602954761,0.010552554598336253,973.9666854036502,973.92363001748,974.00272264531,0.0005503306943039274,-0.00030683361958242894,Stairs up
-0.868847339180909,-1.03515625,-0.71020507812,0.007394814671546279,0.44550115411636354,0.22485351562,0.7021484375,0.014887861337371463,0.24567363788220783,0.00988769531,0.44750976562,0.016979699657477674,1.019381146791299,0.79937375747,1.23152837994,0.013512553427804518,973.9568147898025,973.91909741315,974.00101768496,0.0005216106021387038,-0.0005274611915235521,Stairs up
-0.8584422576075639,-1.16381835937,-0.28442382812,0.04445945093155242,0.45646158853743585,0.21899414062,0.80236816406,0.023219810161924648,0.3753896859942307,0.04016113281,0.7734375,0.03133431388863572,1.0619412650560256,0.54011074369,1.52472244261,0.05695279155110086,973.9686272292607,973.91088283089,974.05794822933,0.0011513518082017168,0.0002129285613054804,Stairs up
-0.9776766907891177,-1.36901855468,-0.66394042968,0.046587542635567955,0.36846445120754884,0.10510253906,1.31311035156,0.09123646996751503,0.16963465073254913,-0.14929199218,0.45300292968,0.023594928745217236,1.0975174459729409,0.71179665014,1.77940625839,0.07643489848867158,973.9515255822406,973.89830778727,974.05794822933,0.000969649552395171,-0.00017271093959703946,Stairs up
-1.0558219577921737,-1.57995605468,-0.59814453125,0.07312706621691809,0.18148405655086955,-0.02612304687,0.41479492187,0.008727358371962765,0.11641792628836958,-0.17736816406,0.23107910156,0.007668121089581093,1.0851956852760873,0.62141923353,1.63544777569,0.07294225266007313,973.9058214243397,973.8751086916,974.03386000227,0.001350085338415891,-0.0005484518225680663,Stairs up
-1.0468294074701205,-1.3779296875,-0.70983886718,0.045556436846922635,0.07036838761144577,-0.39001464843,0.29418945312,0.025252140621875068,0.05168427616554217,-0.37756347656,0.25903320312,0.03695868789320842,1.0797255184503611,0.75783965465,1.39560049401,0.04467470151544706,973.8809555432246,973.85495498334,973.92688305755,0.0003176268535899725,-0.0004440900662514292,Stairs up
-0.9509710496448387,-1.3955078125,-0.57043457031,0.053436241281269614,0.30805165280279573,0.04187011718,0.61499023437,0.02345098699646564,0.1196879725267742,-0.27001953125,0.54040527343,0.035397752669451506,1.0358657889580642,0.65054535958,1.40619007088,0.052187810904713236,973.8335303699264,973.77225511495,973.90641480397,0.001583046638578108,-0.0009662261734007899,Stairs up
