avg_accX,min_accX,max_accX,var_accX,avg_accY,min_accY,max_accY,var_accY,avg_accZ,min_accZ,max_accZ,var_accZ,avg_magnitude,min_magnitude,max_magnitude,var_magnitude,avg_pressure,min_pressure,max_pressure,var_pressure,slope_pressure,Label
-0.8224500573151086,-1.25170898437,-0.22155761718,0.1065856999402789,0.3759327764066304,0.11328125,0.85791015625,0.07423243338673521,-0.10115382982097824,-0.47253417968,0.03662109375,0.029457281065854737,1.010228728836522,0.73997812188,1.30544348189,0.01557870771736921,972.7802368992501,972.6286179392,973.12953478748,0.03996021584998748,0.004589564796417144,Null
-0.3597863769489999,-0.50598144531,-0.2109375,0.008227986715881971,0.9246533203083999,0.71533203125,1.16674804687,0.012286934322638594,0.04168334960930001,-0.45825195312,0.36804199218,0.06724301716573565,1.0322575895542998,0.84968658622,1.21607016941,0.007567807133347031,972.5918623465233,972.49892786289,972.8927229367,0.010046221616752341,-0.0002449934928093434,Null
-0.7726708984333999,-1.40466308593,-0.03637695312,0.20975957436910936,0.4758728027308999,0.06713867187,1.0498046875,0.08920530007807723,-0.028216552735199997,-0.54846191406,0.24047851562,0.06583881630068344,1.0694936177306997,0.59428378003,1.47421407895,0.042030778775443416,972.5417962460785,972.39131353437,972.8927229367,0.01842999332908319,-0.002921183078939458,Null
-1.0998498535122,-1.39514160156,-0.83642578125,0.024653547777861287,0.2195739746071,0.03479003906,0.53088378906,0.023960748517998887,0.0830456542936,-0.06298828125,0.24743652343,0.006109950125156908,1.1365172331007,0.85437739881,1.43648624436,0.027560196071545032,972.6048409679424,972.5407018137,972.63883847735,0.0005448357720366595,0.0006619413442009929,Null
-1.1769494628864001,-1.53295898437,-0.865234375,0.03680822862930014,0.1612072753873,-0.15966796875,0.48315429687,0.02264504056225964,0.1769580078083,-0.1572265625,0.37316894531,0.01964646442915126,1.2182185950108997,0.88085840229,1.53563265894,0.03713550647252834,972.6250939250623,972.61233355274,972.69691832513,0.00034154843833074887,-2.7537645899072377e-05,Null
-1.1187145996049,-1.31811523437,-0.84350585937,0.015786561247967186,0.1976477050744,0.03039550781,0.44995117187,0.01654730591342247,0.10099975585649998,-0.056640625,0.20690917968,0.0067084852776653865,1.150770743887,0.85195739584,1.3515232334,0.015319742730860742,972.6326264931023,972.61889394809,972.66140976067,0.0001258815624218567,-3.9866108081410345e-05,Null
-1.1203283691369001,-1.3515625,-0.87268066406,0.021504621570664153,0.1757189941366,0.00756835937,0.38854980468,0.013950870342623762,0.04736206054539999,-0.29968261718,0.20104980468,0.017113530121754688,1.1478178510465002,0.87669995058,1.37067340591,0.02304393636902586,972.6409707893582,972.62383174085,972.67917275845,0.0003113871357655055,0.00042672669241580334,Null
-1.1218957519491999,-1.44348144531,-0.85925292968,0.022482284769615352,0.25351928710649996,-0.0224609375,0.45983886718,0.023403321569070847,0.06624389648279999,-0.28454589843,0.35827636718,0.019645466964815228,1.1691117371767001,0.86420924163,1.4987485851,0.02562007026793147,972.6328803643441,972.61672046,972.66415512239,0.00016267493087986011,-0.0001237355265236413,Null
-1.063031005856,-1.37268066406,-0.85034179687,0.01596334617973986,0.14438354491969999,-0.03686523437,0.42492675781,0.01870002087142193,0.1006079101552,-0.09069824218,0.51818847656,0.027538032356348562,1.0969305408642,0.86996431217,1.42198136214,0.019521467648336246,972.6776955186705,972.58467964059,972.91138537995,0.007516744203522137,0.001151016330069816,Null
-1.0597155761676,-1.27416992187,-0.88330078125,0.009353203813984187,0.1280493164029,-0.107421875,0.28662109375,0.009906835019985183,0.10029541015420002,-0.12817382812,0.28967285156,0.010830013071151879,1.0816502402377,0.91900320002,1.29905646475,0.00936849321406291,972.5936204986995,972.49900153134,972.91138537995,0.006807069731265157,-2.1997534345673367e-05,Null
-1.1979748535124,-1.3583984375,-0.99072265625,0.011105984357223823,0.2177893066366,-0.107421875,0.47436523437,0.029751776641790316,0.11260131835560001,-0.06811523437,0.22583007812,0.005659865687185773,1.235713161573,0.9911379106,1.40842748645,0.014465072083196601,972.6138014414041,972.5967044759,972.63617403045,9.130619604098321e-05,0.0001710588546764319,Null
-1.1703674316368,-1.40881347656,-0.93115234375,0.01774771146542543,0.19201049804360001,-0.0693359375,0.51684570312,0.03200649835073448,0.10981689452850002,-0.06750488281,0.27429199218,0.008507065935160476,1.2070404664522003,0.9360119852,1.45345482108,0.019615840461611772,972.6137800684346,972.58699814821,972.63990431654,0.00024576528076760307,-0.00043845839106240123,Null
0.0851013183573,-1.53466796875,0.99084472656,0.781195610568361,-0.117850341796,-0.73547363281,0.93103027343,0.26224396061562044,-0.237829589841,-0.48791503906,0.19641113281,0.04008692427641076,1.0236232648784003,0.4185621025,1.56319435427,0.10361665995662289,972.6002998875338,972.55953637512,972.63336541629,0.0004943157746099148,9.31668262515599e-05,Null
0.37345336913839994,-0.55126953125,0.87805175781,0.17696654888438454,-0.05048583984350003,-0.84594726562,0.59851074218,0.22090158232907126,-0.5470141601543999,-1.0888671875,0.13989257812,0.2049843906793878,1.0122212593136,0.74857362572,1.20092563121,0.013608938608991972,972.6215491587957,972.52919563054,972.8361454895,0.007253687321841247,0.0006186708759901154,Null
0.25499145507629994,-0.27966308593,0.53283691406,0.06671474103024053,0.24387695312260008,-0.30383300781,0.71215820312,0.05230015056254551,-0.8451037597611,-1.08251953125,-0.38061523437,0.030043471671182306,0.9805795106577,0.39822017128,1.16792706188,0.024978361715537876,972.670957174397,972.35508814861,972.80538665371,0.015389251883086019,-0.0008826423471294599,Null
-0.16806274414020003,-1.28503417968,1.07470703125,0.7938999093650173,0.3276916503868999,-0.27099609375,1.10290527343,0.09259056634765081,-0.3767138671831,-0.96936035156,-0.02185058593,0.06822847715544947,1.0719610964075001,0.53669813191,1.46936401255,0.07435496218298444,972.5006190247445,972.4404765615,972.54947656192,0.0012914782541213938,0.001071066780955917,Null
0.3786315917953001,-1.48693847656,1.1005859375,0.774609923170346,0.3687353515590999,0.18640136718,0.86340332031,0.0365943851133187,-0.1198266601546,-0.3466796875,0.39807128906,0.06731512624027797,1.049400111665,0.61481587541,1.63520256137,0.0628077940340262,972.5771654993238,972.5494054225,972.62082662349,0.00036502935046703365,0.0004979218317410474,Null
-1.0700537109339,-1.41564941406,-0.83813476562,0.01718044801195511,0.19037109374690003,-0.00854492187,0.60327148437,0.020183418579490298,0.07674926757689998,-0.107421875,0.30603027343,0.012574569701372728,1.1017672137168,0.86085276558,1.45584775808,0.02292384484697937,972.6187869354009,972.60376793926,972.64452745151,0.0001097678540249197,0.00010759206549222207,Null
-1.0048803212657142,-1.06823730468,-0.98010253906,0.0003915896057905055,0.15747319435285714,0.09106445312,0.19396972656,0.0008829613873681709,0.033559371011734694,-0.02795410156,0.08081054687,0.0007282491422176028,1.0184647788002041,0.99630355121,1.08444235122,0.0004246896984749488,972.6331126697299,972.62813629679,972.63978145318,6.7800260143055926e-06,5.504309153081041e-05,Null
-0.974893375314694,-1.16479492187,-0.263671875,0.025779761535051154,0.22827397560224488,0.0224609375,0.80969238281,0.038391458613163544,-0.04269720583806123,-0.61181640625,0.22277832031,0.0400125637890783,1.0433271597117346,0.66674480626,1.4235383826,0.01913351441033637,972.6416710198363,972.63326013758,972.66234870387,9.21067531312554e-05,0.0002539024601141792,Null
-0.32387519128422676,-1.69226074218,0.81213378906,0.6509184655155253,0.29050217460979383,-0.05480957031,0.74865722656,0.0727170662142722,-0.38113246012835045,-0.89587402343,0.22277832031,0.07473494074367931,0.9869112657272167,0.51839731993,1.82197425369,0.15226434327229518,972.6511914811794,972.58260145984,972.77449986493,0.00394506254507401,0.0009234579367768682,Null
-0.630275451028866,-1.51770019531,0.43896484375,0.46519318571170426,0.3298188828904124,-0.05151367187,0.90393066406,0.07413563140303646,-0.3361715729690722,-1.12976074218,0.14099121093,0.18601631455845571,1.1163541693538142,0.4529269542,1.74626976764,0.09090753584024981,972.5702588915016,972.44456693049,972.89385085947,0.014376587346485158,-0.0024732785225504194,Null
-1.0517959594697917,-1.21740722656,-0.92041015625,0.007191170614693638,0.12618891397947915,-0.16174316406,0.37756347656,0.021787205571190613,0.08168919881083332,-0.17785644531,0.26318359375,0.014214180525444885,1.078477208561354,0.92310481557,1.27869030498,0.008590537189872153,972.6000959555572,972.55734020928,972.6427370121,0.0004781899417709218,0.0006492062543102648,Lift down
-1.0625848067396841,-1.27282714843,-0.8798828125,0.008752552776043742,0.13375051397821056,-0.58093261718,0.40270996093,0.059739260362300206,0.17491776315368418,0.03869628906,0.41796875,0.009143169649802566,1.1171978968648422,0.96487714732,1.30906151339,0.006325107128957749,972.6260021005635,972.60381073265,972.66018701904,0.00024826988212729435,0.0001842066647371252,Lift down
-1.0081527385265956,-1.17138671875,-0.92236328125,0.004542684321938957,-0.03438486951361702,-0.29907226562,0.27697753906,0.026372934287926014,0.12590643699840426,-0.05285644531,0.31140136718,0.012270459080346395,1.0351203250687235,0.95028727636,1.20984502549,0.004709357839024384,972.6421579415736,972.61151909638,972.75241409989,0.001265380429981844,-0.0001956560160686763,Lift down
-0.9499109146399999,-1.22790527343,-0.32958984375,0.0476933488243973,0.14631685297446806,-0.27160644531,0.677734375,0.08133177218213244,-0.1110411299020213,-0.56457519531,0.06042480468,0.02793367085471481,1.0396539967877656,0.89751779502,1.2724265667,0.01059075176163368,972.7224740810715,972.61729275186,973.17786754798,0.026173662722668602,0.0045627194735408496,Lift down
-0.40790703955734026,-0.53784179687,-0.29992675781,0.003573687002676537,0.885927890205319,0.63647460937,1.04089355468,0.010230102439108364,-0.17683183385617024,-0.48742675781,0.01940917968,0.023474220055719176,1.0079203624248938,0.89751779502,1.12056058241,0.0035415308301816025,972.6519667508977,972.50981510035,972.95316981513,0.018021508533951118,-0.0021548053360817805,Lift down
-0.4013977050745652,-0.515625,-0.34008789062,0.0020677495215919027,0.9442457116122828,0.861328125,0.98815917968,0.0007986949922903204,0.013194208557065218,-0.029296875,0.04357910156,0.0002668400557366141,1.0274833530256522,0.98409086244,1.07132420443,0.0002743369857271412,972.6419193948556,972.58066306548,972.75309754448,0.002081028752738905,-0.0008585777798070401,Lift down
-0.45618069556042995,-0.69750976562,-0.36169433593,0.013188791486073739,0.9153632707454838,0.69116210937,1.0625,0.007359401199666645,-0.002051568800860215,-0.2607421875,0.14343261718,0.006355344684503877,1.0351546943465595,0.97379925987,1.14019005464,0.0010755289902646835,972.5774964645713,972.45569673154,972.69294925692,0.003959108856997076,-0.0015795360135830816,Lift down
0.42691610147472536,-0.31518554687,0.859375,0.13988930433649893,0.05124940977043955,-0.916015625,1.32995605468,0.504619689533574,-0.28767814216769233,-0.64733886718,0.16296386718,0.0655199359577132,0.967439573328352,0.63438749348,1.42827725819,0.034306655469170305,972.4711233777612,972.34028720134,972.59083039745,0.004892722754595303,0.0008089221532635389,Lift down
-0.00023340916846152133,-0.58349609375,0.98889160156,0.31987186227771236,0.5614496587371427,-0.66809082031,0.97619628906,0.20615468285868657,-0.26636815332967034,-0.65478515625,0.10461425781,0.05079326816606548,0.9710572715725273,0.7918343816,1.22221923671,0.013858972648386517,972.6674378455999,972.46374490302,972.92361451698,0.025788025789625676,-0.0005381935000253255,Lift down
-0.3962565104124445,-0.501953125,-0.28649902343,0.0036798585667475966,0.8998453776006667,0.80334472656,1.02490234375,0.0026072301221312325,-0.03451199001644444,-0.23278808593,0.28186035156,0.019595761320777866,0.995247359256778,0.90463888073,1.12736560538,0.0030437795414797074,972.5932389988302,972.48537575404,972.81330403352,0.005441166685295659,0.002304215484537403,Lift down
-0.42270914713122215,-0.59155273437,-0.35974121093,0.0023461825559495633,0.8988878038155554,0.83361816406,0.94836425781,0.0008597928635187201,0.12103542751388889,0.09655761718,0.18981933593,0.00036761406690429053,1.0022594093402224,0.95643825454,1.084698945,0.0008604821611052164,972.717215644276,972.64021065623,972.82899967993,0.0015219210365820083,-0.00021602075780367185,Lift down
-0.4304788996625843,-0.48315429687,-0.39379882812,0.0006487630687971106,0.9481393192553932,0.89343261718,1.00646972656,0.0010660737411006952,-0.13895167661247193,-0.27648925781,0.07775878906,0.010524029826784036,1.055896855237865,1.00630943821,1.10370450049,0.0007797639804112299,972.8131333408069,972.66983865088,972.93010852062,0.008098475839116787,0.003256277463658825,Lift down
-0.45395480380516845,-0.5361328125,-0.40551757812,0.001107785234387667,0.9156974192366293,0.8232421875,0.97937011718,0.0020453979405362296,-0.05306081021662921,-0.24462890625,0.30249023437,0.033126618635716636,1.0397180746332584,0.93835462716,1.09863167995,0.0022762416958277444,973.0425955691079,972.89605125112,973.17616441297,0.00754218197798516,-5.9307693776854034e-05,Lift down
-0.4950020529971591,-0.57604980468,-0.40649414062,0.0022356014683572803,0.8964177911901136,0.79748535156,0.94775390625,0.0018712021527429808,-0.040213844989886366,-0.20043945312,0.17907714843,0.00818316066177338,1.030063812530341,0.94046220099,1.10757123017,0.0013431529771986432,973.0385211537373,972.89571145468,973.14862346517,0.005917027551959314,-0.0009443743082306438,Lift down
-0.46978482332704546,-0.51867675781,-0.44372558593,0.0003989143540381894,0.9099786931773863,0.87634277343,0.96325683593,0.0005131243662514006,-0.08447820489556818,-0.17712402343,-0.00463867187,0.002234488009357816,1.028836249376591,0.99831156197,1.09464942871,0.0005080857863812863,973.0507430697086,972.99968924911,973.08783092006,0.0006349794537351237,-0.0006410140587906742,Lift down
-0.4087026311025287,-0.66296386718,-0.27404785156,0.007559403649594025,0.9611451598381608,0.78674316406,1.26086425781,0.007727424459005536,-0.019456885326666666,-0.1865234375,0.20629882812,0.012477817006908932,1.054413610893103,0.98320727493,1.35643279452,0.006953806575286587,973.1007776852089,973.02428630821,973.40735026634,0.009142264321366665,0.0023355806102171887,Lift down
-0.03020672465372095,-0.62866210937,0.88098144531,0.23322642889013523,0.7167330009949996,0.18176269531,1.14477539062,0.04915004468193915,-0.09750437181965112,-0.73803710937,0.81774902343,0.21316838577404282,0.9724492171275584,0.27060939933,1.50014183248,0.06819519277742733,972.9785265256928,972.68694576512,973.2707380388,0.03552210341091353,-0.006025492959658174,Null
-0.975030943401279,-1.47534179687,0.01818847656,0.1481321515954139,0.34574854650883713,-0.00476074218,1.41052246093,0.10615720469911577,0.14576046965639533,-0.09582519531,0.63134765625,0.02713000767009833,1.156234677216628,0.80591464682,1.54547866259,0.03312712866586407,973.0215306723547,972.93158462937,973.07433265552,0.0015224203257707455,0.0013821664914171238,Null
-1.0508286420014117,-1.32666015625,-0.85424804687,0.014133803224786664,0.22311006433505884,0.060546875,0.4814453125,0.016851383877717875,0.10155819163294118,0.01000976562,0.18298339843,0.0021943206754752058,1.0874207233640003,0.86718700168,1.36573788767,0.01481259883786733,973.1123851093986,973.04264375223,973.36324716583,0.008023140625923924,0.0015857008551779866,Null
-0.9971994799197673,-1.04089355468,-0.96350097656,0.00041368020091651236,0.16486447356186046,0.05615234375,0.22814941406,0.0013331513336712567,0.06621888626093024,-0.02795410156,0.123046875,0.0012378761689267035,1.0141333914302324,0.98309637466,1.0609233181,0.0004608633527775731,973.0669742876223,973.02281350696,973.09610062103,0.0005479996517893677,0.0007707415309040951,Null
-1.007261029407882,-1.07592773437,-0.98486328125,0.000667949379793819,0.14670984604411763,-0.28955078125,0.2919921875,0.023734003484581927,0.05027717140988235,-0.08056640625,0.09558105468,0.0012785880295904542,1.0311313866249414,1.00302501697,1.1171173127,0.000782035065574888,973.1080395619205,973.08247812284,973.15678922251,0.00019625255329313267,0.00047660116091453815,Null
0.10625930059428572,-1.27087402343,0.91528320312,0.48559830147955224,0.2706952776202381,-0.01733398437,0.71264648437,0.049213392707641725,-0.6764439174074999,-1.15234375,-0.09338378906,0.086024856095022,1.056470337420476,0.71909191457,1.41678113568,0.03993482539477518,973.1635883165842,972.96530033068,973.41829300097,0.02171741984992036,-0.004059482277016417,Lift down
-0.12764921642190477,-0.36254882812,0.04846191406,0.016942891650435485,0.6763712565064285,0.5634765625,0.84204101562,0.0048296070360724155,-0.7708929152683333,-0.93981933593,-0.55895996093,0.008315236630933908,1.046064278660238,0.92475278682,1.14664183904,0.003569857094672683,973.0515137472901,972.97076957838,973.12999754497,0.0024006058469299867,0.0006643885774384789,Lift down
-0.8358580807568675,-1.13647460937,-0.18579101562,0.08363089344610387,0.5539286050412049,0.16296386718,1.02954101562,0.057301767369838184,-0.09601933123096386,-0.69921875,0.23767089843,0.08627324388927045,1.1053001224191565,0.74225731571,1.35561693244,0.017708825509658962,973.2030712661331,972.98052786151,973.90601655651,0.07769409527091573,0.008654042971420226,Lift down
-0.34166303887048194,-0.47521972656,-0.22253417968,0.005308562885841554,0.9189482539506024,0.73303222656,1.09436035156,0.007995565117843998,0.16275355327481927,-0.17199707031,0.54931640625,0.04147997836900979,1.0151825657101203,0.77039823732,1.24795002927,0.0113534483840428,973.0310695858147,972.83015564218,973.3282765743,0.019329986198210563,-0.002645470741002381,Lift down
-0.35263731421231714,-0.53283691406,-0.2578125,0.004287172040439891,0.696265243899512,0.607421875,0.79455566406,0.0017528447246963849,0.663437261809634,0.53540039062,0.73266601562,0.002452748200828198,1.0279926252532927,0.96370974011,1.11543845265,0.0009189291358580571,973.128522367056,973.05170181945,973.18851486333,0.0012605870749365566,-0.00028747518564926195,Lift down
-0.3405776605341463,-0.36120605468,-0.31591796875,5.334192361567979e-05,0.6715073003962194,0.65490722656,0.68347167968,4.7942552252916556e-05,0.6863864805608536,0.67138671875,0.69738769531,4.415982675988744e-05,1.0188984184769512,1.0101795713,1.03290831284,3.166764717118076e-05,973.1144485042108,973.10241769974,973.12537358927,4.615124401759499e-05,-6.636355971865502e-05,Lift down
-0.34346566548731705,-0.3583984375,-0.31970214843,0.00010962620741494866,0.6743000309601219,0.6611328125,0.69311523437,6.597048050182086e-05,0.6835639767489022,0.66967773437,0.69372558593,3.4079713933972206e-05,1.0198461598836586,1.01139158312,1.02848555929,3.0203310177096612e-05,973.1126121821447,973.09346018632,973.12794828382,8.007216419551442e-05,6.467494410979605e-05,Lift down
-0.340193383485679,-0.626953125,0.05114746093,0.029477518332236153,0.7604151596229629,-0.04675292968,1.43225097656,0.11909882084519605,0.25812295042209876,-0.58618164062,0.69250488281,0.14188570344633894,0.9993571571016048,0.5509061604,1.44447820657,0.049360969398390186,973.0480043496094,972.82534539797,973.28348682742,0.011857463656546174,-0.00045449484729402975,Lift down
-0.24265166859197532,-0.31030273437,-0.13232421875,0.00297979169332278,0.7589246961776542,0.53723144531,0.89929199218,0.013364681228956005,-0.6166042751697531,-0.81298828125,-0.46716308593,0.010844532400570404,1.0194214418767902,0.86070177655,1.0950737776,0.002714129094106643,972.9952517748968,972.88100767021,973.05300320496,0.0014730304331175485,0.0013210506906396727,Lift down
-0.19828948974174998,-0.29907226562,-0.103515625,0.002974113140524289,0.75744934081675,0.68908691406,0.80859375,0.0013054039565841072,-0.625634765622,-0.66809082031,-0.5498046875,0.0011255007001402743,1.004363851068375,0.92319241642,1.05887692876,0.0010711851581352845,973.0550070774561,973.04760577373,973.06205699605,1.2048675873419911e-05,0.0001273669575601017,Lift down
-0.24587249755437499,-0.33825683593,-0.11901855468,0.003747508531090698,0.742346191402,0.52795410156,0.90173339843,0.007887852870816062,-0.6145202636692499,-0.75891113281,-0.52905273437,0.004632880830989652,1.00156667282175,0.91468094827,1.11628930458,0.002121920507961937,973.0993150177208,973.05355528646,973.21535516952,0.001963045671670249,0.0014676541875225703,Lift down
-0.22946128362075943,-0.34826660156,-0.15490722656,0.0020917483890820817,0.7483620945384809,0.71130371093,0.80383300781,0.0006029386580309778,-0.6628557036156961,-0.69555664062,-0.60949707031,0.0003451536815136486,1.0270054020108856,1.00009110899,1.06552994883,0.0003415787942869864,973.2660236577783,973.15527262191,973.37147857289,0.0044883903454072515,0.002908767953746722,Lift down
-0.223304748531875,-0.30786132812,-0.15502929687,0.0019289389416905585,0.7631774902309999,0.67016601562,0.82873535156,0.001354663017493982,-0.66003112792575,-0.70068359375,-0.61584472656,0.0005016688965042131,1.0347726443135001,0.96779025127,1.11512771203,0.0009412776668631678,973.4867055289627,973.37147857289,973.5878504459,0.004273001067622907,0.0028000166844264576,Lift down
-0.19785093649512825,-0.25939941406,-0.08703613281,0.002676115546446262,0.791327060793846,0.71533203125,0.87744140625,0.002859003995786497,-0.6543829502166665,-0.70458984375,-0.6103515625,0.0008642143665005825,1.048196543588974,0.98002311944,1.10249887398,0.0011769419255896615,973.7058563869007,973.60090878137,973.81295317035,0.0038447913570408532,0.002693511065743645,Lift down
-0.20282986797518993,-0.23986816406,-0.17700195312,0.0003822188375998079,0.8137052511841771,0.76318359375,0.8525390625,0.0006936728828551331,-0.6475969145536706,-0.6796875,-0.62707519531,0.0002327320619141824,1.0598167893002532,1.01026625185,1.10016664033,0.0007275970142671187,973.8838056520299,973.81295317035,973.92867826273,0.0013403852656765228,0.0015600487424628968,Lift down
-0.18537628956038463,-0.2109375,-0.16870117187,0.00011802235971579253,0.7981645632980767,0.77429199218,0.83117675781,0.00032630430792429037,-0.6272379557264102,-0.64758300781,-0.60302734375,0.00020875817252812367,1.0321797543465383,1.01848493796,1.05333650032,0.00010956326936385926,973.9447462524208,973.92731033889,973.95818911782,0.00010272576408662431,0.0004356647209739793,Lift down
-0.201309798597013,-0.24523925781,-0.1640625,0.0005398656783506907,0.7742951628409092,0.72814941406,0.82141113281,0.0008469878741579338,-0.6469853388753247,-0.68835449218,-0.60388183593,0.0007776400699617869,1.02987617824026,1.00666872073,1.05601921071,0.0001419472151576191,973.958657166986,973.95120471281,973.96271090639,1.0953389768367463e-05,7.602695619764162e-05,Lift down
-0.17998641576089744,-0.31030273437,-0.08178710937,0.00350459583670424,0.7958123622752563,0.76745605468,0.8173828125,0.00022784731177762131,-0.624403733468205,-0.66882324218,-0.59460449218,0.0005546003118407321,1.0294096068462824,1.00725494901,1.0535415782,0.00014221414072107527,973.9633809758745,973.95759488636,973.97422245736,2.031763643983195e-05,0.0001361630528441631,Lift down
-0.48640422077597395,-1.1982421875,-0.01147460937,0.1733469077005342,0.6423038631251947,0.05395507812,0.89245605468,0.0590280506781838,-0.18438799969402603,-0.64440917968,0.67895507812,0.2199038030345702,1.0539639173098698,0.68414408737,1.32658459585,0.018953474298111443,973.9957819461723,973.91976887278,974.18966303942,0.0034579438056958163,-1.805462198677714e-05,Lift down
-1.088610197364605,-1.30676269531,-0.86181640625,0.019989393384837417,0.17612176191973686,0.04895019531,0.38061523437,0.009348533279120153,0.13193230879697374,-0.05432128906,0.26843261718,0.0073233152687796794,1.1172697544189476,0.88091421696,1.33474282615,0.021669448280399392,973.9706106237915,973.93719320676,974.05651209112,0.0006860252747887378,0.00042600517684527033,Null
-1.0730345094314284,-1.30053710937,-0.8427734375,0.01502976647539657,0.14775580864181823,-0.06616210937,0.29089355468,0.010762167741703863,0.06790755630896102,-0.06506347656,0.1650390625,0.004804388105890031,1.0922277376898704,0.85702934056,1.31142904661,0.015282281315839988,973.9882114927562,973.96633414621,974.00963449076,0.00010355657878036555,0.0001449651601263224,Null
-0.972866151387439,-1.16809082031,-0.89172363281,0.0035086573180828345,0.2570622141730488,-0.12414550781,0.4765625,0.02373399635936987,0.13819848036963414,0.04248046875,0.30297851562,0.004450528485597997,1.029778168277317,0.94822765146,1.19515548248,0.0025429663135403,974.0203585656548,973.9438259274,974.14668080173,0.00365630922727124,-0.001567921646283646,Null
-0.9900559645403846,-1.02648925781,-0.93212890625,0.0003138774584473781,0.21447636530615385,0.16088867187,0.28588867187,0.0009155162026450003,0.07217172475586539,0.0185546875,0.17639160156,0.002152045441754381,1.017013846910577,0.95987196516,1.06830665834,0.0004558254429655404,973.9782066326139,973.94690823269,973.99954722366,0.00023550527564025132,0.0004357414832499932,Null
-0.9847582745260215,-1.01696777343,-0.9404296875,0.00019433595283681172,0.22053905199548393,0.16186523437,0.36999511718,0.002223773655183387,0.08009256341903226,0.04760742187,0.18884277343,0.0012153483763337552,1.0139417604850536,0.97789174214,1.06657392979,0.0003210989838904141,974.0044609073503,973.98945723046,974.01341943966,4.399177342941118e-05,-7.294790592147201e-05,Null
-1.0257437569709522,-1.12133789062,-0.92761230468,0.003586724945460952,0.16635277157273806,-0.00146484375,0.34936523437,0.004949446047335665,0.10103352864297621,-0.18017578125,0.22375488281,0.008632260033949795,1.0501974362234523,0.94037075788,1.14560139721,0.004129827997940912,974.0042067725883,973.99073363794,974.01868178311,4.620412487147542e-05,0.00015238307423242123,Null
-1.207623799638229,-1.69860839843,-0.435546875,0.0992048382692462,0.2669715881314583,-0.06896972656,0.72399902343,0.05320322872805473,0.006888071697083334,-0.18017578125,0.21887207031,0.01118961501845017,1.2569478586423959,0.44740076813,1.74945791397,0.11282742164484723,973.9871614008125,973.95674465657,974.03205690143,0.0005824003145256304,-0.0006141716104940621,Null
-1.213081204157959,-1.6953125,-1.03051757812,0.020079656994985085,0.2753520109185715,-0.05517578125,0.52612304687,0.03248643862683937,0.14291319554867346,-0.10888671875,0.35546875,0.010214951330442276,1.2682191841669388,1.08106599713,1.72232620381,0.02168085017486845,973.9807643792045,973.95308161958,974.00600999058,0.0002854212400655844,6.875411853314875e-05,Null
-1.1490284312814774,-1.37536621093,-0.98791503906,0.01241602907425521,0.2096196954865909,-0.0537109375,0.62133789062,0.03197829584883291,0.12202314896772727,-0.16882324218,0.31359863281,0.014370402532865052,1.191789020375341,0.99439541262,1.42288039891,0.01702575335911041,973.9876610376239,973.9737830513,974.01859757516,0.00012462039328242037,-8.139132631508627e-05,Stairs down
-1.15983276367,-1.43603515625,-0.88427734375,0.026948917930755725,0.15783386230212498,-0.1943359375,0.50830078125,0.03561108737539141,0.160530090328625,-0.044921875,0.41223144531,0.016046300471295984,1.2020279933600002,0.97587466621,1.5070628195,0.029008514231499496,973.989702639578,973.96547717085,974.02771039125,0.0003162828123644972,0.00010075379371651114,Stairs down
-1.2489131047130766,-1.67175292968,-0.86865234375,0.05493809746286181,0.24961266150557693,-0.03051757812,0.57641601562,0.03548290817518798,0.09185673640048077,-0.0947265625,0.27197265625,0.006488658269207697,1.2910791810326923,0.87256802904,1.70373631364,0.06019931199027131,974.0106312096233,973.98335375767,974.04529889345,0.00035800004951490663,0.0003840867680799065,Stairs down
-1.0469827854856384,-1.47729492187,-0.6484375,0.04378837534692691,0.19002711518978732,-0.08703613281,0.4482421875,0.016047350767177105,0.060175469578191476,-0.05859375,0.1826171875,0.003752260731876729,1.0744662556847873,0.6674321568,1.48737705227,0.04481488311888003,974.0601944879106,974.03182973451,974.08378616251,0.0002393221205688027,0.0004475907524856715,Stairs down
-1.0598805147028234,-1.64526367187,-0.68090820312,0.09052873777222255,0.23832002527176474,0.0009765625,0.50109863281,0.02533937324086668,0.018752872241294117,-0.18579101562,0.19812011718,0.012906544256188857,1.1045347197988236,0.69658572175,1.67322741382,0.08880225460033454,974.1175434659923,974.0810863614,974.15582818133,0.00032394314915028163,0.0002494941320090056,Stairs down
-1.1331363600093878,-1.64013671875,-0.67248535156,0.062475396217171755,0.23203075175081636,0.01440429687,0.5869140625,0.027302856285232303,0.016126983019693876,-0.12890625,0.16906738281,0.00896341219413022,1.1722067996513266,0.68858456677,1.66178961792,0.062398393555813544,974.1878383215846,974.14010511062,974.2264564013,0.0007198407475982444,0.0007056408948395678,Stairs down
-1.174318897477653,-1.798828125,-0.78137207031,0.07864377024842226,0.2661132812461225,-0.04711914062,0.65649414062,0.047321849262038515,0.03069320990020408,-0.109375,0.24243164062,0.007747644021558275,1.2251772189778571,0.78191947862,1.82073842742,0.08291896098127129,974.2621879803518,974.21841966169,974.30419523478,0.0008380661480270581,0.0007827176414123431,Stairs down
-1.1375260786539771,-1.60900878906,-0.55920410156,0.05953288058888702,0.17344804243477274,-0.08459472656,0.47302246093,0.03489949423318913,0.062051946464772724,-0.09252929687,0.20422363281,0.006355120094522814,1.168783150541932,0.56293981629,1.63674534341,0.062195139533592146,974.3352737131619,974.31019509085,974.36158580273,0.00020461135228556603,0.0003237884969611397,Stairs down
-1.1814969219712657,-1.64526367187,-0.67724609375,0.10276099839237635,0.27590826493025317,-0.11267089843,0.54284667968,0.036420227324491544,0.14194923110822788,-0.02807617187,0.3369140625,0.009596982097049034,1.243332811389873,0.71970517503,1.70971924594,0.09442362675890188,974.3851575811939,974.34767480677,974.44743290367,0.0005275793886804434,0.0006117400055007097,Stairs down
-1.1520764160127002,-1.36828613281,-0.91333007812,0.015107450369277051,0.24596069335719994,-0.07763671875,0.65979003906,0.04487572989496415,0.047076416013700016,-0.09826660156,0.17028808593,0.005841675242474241,1.1989442026866,0.92152310783,1.42677912869,0.01787103610536896,974.431228964017,974.40113934306,974.45573162078,0.00013228268234713832,0.00021632964216290024,Stairs down
-0.9356991482739175,-1.44592285156,0.55676269531,0.2789941759240385,0.30224861065948455,0.00073242187,1.00268554687,0.078836364354555,-0.11438491664041238,-0.66320800781,0.10827636718,0.0510330687315959,1.1586977209140206,0.71003801433,1.46146752947,0.04247704739004205,974.4410324545336,974.40979580353,974.51249367173,0.0006035242517524514,0.0005349390107044822,Stairs down
-0.3689329651577011,-1.701171875,0.85913085937,0.9710517508668797,0.16275199802298854,-0.876953125,0.89208984375,0.22522050851195088,0.005045572917471265,-0.267578125,0.2861328125,0.02535511160452769,1.1219232819740228,0.62630758593,1.86798030988,0.11279553022070661,974.3901224732588,974.34086622465,974.50550722523,0.002539151135589202,-0.0011329884482551016,Stairs down
-1.158837622335055,-1.45617675781,-0.88171386718,0.023915415744167598,0.21234332073978024,-0.1005859375,0.61120605468,0.04712145539116737,0.13701386503824176,-0.07360839843,0.29077148437,0.010109415009783058,1.2074213973763737,0.88744899744,1.46095362567,0.02947920519416387,974.4182740292484,974.39004975167,974.44829948245,0.0002643587156315461,0.00032449139187300095,Stairs down
-1.1037106981416664,-1.66040039062,-0.70922851562,0.08001293352904879,0.14157284007166668,-0.13549804687,0.39099121093,0.02468948056601049,0.02452775543784314,-0.13098144531,0.17956542968,0.006373904795367541,1.1285541089575493,0.71188414083,1.67010920405,0.07591904794633383,974.454390008873,974.43194146106,974.52728430765,0.0006062475511338353,0.00040489417698470217,Stairs down
-1.1803263346316668,-1.66833496093,-0.78771972656,0.06903676740547782,0.20235188801955553,-0.35473632812,0.57690429687,0.06558345509216047,0.07098524305266667,-0.10412597656,0.20153808593,0.005693136053083621,1.227279396600889,0.79301285268,1.73054930454,0.07250061383135854,974.5163368310922,974.46527551514,974.55208144386,0.0006404794283962233,0.0007918540941101787,Stairs down
-1.1973831741866667,-1.75524902343,-0.69494628906,0.10491579713113364,0.2274305555523457,-0.35473632812,0.59716796875,0.051644513010489224,0.05201853057345679,-0.1904296875,0.27478027343,0.011523097660661012,1.2473953944676546,0.69710372199,1.76617025716,0.09939721086730471,974.5848121780183,974.54551027076,974.6571843125,0.0008947720955290653,0.0008006448806186139,Stairs down
-1.1749942555108233,-1.78601074218,-0.72021484375,0.08641027180363395,0.2345372817071765,-0.01171875,0.58410644531,0.035971689574466996,0.01081542968682353,-0.19580078125,0.19384765625,0.01187690993109258,1.216721022178706,0.72474264065,1.8135597896,0.08905320464031063,974.6654908738102,974.60368577716,974.70697248483,0.0006107691123355756,0.00031524839859216786,Stairs down
-0.6715182702486406,-1.68273925781,0.11560058593,0.3600961167674338,0.5033302677453396,0.0458984375,1.10766601562,0.08705129501226719,-0.19089545092466015,-0.69018554687,0.17639160156,0.08379633658756706,1.0958074532878639,0.72450754318,1.71329288261,0.06635845575429883,974.7459116324106,974.67643793571,974.84019388336,0.0016625163866989374,0.00098266477223883,Stairs down
0.06623110563826087,-0.05932617187,0.25695800781,0.008127351482657606,0.9746624490456522,0.50695800781,1.46240234375,0.07173177053151421,-0.4092433763546739,-0.74133300781,-0.23266601562,0.016351792995291686,1.0693914541802176,0.55780107769,1.56002559238,0.0741802560313945,974.8242374135403,974.71807631736,975.09379163605,0.006789128747998616,-0.00042487906080077123,Stairs down
0.01887089373012048,-0.13708496093,0.10998535156,0.004092672261959316,0.9780567582796386,0.7021484375,1.38122558593,0.030889444812727193,-0.10151102456566265,-0.43298339843,0.31652832031,0.04452273799051362,1.0093429979455422,0.71251269212,1.38958610346,0.027358924495112118,974.8738174279935,974.79093116004,974.95650227583,0.003064243995877803,0.0018469667704096278,Stairs down
0.0864664713512745,-0.05871582031,0.19995117187,0.005346427262613779,0.8856225107187253,0.48840332031,1.45166015625,0.06195872932985839,-0.3811454024925488,-0.73889160156,-0.0537109375,0.039657648688037436,0.989722890307157,0.52479635898,1.46635007593,0.06406635222250844,974.9249467361184,974.8150491929,975.06476830986,0.005501401719895647,8.723593385181726e-05,Null
0.08682505289666666,-0.24633789062,0.29638671875,0.022500616461735696,0.9691200256304165,0.77673339843,1.15307617187,0.009802697976310799,-0.3165512084930208,-0.51892089843,-0.11877441406,0.013210807760050706,1.0404291673264583,0.81069511988,1.20703087964,0.009962119751708295,974.9655298500803,974.89807130529,975.0446137802,0.0013814985239465336,0.0010936775202875359,Null
0.02845799645465117,-0.26953125,0.27294921875,0.014116207920456899,0.9765923078623253,0.72302246093,1.35119628906,0.023799437963621925,-0.2988664493976745,-0.50903320312,-0.10009765625,0.01307591945315928,1.0376407097697675,0.83621800253,1.36055810459,0.017770580154248674,975.0006146677017,974.94937455077,975.03617916789,0.000513835961923494,-3.7339795714156275e-06,Null
-0.5958777318991137,-1.15588378906,-0.11987304687,0.13781104931575552,0.7008489294850632,0.29187011718,0.99987792968,0.03209736753633988,0.008449119857468355,-0.27294921875,0.27697753906,0.020264243723621424,1.0009304988336707,0.6711025233,1.30518752926,0.0326476910860885,975.1200379385275,974.94756711445,975.38495710003,0.026005244845790598,0.006008558253884885,Null
-0.4236649733282692,-0.61633300781,-0.29797363281,0.00594921123936122,0.8904853233883655,0.81140136718,1.05358886718,0.003991219724975657,0.16134760929884615,-0.15246582031,0.45263671875,0.03285880444473368,1.0188373344713462,0.90812965834,1.13188762398,0.002875006302101557,975.0058502085697,974.93290200812,975.18645795519,0.002925599099270204,0.0006641694334122329,Null
-0.3743857525729787,-0.45129394531,-0.30639648437,0.0015729920364379011,0.7887352476690423,0.71020507812,0.91064453125,0.0029056284418274253,0.5312616875802126,0.29711914062,0.75268554687,0.011165585911651366,1.0284009119859574,0.942720414,1.17463334023,0.002401857903024551,975.0353378148593,974.91991303129,975.10801028956,0.0018996971602961669,-0.00029012145994456476,Null
-0.3824651808930952,-0.54833984375,-0.24670410156,0.00751450962837298,0.7375226701976191,0.58422851562,1.19067382812,0.021864011729834317,0.6316644577720237,0.31848144531,0.76550292968,0.012656063602252571,1.0576412003789284,0.94671005002,1.42992020365,0.012294923496549684,975.0806328243139,974.92098115834,975.22897806373,0.00677160187774913,-0.0006620228854941559,Null
-0.22355274487290314,-0.69018554687,0.7392578125,0.14219465154953878,0.8348690566167745,-0.06384277343,1.51501464843,0.15912619157045885,-0.3245600218389247,-0.541015625,0.09338378906,0.023004680081247366,1.0432028907504298,0.59989444032,1.65470296205,0.08580994753439387,974.9716665429555,974.71395795116,975.44073009387,0.044954086663540005,-0.005566222029415886,Stairs up
-0.27496210734093746,-1.63671875,0.88061523437,0.8593591777824918,0.10683059692427083,-0.55041503906,0.82507324218,0.16418813665246013,-0.008764902753229166,-0.51708984375,0.25354003906,0.06243346635144923,1.032563160796875,0.19301806294,1.75895779492,0.09658161891524703,974.947506891108,974.82547941208,975.06171654434,0.003777984455294159,0.001676186823486088,Stairs up
-1.1134734756616091,-1.42053222656,-0.74633789062,0.027111018685694443,0.13684362652459767,-0.14221191406,0.439453125,0.01861005015693146,0.10414000763103447,-0.12341308593,0.2607421875,0.011535472448461691,1.1397761018391954,0.81485814148,1.42968188216,0.02721618785917319,975.0345083996497,975.00083231825,975.05789763042,0.0001781382778764653,3.963679585532621e-05,Stairs up
-1.1980413122977214,-1.37780761718,-0.92077636718,0.020100114069701084,0.14547845381544305,-0.09912109375,0.48400878906,0.03224485967900807,0.044526305379620254,-0.18786621093,0.25170898437,0.01855834715350624,1.2262004633383545,0.94047421897,1.46038127959,0.025206866853206993,974.9902415664752,974.95239832143,975.03809261898,0.0005575446131460667,-0.0009578105295729084,Stairs up
-1.3673693338990625,-1.72277832031,-1.07495117187,0.031503411655337564,0.14672215779416667,-0.29675292968,0.54089355468,0.06030804683195517,0.12678909301677083,-0.1552734375,0.54113769531,0.04043734381858594,1.4119987350670833,1.15328660313,1.80618607447,0.033875994078048775,974.9070123711277,974.84735255159,974.96999172288,0.0013116364279543997,-0.0009696355041335496,Stairs up
-0.4177451685845263,-1.73962402343,1.23107910156,1.0891194554793762,0.3573319284499999,-0.15344238281,0.86840820312,0.062145730031572026,0.04517372532852632,-0.46276855468,0.78356933593,0.15006235774628307,1.1967873453757896,0.57155481661,1.97740971648,0.16126473044969564,974.810463517991,974.70421683902,974.94645257876,0.005107300072811605,-0.0020012176573020045,Stairs up
-0.8285891510699998,-1.92651367187,1.01794433593,0.7181907256943191,0.2135790447843023,-0.33361816406,0.88781738281,0.11268957990286485,0.0212175236177907,-0.49975585937,0.37365722656,0.05924006297540893,1.2029136882098839,0.3586591557,2.14815929345,0.16734078649248868,974.726585979069,974.71251971691,974.76783567439,0.00016886521368782961,5.002682659705784e-05,Stairs up
-1.1977496969250574,-1.38952636718,-0.9052734375,0.017190624963376904,0.09166498293574711,-0.27575683593,0.43237304687,0.027221665207361138,0.07086392106471263,-0.07885742187,0.21350097656,0.008228019524751462,1.2175421163364368,0.93291638752,1.41683022055,0.01786023455426484,974.6895768685108,974.6522057494,974.72691110021,0.0005270637029895562,-0.0006757918601035257,Stairs up
-1.1689270019482998,-1.42663574218,-0.9072265625,0.02470751042760955,0.1592370605448,-0.07116699218,0.43212890625,0.02326396542766706,0.11093017577919997,-0.15588378906,0.34301757812,0.013857678517804785,1.1993722052853,0.91813201264,1.46074745655,0.027039855809779717,974.6180795892674,974.56111915546,974.66124187135,0.0008287864727646711,-0.0008116905359087933,Stairs up
-0.8704142252567777,-1.38024902343,0.14196777343,0.19925853544751834,0.3980957031216666,0.08911132812,0.99829101562,0.0653363764957955,-0.1707750108488889,-0.77282714843,0.25280761718,0.08424454943852933,1.1214039004157776,0.69870250973,1.39982745818,0.03304918941587589,974.5758603565364,974.48210840166,974.63439921864,0.0009205630506695999,-0.00018883808368890526,Stairs up
0.21090545654025,0.0146484375,0.38232421875,0.009439588250891662,0.792849731442375,0.53991699218,1.0859375,0.028002429602866037,0.5826385498019999,-0.15319824218,0.96899414062,0.05836732703420536,1.0311439141325,0.74155143787,1.38757737133,0.04446931077030145,974.4765017896103,974.43436933402,974.53770113424,0.0013510994298714762,-0.001270580689428818,Stairs up
-0.4993178423721175,-1.3994140625,0.52258300781,0.5699265600255017,0.5860509535807058,0.06701660156,0.92895507812,0.05112703420912243,0.2651381548676471,0.00390625,0.5810546875,0.023665495391972,1.116673882287647,0.72269485989,1.43357633949,0.05387974823637877,974.440541363477,974.42112011726,974.46154599471,0.0001298148320674749,0.00025081627519976196,Stairs up
-0.6896911621080001,-1.8427734375,0.93908691406,0.7330528649299158,0.27662719726259993,-0.04248046875,0.91760253906,0.07683755793179754,-0.0259204101568,-0.51892089843,0.41516113281,0.08437134798568549,1.1376348878435998,0.40515381299,2.09829631466,0.14542867486768746,974.4354596245759,974.41299125744,974.46120666129,0.00019148672273438066,-0.00016506281742304313,Stairs up
-0.4310601128455556,-1.62023925781,1.03625488281,0.9425436031594152,0.2937703450497778,-0.04248046875,0.869140625,0.0865056283851311,-0.117667643229,-0.45825195312,0.21520996093,0.06707541587457402,1.1312372891562221,0.580147967,1.77279105987,0.09122075501753996,974.4046925388097,974.36431674282,974.43888069131,0.0003642336531721198,0.0005073533149627077,Stairs up
-1.2344413097949385,-1.55639648437,-0.99157714843,0.024896435085363648,0.16330295138617287,-0.37072753906,0.42504882812,0.04815231039975109,0.045297128182098766,-0.42590332031,0.59606933593,0.06773347585441138,1.2889898715744446,1.02391020217,1.61067938489,0.030490740175968138,974.4347144136407,974.4010083647,974.49771672596,0.0005254052190366935,-0.00038075307347009606,Stairs up
-1.1964453124958998,-1.37036132812,-0.98620605468,0.009917245995013514,0.1385302734363,-0.25524902343,0.42028808593,0.032795334318843274,0.0794824218733,-0.09594726562,0.23291015625,0.008147157285728963,1.2233872895936002,0.99099941157,1.39734281817,0.01077187648756789,974.4353446715202,974.40951019459,974.466723658,0.00020044681074720726,-8.106749791753284e-05,Stairs up
-1.1736917698595744,-1.49816894531,-0.87609863281,0.03362429297634124,0.11775369846840425,-0.39514160156,0.4853515625,0.05068498780919539,0.11488634474478719,-0.12951660156,0.29125976562,0.01821769275809651,1.2138720386554251,0.88319317028,1.49896591026,0.032918305920095835,974.4088738485854,974.36262612932,974.45928878215,0.0006694420762529692,-0.000471688697031389,Stairs up
-1.0700857979883334,-1.41528320312,-0.77600097656,0.032407042184091205,0.14803495860916668,-0.07678222656,0.28442382812,0.013703486925929981,0.10549926757607146,-0.1279296875,0.39965820312,0.019676974693517296,1.1007917579816664,0.78169640185,1.41568367059,0.03176807565344295,974.3651570677466,974.3424527963,974.44393733285,0.000754025501477922,-0.00037871084812373794,Stairs up
-1.1014895748742854,-1.38647460937,-0.83459472656,0.019408088083019387,0.16602513697077925,-0.12097167968,0.57531738281,0.04161110628735478,0.10439706777415585,-0.14660644531,0.32543945312,0.015913085177505785,1.14260498747013,0.86875579543,1.40881161499,0.023887625401889944,974.3201080249952,974.2747679964,974.36362315535,0.0006366709707528421,-0.0008998779877589298,Stairs up
-1.1023377763437232,-1.2900390625,-0.92016601562,0.01362657633765971,0.15368262757457446,-0.17736816406,0.50256347656,0.028446523556669517,0.10384937042617023,-0.03210449218,0.23266601562,0.005336745828408232,1.132011217387447,0.93725279886,1.37167725278,0.015169077443165454,974.2442784491514,974.19759178729,974.28093115704,0.0005082445884516938,-0.0006358384031142167,Stairs up
-1.1138432820598958,-1.43041992187,-0.91589355468,0.015259304322389686,0.18227640787437502,-0.12963867187,0.37585449218,0.021466185204279235,0.09834925333468748,-0.10778808593,0.23010253906,0.01133584960292479,1.146958789318646,0.92342219396,1.44530051973,0.015754466298721573,974.1811659088962,974.14906104518,974.22358564493,0.00043163095099406606,-0.0006344748521547507,Stairs up
-1.0689711296666666,-1.43041992187,-0.88220214843,0.02263288875454053,0.11421431617908052,-0.20532226562,0.34899902343,0.025055871097681297,-0.013026445762068966,-0.22265625,0.18872070312,0.014502270937456712,1.0926082707502298,0.89746069674,1.44530051973,0.023871618833598406,974.1202446314238,974.0953999568,974.16687688614,0.00037889083073299,-0.0006007582930372983,Stairs up
-1.1284767433408642,-1.32165527343,-0.86535644531,0.018833055015998613,0.12571433738074073,-0.20825195312,0.28491210937,0.015651308785940506,0.06369809751012345,-0.15502929687,0.25524902343,0.015956429805197774,1.1510807508362964,0.89554550108,1.3307255249,0.01837938126703272,974.0684575895789,974.03410888351,974.11125588974,0.0005816320817768862,-0.0006944037012072459,Stairs up
-1.0439927184431068,-1.396484375,-0.81628417968,0.022187375038944065,0.11049141003961167,-0.11267089843,0.22668457031,0.00708517239573978,0.013111299682621353,-0.15075683593,0.32104492187,0.02070112626733921,1.063393489922913,0.83529783891,1.40633983854,0.021189555870409583,974.0226197321779,973.98071952505,974.08350854556,0.000569910004756366,-0.0005748787292133487,Stairs up
-1.0714376698334782,-1.52819824218,0.02575683593,0.06794261238918062,0.26702217433543474,-0.11853027343,0.77612304687,0.05367685424173068,0.14170373004271739,-0.11926269531,0.43518066406,0.027166358152292378,1.1540270794308694,0.56960769108,1.65070926818,0.05535120000904363,973.9888301212048,973.9521445076,974.03021273495,0.00043120238305992714,-5.511254705306863e-05,Stairs up
0.845066300353012,0.02575683593,1.13012695312,0.07516121284588355,0.19436682275734943,-0.02429199218,0.56896972656,0.021657092121431205,-0.25594026496228917,-0.41625976562,-0.00793457031,0.011863660985856155,0.9474714924690362,0.56740099931,1.16187101852,0.027421629723298323,973.945700092704,973.92585169511,973.96384797429,0.00015522349979056466,0.00030310679081856225,Stairs up
-0.8701298154610344,-1.52478027343,0.93908691406,0.48605552247384126,0.31673177082942533,-0.03662109375,1.02905273437,0.0914982407128893,-0.011641579112873564,-0.2763671875,0.24499511718,0.030782740168827524,1.1645554752690803,0.43220450391,1.72299702186,0.10392970586258655,973.962966234106,973.93526092177,973.97683557318,0.00010878716105594152,0.00020197166422699001,Stairs up
-1.2036059570278999,-1.43444824218,-0.85229492187,0.028869927477272298,0.20797607421550005,-0.30212402343,0.58874511718,0.06012273033909188,0.04252441406260001,-0.29455566406,0.30419921875,0.024046549146022677,1.2552252125346,0.85841577922,1.46264374385,0.03035167044586659,973.9695576881558,973.95707823489,973.99971006033,9.204406232652347e-05,-3.9097868980466045e-06,Stairs up
-1.2213079279077272,-1.49658203125,-1.05126953125,0.01466562107691674,0.19719210537818183,-0.22229003906,0.47717285156,0.044118530975075905,0.11628306995477274,-0.22180175781,0.2666015625,0.010914785983801257,1.2639620022252274,1.07412029161,1.53474162474,0.01548243185582138,973.9736004789611,973.95437863838,974.02112274977,0.00013366461798314954,-9.242341508181039e-05,Stairs up
-1.1925305025048147,-1.40161132812,-0.90649414062,0.024961981816630376,0.14871931664617286,-0.10314941406,0.46215820312,0.031002325430615253,0.08559088059197531,-0.18713378906,0.3076171875,0.020290206914875604,1.225121172183827,0.93714961815,1.4592059885,0.026287990348404282,973.9441777512176,973.9055662451,973.99437429128,0.0004652886864814196,-0.0005772801482150863,Stairs up
-1.261547612205098,-1.45983886718,-1.06579589843,0.01226402635003943,0.09607651654147058,-0.36145019531,0.41418457031,0.03942873065454627,0.13191133386862744,-0.17626953125,0.41650390625,0.030291833512250677,1.298377337123431,1.11421449595,1.51073951449,0.01366475353087811,973.8903779134511,973.85852437151,973.94162895254,0.000623910279565091,-0.00048014422157267156,Stairs up
-1.2056517242065592,-1.43444824218,-1.04296875,0.00954665884537141,0.16367003738086022,-0.25378417968,0.53063964843,0.0511991015094353,0.1568734774003226,-0.06665039062,0.39147949218,0.015954184940341308,1.25283133004,1.07440819196,1.46687577768,0.01140475406460097,973.8385751799768,973.79253312967,973.89415834442,0.0006078352303702357,-0.000774395289675823,Stairs up
-1.1676348950450601,-1.33447265625,-1.01208496093,0.008374341044841783,0.12415727362397593,-0.29345703125,0.51965332031,0.038573676715736076,0.06916386247867469,-0.09448242187,0.21655273437,0.005051189819205069,1.1936672429913253,1.02178642081,1.38512220755,0.010224325346428267,973.7761753088157,973.7314051248,973.81809736275,0.0006083680213451476,-0.0007989574906699637,Stairs up
-1.1330328606902595,-1.39770507812,-0.78991699218,0.02744304625551877,0.11504889153636363,-0.22644042968,0.47790527343,0.02721937338292203,0.04943689123220781,-0.22387695312,0.22082519531,0.013442074974689607,1.1568749184194802,0.80034578159,1.41616989347,0.028676584018742873,973.7164541128085,973.68233569948,973.75478044105,0.0004519960080547854,-0.0005782938625814798,Stairs up
-1.0521754844472548,-1.3466796875,-0.82678222656,0.019341800011376028,0.11936561733901964,-0.13159179687,0.33203125,0.016034180794375758,0.036671357994411756,-0.22387695312,0.23095703125,0.013969242086281168,1.0729449856400979,0.84489142953,1.3858515916,0.020517848537756355,973.6425596913372,973.59733832342,973.72848395331,0.0010087554208637324,-0.0005350489598955137,Stairs up
-1.1978300361182794,-1.51049804687,-0.92712402343,0.021754552460702965,0.10342243153344084,-0.20544433593,0.52355957031,0.03359763984949188,0.12364016296913978,-0.11889648437,0.40600585937,0.022840174510806728,1.230987390576989,0.95753130402,1.54125292537,0.023049360176122396,973.5967049760447,973.56461345353,973.63786532936,0.0004716893813681054,-0.000436597507858274,Stairs up
-1.0448710123655953,-1.32604980468,-0.83129882812,0.017843654072326343,0.1801045735640476,-0.13427734375,0.37329101562,0.01244486570648273,0.05919247581749999,-0.16418457031,0.24584960937,0.00977443486012541,1.0731069171295236,0.87860574459,1.33790676914,0.01591384878458477,973.5446592629623,973.51831426365,973.60642202082,0.0007239093497208343,-0.0006089620639765838,Null
-1.1309801184568478,-1.32019042968,-0.77746582031,0.017938051411768494,0.1654119076898913,-0.06457519531,0.47290039062,0.022036466416205443,0.19196485436195657,-0.01159667968,0.4833984375,0.019000725180808687,1.1752538966672827,0.79835017486,1.39507339795,0.020664735679357216,973.5267205100245,973.50856845029,973.58487272671,0.0002963522584286241,-0.00010255979973545827,Null
-0.3004565681373196,-1.20104980468,0.93737792968,0.7716204837152084,0.25518232522432993,-0.6982421875,0.93225097656,0.16041177511650087,-0.1800876892683505,-0.4228515625,0.12841796875,0.01982598184984291,1.041507152702165,0.63714297619,1.43765897493,0.045601987856989934,973.5167664565906,973.4442842,973.57504588391,0.0013663934746198077,-0.0012173547478895397,Null
0.0038105357788636315,-0.58129882812,0.90075683593,0.1883115941211694,0.5960637872843182,-0.75817871093,1.16528320312,0.29022166369271624,-0.4946705211261364,-0.93188476562,0.18188476562,0.09974641460223466,1.07552241682875,0.77387060696,1.35138562318,0.015137341817555343,973.491257222959,973.36118647904,973.91977324792,0.011162592488616528,-0.0007159241917118951,Null
-0.1892074391781013,-0.31677246093,-0.03002929687,0.005796646267007622,0.8805117063843038,0.81469726562,0.96997070312,0.0011176444355315894,-0.49008294600164526,-0.59106445312,-0.42626953125,0.001005384484617235,1.0275221271436705,0.94741229465,1.13635149001,0.0015937855088494824,973.5062092559145,973.48781136319,973.51755696019,0.00011369486550963964,-0.0003288829442327048,Null
-0.1884316630708046,-0.3271484375,-0.07946777343,0.004124815420739604,0.8948679956858621,0.85754394531,0.9482421875,0.0005324014970982231,-0.45952036188655176,-0.51123046875,-0.39135742187,0.0007813646891851279,1.0259513670419536,0.99406500268,1.0660076025,0.0002570000016184727,973.5037160895854,973.4905714162,973.52269807331,7.549998626264228e-05,8.017961794170039e-07,Null
-0.10443237304520002,-0.25146484375,0.14135742187,0.010055360617554469,0.9157141113244998,0.62243652343,1.14758300781,0.011852911763447644,-0.4054846191361999,-0.58764648437,-0.03039550781,0.02598981600066409,1.0263070667344,0.65122113742,1.19910468885,0.008049639237311172,973.5207630804238,973.49617826984,973.58307403065,0.0004986143920472059,0.0005637163862014618,Null
-1.0590271681851686,-1.64489746093,0.14135742187,0.15511692688165007,0.33195444171123595,-0.11071777343,0.6474609375,0.054009164727513895,0.17672626623741575,-0.16442871093,0.45788574218,0.025041329090231282,1.1924306802722473,0.53311115911,1.78795858749,0.07343497845204415,973.5018271562354,973.41937535885,973.57917004168,0.002113255989937148,0.0001280161573589284,Stairs down
-1.1905502319293748,-1.88989257812,-0.67712402343,0.13021339362637113,0.1874176025355,-0.02795410156,0.53894042968,0.02671661474069964,0.12739105224312502,-0.0234375,0.4560546875,0.005450576805477685,1.2244320327581248,0.67943306249,1.91169749919,0.13152477741137852,973.5281403511392,973.49537384657,973.55650194161,0.00044887069651061733,0.0006277323993416367,Stairs down
-1.067996754362157,-1.69189453125,0.08288574218,0.22815325633555053,0.12839642692911765,-0.62036132812,0.61608886718,0.1007652980278311,0.06870763441892154,-0.94567871093,0.63061523437,0.11227169142811497,1.2234996496055879,0.48559409208,1.74838408728,0.10511215563834281,973.5896663355636,973.54299609616,973.66128778446,0.0008228846956630716,0.0005187895987855735,Stairs down
-0.8313132665468815,-1.57189941406,0.22338867187,0.36774176742688686,-0.0033772786461290323,-0.58325195312,0.51489257812,0.11154411873314318,-0.0569779590895699,-0.93395996093,0.5234375,0.129980992167184,1.0860248878192476,0.5841003864,1.61387166725,0.11888352302704411,973.6086562977588,973.57332277503,973.64314672225,0.00044575128066600805,0.0006249238244335451,Stairs down
-1.1961829775810715,-1.74780273437,-0.63952636718,0.11065499350982466,0.2684849330321429,-0.02014160156,0.54797363281,0.026803704731514492,0.2146519252185715,0.03063964843,0.36682128906,0.010536717465857447,1.258386251157381,0.64026159353,1.77667730643,0.11305684739411125,973.7054673452405,973.64314672225,973.75218902432,0.0007880680504153461,0.0010223130726855379,Stairs down
-0.48989546926407906,-1.95825195312,1.26684570312,1.0148793171195303,0.3171418842477632,-0.07873535156,0.66589355468,0.047214969385410456,-0.09618016293171054,-0.53381347656,0.36608886718,0.08124836332545401,1.1568180635167105,0.55409200698,2.0059705293,0.14176310887000043,973.7653126654586,973.73354310396,973.85395476467,0.0008390404563566357,2.0888778310651165e-05,Stairs down
0.6928877396981817,0.36462402343,1.015625,0.03495140294300846,-0.36610412597386366,-0.84216308593,0.5361328125,0.09029974533518194,-0.5032723166690909,-0.84777832031,-0.21081542968,0.032390164869123536,0.979548897792159,0.59891828043,1.45417490838,0.06447524021162644,973.8042193192196,973.77045082358,973.85006204126,0.000506178373148445,0.0004379766379512984,Stairs down
-0.9864760890120202,-1.85339355468,0.623046875,0.32439286771793435,0.3040808475342424,0.01354980468,0.57934570312,0.03082890153360592,0.11744890309141416,-0.21081542968,0.44506835937,0.02421138785555261,1.146155532569091,0.57006093577,1.87132294431,0.14276454105389325,973.879519922875,973.80734784556,973.94853086635,0.0012909397457398933,0.0011127684788535357,Stairs down
-1.2600783444484271,-1.6826171875,-0.72314453125,0.08621559493684851,0.21022976650123598,-0.04223632812,0.55908203125,0.03595904436263524,0.16114652826202247,-0.033203125,0.44506835937,0.020065295573531258,1.30674509719,0.72746057279,1.74936327249,0.09205550832259002,973.9515320451471,973.90579341394,974.06115252286,0.0012093671799359728,0.0005825135223322381,Stairs down
-1.1350700472562962,-1.48718261718,-0.77600097656,0.030539627046403933,0.2619960455211111,-0.00561523437,0.50817871093,0.01859541237795168,0.22806954089197526,0.06408691406,0.45483398437,0.011979838520495447,1.1972863864107408,0.79272557744,1.56432109566,0.03328597884125568,973.9735212134785,973.93534801818,974.01627766522,0.00021466545784872378,0.00022350312915724534,Stairs down
-0.4864697265588998,-1.17028808593,-0.17749023437,0.048001368154456645,0.7328625488243997,0.23828125,0.99255371093,0.024687249219531304,0.0742138671865,-0.45690917968,0.90368652343,0.20617584806165276,1.0215877243096998,0.82541931542,1.25661691863,0.011800354275149489,974.126841511887,973.77816703045,974.63044681727,0.06147009152680799,-0.005702906416520139,Stairs down
-0.3510430518575532,-0.47619628906,-0.23107910156,0.004716416179496069,0.45509111120053175,0.26086425781,0.69921875,0.015208073350847309,0.8590529421508507,0.6181640625,0.97351074218,0.006949047520262381,1.0450734666394683,0.91586375655,1.16396143173,0.0033868075014055125,973.9990800121548,973.74665433834,974.20339986829,0.01608834811061067,-0.0033869846208375337,Null
-0.36684454054690474,-0.47094726562,-0.22778320312,0.005217946608381566,0.8014235723544048,0.36450195312,1.06384277343,0.035165292713470075,0.37522379556964286,-0.3427734375,0.91491699218,0.09518339146727896,1.0218478167472622,0.85753734219,1.18830737474,0.0075168237528762975,973.9205254159342,973.74665433834,974.10275122103,0.007797422475374955,0.003136118474045072,Null
-0.5703260633640741,-0.69274902343,-0.37951660156,0.0056688148528156465,0.8070565682829629,0.58642578125,0.98986816406,0.009762236765581928,-0.26139775028555556,-0.52160644531,-0.17724609375,0.00813166441191588,1.0320998865555555,0.90761417448,1.16549726047,0.003019831159243573,973.8695097866482,973.80176348691,973.96015504638,0.0018775983418608797,0.001198129968763551,Null
-0.5976147697931067,-0.82751464843,-0.45068359375,0.00715203950017233,0.8300046457797087,0.68298339843,0.92736816406,0.0034101191514070016,-0.07850543272029127,-0.18322753906,0.12780761718,0.009544914638979636,1.035001740292233,0.948054687,1.13081002004,0.0009062835054634288,973.9779403423854,973.9544666161,974.01660162979,0.0003002538461776558,0.0005358848983188225,Null
-0.6425482855875555,-0.83984375,-0.52258300781,0.007511803042688175,0.8031494140588888,0.5927734375,1.08935546875,0.012599793980706526,-0.045083279078,-0.22961425781,0.24182128906,0.014142543353838752,1.0416159902704445,0.91674820941,1.27372173343,0.00895899468184925,974.0165782475349,973.96438708681,974.22059120236,0.0045431006358241455,0.0012346684819351675,Null
-0.6594416920693902,-0.83166503906,-0.44226074218,0.008164118514479637,0.7252316358568291,0.50415039062,0.96325683593,0.014899986618018966,0.18474597465304876,-0.01733398437,0.29357910156,0.006912379388928421,1.009835338248049,0.85339778898,1.11405060268,0.004858098406098512,974.046571428064,973.7786819491,974.21475240679,0.006064465346314272,-0.001728413344556079,Null
-1.0036633549863265,-1.07922363281,-0.83166503906,0.0016353368436159556,0.18671401665714282,0.07629394531,0.50415039062,0.00854511115556056,0.16051249600938777,-0.04162597656,0.29357910156,0.00580417485378833,1.0406812855208165,0.99311902779,1.09014277987,0.0007784351752453114,973.9267043048903,973.7786819491,973.99357396882,0.0029949491911865425,0.001759041059405595,Null
-0.7077753594558511,-1.14013671875,0.13403320312,0.18030987730068104,0.5015232816611701,0.12426757812,1.13708496093,0.12924330680834328,-0.02353749376755319,-0.4384765625,0.17858886718,0.03430937469633912,1.041014166457021,0.78865173714,1.17012626505,0.00962188733161466,974.0033233350789,973.96832579913,974.09201368645,0.001073271891969653,-5.10976528136225e-05,Null
0.013062959558588235,-0.25158691406,0.2958984375,0.023691554683846986,0.9710678998117646,0.63305664062,1.39514160156,0.050237291446510846,-0.2379451976068235,-0.50695800781,-0.0419921875,0.015645958095280816,1.0199951203804707,0.66228472657,1.4290329159,0.04846250858123199,973.9903136722027,973.90264067939,974.10437503889,0.0033581976021479928,-0.0006378441534108078,Null
0.05180632762282052,-0.18566894531,0.26843261718,0.012729350753410884,1.0046214568271792,0.71362304687,1.33312988281,0.03719267470707028,-0.03302158453397436,-0.498046875,0.27502441406,0.02403663417791284,1.0228186453470514,0.71369541674,1.35092358564,0.040409148574927674,973.9524161249723,973.91387624441,974.0364516791,0.0010647599252503412,-0.0001777422364673616,Null
0.0215600585937,-0.70788574218,0.58959960937,0.09740130551326372,0.9815893554655001,0.525390625,1.66857910156,0.07648276722206104,-0.23941528319869998,-0.552734375,-0.04370117187,0.021408345451314634,1.0713489947109998,0.71429249087,1.69809380048,0.06752828510715435,973.9898582774708,973.92483663999,974.19524928299,0.002014883763384336,2.049075178264027e-05,Null
0.3418579101534042,-0.74169921875,0.60266113281,0.11222602274675937,0.5787950880946808,0.31530761718,0.89660644531,0.021511788248129122,-0.6348305560134042,-0.8720703125,-0.38659667968,0.013495502517561483,0.9915655208982982,0.77551735483,1.3526586817,0.018535315336628538,974.1116050341502,973.68605474001,974.61010801312,0.04357785843697666,-0.006112945887714329,Lift down
0.40913463774023806,-0.26794433593,1.1015625,0.17948884338310886,0.6510096958666665,0.15649414062,1.08508300781,0.09508513463021936,-0.40930175780821415,-0.72473144531,-0.04956054687,0.0601230059045436,1.0345702583125005,0.70996356108,1.25985695559,0.0193398174096132,973.8408424927835,973.68605474001,973.93070608882,0.0036966490852700738,0.0023790770772055287,Lift down
0.9353818788594506,0.869140625,1.09887695312,0.003193593479971819,0.35181737207637365,0.20837402343,0.68664550781,0.023014982756147242,-0.1091939066757143,-0.26647949218,0.03039550781,0.005822948403515238,1.018917768045055,0.92468484104,1.14831953675,0.004169967494006461,973.9359331723399,973.91868911166,973.9512514978,7.061287391357902e-05,0.0001211935423574306,Lift down
0.18382418885489796,-0.58215332031,0.89819335937,0.36181403769376846,0.407909159755102,-0.52819824218,1.21276855468,0.27774545514212023,-0.19352379623561217,-0.51477050781,0.56811523437,0.04855671988900714,0.9430863312912245,0.58231588738,1.35121358656,0.02961768647033234,974.1394997014625,973.89217997511,974.74850499226,0.07986353648198391,0.005085826213035993,Lift down
-0.3683835147435955,-0.45581054687,-0.27331542968,0.0021329746258805017,0.6155745259793259,0.49951171875,0.86999511718,0.007009409866484722,0.7341637772089886,0.56811523437,0.92199707031,0.007772937337201985,1.0325975735639328,0.88378221709,1.18533853777,0.004148993746735752,974.0663639696442,973.82704323986,974.4327612905,0.038867399022736976,-0.000981094704426656,Lift down
-0.36490061313025324,-0.5068359375,-0.2568359375,0.004829410447920666,0.7449904816026581,0.54028320312,1.02575683593,0.02519813349726991,0.5269280928564556,0.22998046875,0.82202148437,0.04811025335210226,1.0196941840813927,0.86105333646,1.12843821237,0.003229856650781585,973.8569003275949,973.62028481529,974.28987321022,0.01825522671707778,0.002110277604557711,Lift down
-0.3067127574544318,-0.46203613281,-0.1201171875,0.010707144982586564,0.48258972167579545,0.2978515625,0.70190429687,0.006656326888712034,0.8417871648577272,0.68518066406,0.92578125,0.004235725711820531,1.0273402810401135,0.94685573558,1.09668405588,0.0015140906570776064,974.139643628334,973.84409019289,974.47562453261,0.025213418825678856,-0.004116705091802097,Lift down
-0.25925638217808084,-0.32177734375,-0.1630859375,0.0018427259582363233,0.6246831103974747,0.4248046875,0.92272949218,0.025649219726640485,0.7153936829195959,0.32775878906,0.95092773437,0.03427769924092067,1.013984565708687,0.89513427698,1.12310905616,0.0022345626414468265,973.8746102380546,973.49181849436,974.24394609736,0.04626013576777152,-0.005098245587171426,Lift down
-0.3124561095469663,-0.45825195312,-0.16552734375,0.00829641359992826,0.7657662723806742,0.66015625,0.92272949218,0.0045326778490203425,0.5686775807542696,0.32275390625,0.71325683593,0.01297843680371031,1.0151630640122473,0.90671387671,1.1077685007,0.002409578569475573,973.9868086374993,973.79632790076,974.19038461275,0.013946645998175815,-0.0007555572598559673,Lift down
-0.3052420910460493,-0.47253417968,-0.11999511718,0.013289644960257793,0.7656219859145679,0.56494140625,1.01281738281,0.02042928039097867,0.4931203583095062,0.09448242187,0.77575683593,0.0656989277557857,1.0090650563803703,0.94468943499,1.14497466497,0.002526826832709643,974.0507624160589,973.67547397201,974.37350293706,0.04293838937443792,0.006400792677544417,Lift down
-0.15580121208323533,-0.23107910156,-0.08813476562,0.001493946208108575,0.5010830748288234,0.45263671875,0.56494140625,0.0012746284125376426,0.8318708831164706,0.73889160156,0.89855957031,0.0016794363993020668,0.985587748507059,0.94468943499,1.02163592321,0.00039247257302266685,974.183438814568,974.067820683,974.3232889093,0.008262340102680737,0.0010157931434586996,Lift down
-0.14970545614677422,-0.17163085937,-0.13330078125,6.17996610485949e-05,0.4662547778018279,0.4560546875,0.4775390625,3.891615192321171e-05,0.8833178448373117,0.87316894531,0.89245605468,3.0232056136075624e-05,1.0100230950444085,0.99989224389,1.0209336045,3.896269192637743e-05,974.2701512746675,974.17445860185,974.34769635709,0.002307684141865392,0.0016311354836311383,Lift down
-0.1560852786115663,-0.16723632812,-0.14733886718,3.736063973670263e-05,0.45391183875795177,0.43835449218,0.46923828125,8.031589702011776e-05,0.893070818426747,0.87768554687,0.9052734375,4.32611405169111e-05,1.0139457890890362,1.00178084649,1.03108529018,4.7566842366895765e-05,974.4605529868535,974.32469780128,974.58789575425,0.005124828200692134,0.0028110415086850344,Lift down
-0.15429687499639536,-0.16357421875,-0.14343261718,4.2189219421638023e-05,0.4498518123148837,0.43884277343,0.46801757812,6.785235392766508e-05,0.8921693313929069,0.88427734375,0.9052734375,3.7969479647394816e-05,1.0110603046339535,1.00315941962,1.02826902111,4.415841200640075e-05,974.6757573387755,974.58789575425,974.76541062684,0.003914414154245952,0.0023924323878753827,Lift down
-0.16301757812079998,-0.17370605468,-0.14929199218,5.089794745926625e-05,0.4404772949181,0.42248535156,0.46069335937,0.0001694267732046895,0.8969555664024,0.88134765625,0.90966796875,4.7971810959706565e-05,1.0126014020402998,1.00407774829,1.02300988065,2.8566027498331124e-05,974.8534360551092,974.75929002985,975.00908813879,0.004959141048850552,0.0022938232451429,Lift down
-0.15558403862477777,-0.17175292968,-0.14196777343,5.14857424367078e-05,0.4367838541614445,0.42443847656,0.44946289062,4.953956337538176e-05,0.895925564231889,0.87915039062,0.90966796875,6.998589125865968e-05,1.0088603112681112,0.9968287206,1.01965431406,3.956804177608353e-05,975.0884128394941,975.00908813879,975.17598652031,0.0019557517596660162,0.0016587519864987462,Lift down
-0.15060763888506173,-0.171875,-0.12805175781,0.00020587742325409278,0.441986460741605,0.42443847656,0.45703125,3.927295314748722e-05,0.9061369719297531,0.88623046875,0.94396972656,0.000179780191859566,1.0194866106033336,1.0006030842,1.05740178839,0.00018796007424958295,975.2974323124986,975.17598652031,975.44604738886,0.006843988188346355,0.0034030398676277384,Lift down
-0.16186039990366335,-0.1748046875,-0.13842773437,0.00010358033204676589,0.45056031481673264,0.43017578125,0.46936035156,0.00011550649852226918,0.937935102100099,0.90478515625,0.95971679687,0.00027874184125638974,1.053138529809703,1.01776519637,1.07708405953,0.00032095659107232147,975.4903812293385,975.43793008249,975.54510408622,0.0006099907070790469,0.00032701839762117106,Lift down
-0.16757891254634405,-0.22351074218,-0.12036132812,0.00043720080090805207,0.4352016654032257,0.42102050781,0.45593261718,6.0374524167417006e-05,0.8992106119753762,0.86767578125,0.91821289062,0.0001249463445850516,1.0132051142613978,0.9875336258,1.03062562391,9.515367132977029e-05,975.5463025654988,975.35183781322,975.64001726604,0.004202991500128929,-0.0007187292466235726,Lift down
-0.3769167945458333,-0.45300292968,-0.22351074218,0.003099977891042639,0.5052679152674999,0.29577636718,0.78491210937,0.028231343768557918,0.7306998116589284,0.12219238281,0.96643066406,0.07188438974875618,1.0133423245398812,0.84956578986,1.1742039807,0.006485647292696192,975.474574419518,975.08531420511,976.10295313399,0.08250204005869462,0.004740012514127839,Lift down
-0.3174291683111392,-0.39111328125,-0.22351074218,0.0017569700510256996,0.4326110067205061,0.29357910156,0.51916503906,0.004925996408612012,0.8601584132686074,0.79711914062,0.94958496093,0.0015667855004407275,1.0176275117906326,0.98097144686,1.05787068831,0.0003703154519968099,975.6076801062184,975.48933998409,975.738713324,0.00586611333964545,-0.0016622938755684784,Lift down
-0.26871705286300973,-0.35424804687,-0.22778320312,0.0016083981442068932,0.35488921229854364,0.31311035156,0.41638183593,0.0004474642576102803,0.9153946070957278,0.85461425781,0.94445800781,0.0004427065179434772,1.0190861385876697,1.00719055679,1.03066275233,4.064189487171931e-05,975.6637884396152,975.61795040937,975.72916231653,0.0008050353131961977,-0.00010533785629281247,Lift down
-0.3381413998771739,-0.48986816406,-0.22290039062,0.006933525815238869,0.38261612601630424,0.22778320312,0.6162109375,0.008015729882111886,0.8938041355263043,0.74462890625,1.00061035156,0.004739389613814126,1.0373820191008694,0.94671911618,1.15561805673,0.002965962348651229,975.6350329352714,975.1515100778,976.19001792574,0.04908135222102788,-0.005477313816475493,Null
-0.6727116282367073,-1.29541015625,-0.31628417968,0.10463512205838904,0.6005889148212196,0.19873046875,0.99780273437,0.05992408850153388,0.12332078887158537,-0.2783203125,0.87341308593,0.07665663462961747,1.0163817317136585,0.60545246963,1.45798059068,0.03411438945637377,975.4604998362141,975.16153504657,976.00883790055,0.05354119672437041,-0.004983187272274955,Null
-1.0739645417167012,-1.26953125,-0.83032226562,0.014125126932578724,0.06445438345525772,-0.71606445312,0.3994140625,0.049515183857201,0.14320106112835052,-0.14709472656,0.29174804687,0.010957136589789295,1.1107307519770102,0.8372220304,1.46495554688,0.01835557923793008,975.5716746480349,975.43146928113,975.64044104974,0.003164023507041765,0.0016273659512574337,Null
-1.0141575863446313,-1.10900878906,-0.83032226562,0.0038478634391577284,0.08169973272852632,-0.19812011718,0.31384277343,0.018340192786097186,0.0954037314937895,-0.17175292968,0.2275390625,0.008520332031864414,1.034283892541053,0.8372220304,1.16907473097,0.004986792500365687,975.6310667898326,975.61123478158,975.64427591452,3.9852829481373145e-05,6.852129144768495e-05,Null
-1.0066549862094116,-1.02270507812,-0.98071289062,8.494960826984823e-05,0.09704302619129412,0.01586914062,0.14624023437,0.001142759754736903,0.07377929687082352,0.033203125,0.12170410156,0.0004925654048089366,1.0147945275904708,0.98608478528,1.03782273667,0.00010837282678526746,975.622055708341,975.61333046781,975.62987777463,2.878188609951111e-05,-0.00017419830654348634,Null
-0.9533237555058972,-1.27001953125,0.08312988281,0.06105527711719551,0.3135485526814103,0.04870605468,1.0703125,0.09828231026414509,0.0999536758778205,-0.08898925781,0.21215820312,0.0026893761805995542,1.066344154935256,0.43441011712,1.55357939081,0.040508796601077604,975.6197657617982,975.60406798325,975.63631072744,6.321532739926148e-05,7.150224724196884e-05,Null
0.13714192708266668,-1.40954589843,0.90270996093,0.7143840977919084,0.247581651475,-0.11743164062,0.90490722656,0.11132561888950065,-0.22124023437355556,-0.57495117187,0.25671386718,0.07290116046029095,0.9576782817178888,0.40905748968,1.63288701722,0.10165999973724561,975.5679481140053,975.53213390132,975.61944894241,0.0006738461770558415,-0.0003229216299851835,Null
-1.0562993263672449,-1.18359375,-0.81384277343,0.007191098829892595,0.19840536311785711,0.03588867187,0.40979003906,0.0088960091920925,0.11192851163734692,-0.13879394531,0.29125976562,0.020019485984617003,1.0934695189169388,0.8430304373,1.21776844503,0.007803141178791727,975.6021303340794,975.57427189454,975.64859410432,0.0004711117159004027,0.00038835547799420065,Null
-1.0292067094247728,-1.23010253906,-0.81384277343,0.010752988442004507,0.19448575106238639,0.01123046875,0.328125,0.006312381853846901,0.11351013183375,-0.13952636718,0.21240234375,0.006734511911088889,1.059392016399659,0.8430304373,1.26442846204,0.011322355844322805,975.608727151193,975.58942036907,975.63676993938,0.0001677904764062008,5.909083638583493e-06,Null
-1.065406799313125,-1.3330078125,-0.85754394531,0.01725144329480371,0.162004089351875,0.01184082031,0.38330078125,0.010895435471973497,0.151150512692875,-0.03405761718,0.31530761718,0.011357452663404136,1.098594123672,0.8754007069,1.33963565489,0.0164910675411652,975.611366880197,975.59105909062,975.66032436895,0.00018205011675331744,-3.016049736573942e-05,Null
-1.0646338369292156,-1.28479003906,-0.84643554687,0.02396408777739905,0.12688131893166668,-0.11975097656,0.51245117187,0.024540780013012572,0.1280290192235294,-0.13464355468,0.29187011718,0.012857484855258464,1.0970102659178433,0.87270651547,1.32433611706,0.02349508700720616,975.5887245109753,975.55257633359,975.62280047014,0.00040150747470823084,-0.00027970443242958403,Stairs up
-0.8332782048009677,-1.24829101562,-0.06787109375,0.12079129298311271,0.40302366851096755,-0.05346679687,1.0380859375,0.1027916489730654,0.013712565103225806,-0.14416503906,0.16320800781,0.00828070754964824,1.0199075771683872,0.64974394715,1.37143733401,0.04662909253075418,975.5248951645063,975.49108141299,975.6185383522,0.0007266261124406669,-0.0007106883959794289,Stairs up
-0.3976295107888094,-1.318359375,0.25317382812,0.38902153483819507,0.7210373651378571,0.03771972656,1.18481445312,0.08938518996635743,0.2714800153415477,-0.07385253906,0.54919433593,0.021798642085971064,1.1029631144464287,0.73127125195,1.40364036547,0.029782977023726617,975.4812905568326,975.45127702134,975.52614393778,0.0004956258362277091,-0.0005572219515765581,Stairs up
-0.53485030162,-1.37561035156,0.21435546875,0.3027252069130145,0.49026064329316443,-0.06091308593,1.10339355468,0.14217579887011927,0.2524877620612658,-0.09191894531,0.54528808593,0.03540398077441504,1.02228105436519,0.8197260077,1.37845458287,0.019584946701704967,975.4727224798696,975.36235554404,975.62234885455,0.0023062069154058612,-0.0007490919384364631,Stairs up
0.1299246993698039,-0.07043457031,0.33471679687,0.015168756687050765,0.9486000210590194,0.74865722656,1.18371582031,0.01894610449219548,0.351944268915098,0.19494628906,0.53173828125,0.008243257949769753,1.0296077316169607,0.82849698439,1.30483232482,0.022660116331994398,975.3656647144575,975.35189707474,975.37341466421,2.9401606479293386e-05,0.00011880337454711081,Stairs up
0.1233162257955435,-0.04516601562,0.24182128906,0.005928776597439433,0.9144592285128261,0.74877929687,1.10791015625,0.010861798834345415,0.3773896590484781,0.22814941406,0.62573242187,0.010805743157698154,1.0023189316413044,0.83119360976,1.29061606452,0.01670016835686363,975.3432207686443,975.3002169836,975.37392820871,0.0006584139912149059,-0.0008914876257192148,Stairs up
0.16852762612614455,0.02001953125,0.291015625,0.006068193738175604,0.9224559370265061,0.73449707031,1.15869140625,0.01980192726371248,0.43672786850108436,0.23205566406,0.58386230468,0.013608652683482055,1.0409866478272292,0.82228580368,1.30800253195,0.025717522169383084,975.2965067665444,975.27665378189,975.30936104478,0.00012378651573433992,-0.00040363156058969836,Stairs up
0.19546026932263158,-0.07238769531,0.30590820312,0.012128740198454125,0.8579397101114735,0.53771972656,1.20922851562,0.036128275164914715,0.47901033099968393,0.26159667968,0.73986816406,0.020105582719628198,1.0163023167449476,0.76589395703,1.39174311403,0.038898207860958434,975.2424143248596,975.18788858114,975.28978295466,0.0008790120539205524,-0.0009963854078746167,Stairs up
0.21043904622052081,0.00744628906,0.39514160156,0.011612435286457824,0.8685124715130209,0.6171875,1.19311523437,0.027818011289986174,0.4484494527153125,0.26904296875,0.6875,0.016565536549054134,1.007925843096771,0.73317898084,1.39174311403,0.039616272952728675,975.1764891035218,975.1467793601,975.20955686919,0.00028112637206429385,-0.0003992716150373112,Stairs up
0.5711556368062791,0.11340332031,1.20263671875,0.06188454509753545,0.7872215093534882,0.45397949218,1.18835449218,0.03376020235666152,0.19527133675348837,-0.17736816406,0.59399414062,0.07067653102233327,1.0574238464906975,0.77486334488,1.338613468,0.030666062318162806,975.1271461739088,975.09298644463,975.15851442689,0.0003116179422717193,-0.0006623065435642328,Stairs up
-0.227157399623038,-1.19018554687,1.0205078125,0.5705903024843543,0.3922799025893671,-0.52062988281,0.9501953125,0.16642701730604215,0.24416071251683544,-0.1591796875,0.44458007812,0.0365560067878781,0.9962923082683546,0.5957777258,1.37387987591,0.03674650093627031,975.0882238424472,975.05278164685,975.11749228429,0.0004056978908886605,0.000440731925527184,Stairs up
-1.0373986816373,-1.3837890625,-0.77819824218,0.02975863418646088,0.16806518554360003,0.0771484375,0.29309082031,0.0029877831523521738,0.028658447264300006,-0.068359375,0.31079101562,0.005743210921717998,1.0548974414528,0.79180719776,1.40106275488,0.03086803822948678,975.0758469378364,975.02789222613,975.12941416313,0.0007132658282674722,-0.0005778599478861067,Stairs up
-1.0888251848080643,-1.32214355468,-0.85437011718,0.016440361574394043,0.22156155493548396,0.01049804687,0.46801757812,0.0179561238743235,0.14210690733967743,-0.07995605468,0.32421875,0.012416168914616492,1.1324791310353763,0.88269759586,1.37302814866,0.018826929166410048,975.0307757835623,975.01091299063,975.06402659083,0.00021250066407966549,-4.514542862105368e-05,Stairs up
-1.1059742647021173,-1.37451171875,-0.81079101562,0.025335805810808944,0.1526955997207059,0.01159667968,0.40515136718,0.011514052539884087,0.13065831801235298,-0.02648925781,0.30969238281,0.01064278813533445,1.133354167082706,0.82596830019,1.41185752976,0.0263184871091272,975.0321580619325,975.01209049385,975.05700760079,0.0002181299730943717,9.598959082219762e-05,Stairs up
-1.0695022750642857,-1.25122070312,-0.85632324218,0.012156320782885813,0.1788102034641758,0.05017089843,0.39562988281,0.006231092715250359,0.12912892770857146,-0.05676269531,0.23413085937,0.007569275827079891,1.0984243288969229,0.87911546548,1.2670685871,0.011747017979824217,975.0276479172576,975.00545249404,975.0902366784,0.0005821079311343381,-5.938088519842377e-06,Stairs up
-1.0384916055049496,-1.25,-0.81701660156,0.012380122782231552,0.1370824948661616,0.03894042968,0.27575683593,0.005484268975465001,0.12663376933010104,0.00891113281,0.23010253906,0.004659503305156808,1.0598403782808083,0.83034063339,1.28280552782,0.01245307885013848,975.0325212231977,975.0066332496,975.06114329541,0.00029286287098845894,0.00011302710588814587,Stairs up
-1.0988573096228735,-1.37658691406,-0.86059570312,0.022994658237845588,0.18315738370758622,0.04833984375,0.4404296875,0.012373652441643419,0.18744247260804597,0.02880859375,0.32336425781,0.006370381851144796,1.1378067994387362,0.88142048965,1.4280210382,0.02308870668162395,975.0297222332676,975.01127020373,975.06193228818,0.00019501394584494925,-0.00011378654951039366,Stairs up
-1.126387023922125,-1.32604980468,-0.86059570312,0.013924514282932994,0.1476684570285,-0.11791992187,0.47143554687,0.023453080351848576,0.118722534177875,-0.17126464843,0.28601074218,0.013051903614938772,1.1576195754536251,0.88411520319,1.3316904622,0.014546621801343917,975.0333212344747,975.00869696812,975.06895856209,0.0003674432585409561,-5.192172825631924e-05,Stairs up
-1.0762134898745455,-1.26599121093,-0.92956542968,0.00836635111614857,0.010102705521818182,-0.3564453125,0.47143554687,0.038998667875652086,0.15458401766397728,-0.00341796875,0.46374511718,0.015046724656206538,1.1120871991814774,0.9363069095,1.27781459751,0.0072810792055853155,975.0239871003834,974.99793865223,975.06823544844,0.0003549980346979855,1.885957412798378e-05,Stairs up
-1.1137904928152524,-1.66833496093,-0.84948730468,0.04375354946866873,0.1534645774130303,-0.28186035156,0.49841308593,0.03721255409467951,0.1298840455310101,-0.06506347656,0.31286621093,0.00945894952147593,1.1522435963867679,0.87088658559,1.69871002562,0.04323356971092874,975.0420664857952,974.95996194996,975.226386699,0.0034048692404789298,0.0004280068795261324,Stairs up
-1.191514604542921,-1.51696777343,-0.92846679687,0.0168168874757304,0.1966031535264045,-0.11389160156,0.70764160156,0.0520514266343372,0.16641886850078652,-0.15283203125,0.38500976562,0.02643493982964372,1.2509730291713483,1.00646804615,1.55218957904,0.015528481073325112,974.9913798115468,974.94388073612,975.04687124402,0.00047231494860501197,1.1944572661716747e-05,Stairs up
-1.123748779292875,-1.30114746093,-0.96472167968,0.01077052932009259,0.14085540771112498,-0.14599609375,0.40539550781,0.021371538877910573,0.11287384033125,-0.2587890625,0.42260742187,0.02999135510117008,1.159510713018875,0.99235801282,1.36504033009,0.012439220838193488,974.9378891811135,974.90526107677,974.98773623316,0.0005697999758083614,-0.0004927862625767097,Stairs up
-1.074657963767647,-1.431640625,-0.85375976562,0.024780817037842504,0.032439587162647054,-0.47497558593,0.30676269531,0.034808388642367,0.10659730200303921,-0.2587890625,0.25866699218,0.009211893257314762,1.1008371449822552,0.87946174021,1.44188010431,0.023822765814047905,974.8982171260702,974.87513238596,974.97262198,0.0003721012597488114,-0.00027177936757677684,Stairs up
-1.078373078372473,-1.29357910156,-0.82397460937,0.022808452485588594,0.1259253717206452,-0.00341796875,0.30676269531,0.008170030791503016,0.09226415490311828,-0.08654785156,0.22399902343,0.008808054555485063,1.097054712861828,0.84538372254,1.32829002589,0.0233390093587951,974.8542275300299,974.81061637381,974.89327525394,0.0007776141017298289,-0.0007948759987493879,Stairs up
-1.040269966579277,-1.39013671875,-0.78527832031,0.033377617238517156,0.16465961502000004,-0.02209472656,0.36145019531,0.01453624011965871,0.080095773716747,-0.16528320312,0.1982421875,0.008615059144313089,1.0672435896962653,0.80824119142,1.39565591847,0.03292538197580964,974.7958254265777,974.75829513133,974.88429904825,0.0010681708784327877,-0.0009430610843068247,Stairs up
-1.0552978515579219,-1.34020996093,-0.79992675781,0.021162053472101955,0.12222408938389612,-0.02160644531,0.24609375,0.004964687872344453,0.05650428672740258,-0.12048339843,0.24645996093,0.011918363591705932,1.0719102889216883,0.80717501361,1.34827307807,0.02061205210678297,974.742871918114,974.69262112362,974.78673599408,0.000508773175016085,-0.0005751331115135711,Stairs up
-1.0126991271933334,-1.31518554687,-0.79577636718,0.021147627094397138,0.08237711588208334,-0.02465820312,0.20849609375,0.003162726812252095,0.06125640869020834,-0.18981933593,0.21997070312,0.012647187807120496,1.0262330832465625,0.81431524449,1.32029977487,0.019721517691562558,974.6812536836755,974.64167003444,974.73519470618,0.000798764362800199,-0.0006967913331444623,Stairs up
-1.0386436060818949,-1.36596679687,-0.77001953125,0.026108615465750173,0.07707391035852632,-0.13818359375,0.18957519531,0.006549380337185848,0.08300395764694737,-0.08752441406,0.32690429687,0.01456236853592041,1.0552557147361048,0.77232080821,1.37145752713,0.025032772351045746,974.6329949443774,974.58993536396,974.66560963443,0.0005174955819551059,-0.0005628606131167299,Stairs up
-1.0475151594268604,-1.30920410156,-0.77001953125,0.026704527677966924,0.10934093386372092,-0.04345703125,0.26452636718,0.007829754019533371,0.014661212301744187,-0.21704101562,0.25439453125,0.013267512541315292,1.0625287741980232,0.77232080821,1.33776305766,0.02806328083074334,974.5900777328557,974.56453395741,974.61416699291,0.00027598582278906157,-0.00031374110344768404,Stairs up
-1.0413818359339284,-1.29931640625,-0.86962890625,0.01398306510522812,0.10036214192511908,-0.16552734375,0.27368164062,0.010888895296291503,-0.008892240977380953,-0.20715332031,0.265625,0.02190315417932485,1.0620155748844047,0.88513092684,1.32329656622,0.013125198742373771,974.5453692444395,974.51033099665,974.59918575856,0.0006148903710721722,-0.0009032180362938606,Stairs up
-1.0555190284626732,-1.37585449218,-0.80908203125,0.03302178970334928,0.10771315168267326,-0.03442382812,0.224609375,0.0037911769658542952,-0.011115650138910891,-0.13500976562,0.16137695312,0.007123386508338317,1.0662871843350497,0.82147284593,1.37692959271,0.032702871274729525,974.4993816083388,974.47352259882,974.52104221339,0.00015903747735595967,-0.00024345478209340573,Stairs up
-1.0756460336499998,-1.28015136718,-0.81103515625,0.01708417292835302,0.16391762533967033,-0.02026367187,0.38427734375,0.010472678778022687,0.09443547175219781,-0.05737304687,0.23779296875,0.006165879888215043,1.101685199038022,0.82288267673,1.31551941903,0.01724398367120518,974.4637225567302,974.438919022,974.55957218064,0.0005564879132157411,-0.0002159036543839773,Stairs up
-1.0452895745967072,-1.28991699218,-0.84899902343,0.013850599709193235,0.12398473227463414,0.05749511718,0.24206542968,0.0033544463426460145,0.10228450123524388,-0.01184082031,0.23779296875,0.005046003100758149,1.0616893788558537,0.8570556119,1.30020263335,0.01342368903261934,974.4584623270431,974.44176950196,974.49491189372,0.00020280809331503006,-1.5750923800382447e-05,Stairs up
-1.0787176834872367,-1.29113769531,-0.90686035156,0.012117509326980106,0.16874614514381578,0.03588867187,0.38842773437,0.010210004982173457,0.1345038162993421,-0.01245117187,0.25732421875,0.006031019569826351,1.1066573953961847,0.92690943933,1.327623396,0.013841935238404067,974.4579329641875,974.44162081841,974.48052583663,0.00013501239962439952,-7.288052766625155e-05,Stairs up
-1.1299185704665657,-1.42199707031,-0.84130859375,0.022288231597696186,0.16272959082737376,-0.13427734375,0.34558105468,0.01848879294604674,0.22058968591868688,-0.02478027343,0.55456542968,0.03246924684081287,1.1829843659894952,0.86040941751,1.52669459155,0.02516529998262668,974.4553076249513,974.43965764236,974.51352552556,0.0002622283721104371,0.00010052807957680121,Stairs up
-1.138744597735638,-1.37353515625,-0.87194824218,0.019526194923515393,0.15480463555159574,-0.05688476562,0.42541503906,0.017287140989036127,0.1542475274239362,-0.18530273437,0.31469726562,0.02187039496967661,1.1749365578301063,0.8916294223,1.41715274797,0.022316969288094055,974.4485117569742,974.43689204324,974.46472517016,5.5354122071718604e-05,0.00013706728682616858,Stairs up
-1.1251838235255294,-1.39794921875,-0.80090332031,0.02616868083829304,0.19720530790258825,-0.04174804687,0.44775390625,0.024322454284253895,0.12574534696564707,-0.11096191406,0.34826660156,0.018045062472991723,1.1680638795625882,0.8322697508,1.39881338363,0.02438399565892496,974.4515598363159,974.42907630612,974.49091293163,0.0002793606312157423,-0.0002452790521149779,Stairs up
-1.0224595013749411,-1.37280273437,-0.84204101562,0.025681148148090346,0.10295122931682354,-0.03442382812,0.24633789062,0.003450695949081957,0.09292853860129412,-0.14196777343,0.30786132812,0.014447429842097065,1.040635742001529,0.87241575398,1.37504273044,0.022937795960222582,974.407310853633,974.38108693446,974.45452811285,0.0004926705724156004,-0.0006721261429386187,Stairs up
-1.0951765471769606,-1.35559082031,-0.9033203125,0.014146479928923074,0.07578890931137255,-0.09313964843,0.20617675781,0.006747271766096426,0.04495538449617649,-0.17236328125,0.26452636718,0.018551408109774615,1.1104873980934316,0.9064447917,1.36415260799,0.013182031689767481,974.3829956236845,974.33352944344,974.46479730542,0.0009194458432834068,-0.0005434278268912066,Stairs up
-1.0838528103260001,-1.35852050781,-0.80871582031,0.027687702362095376,0.13610704209644445,-0.10595703125,0.31433105468,0.00990115440737054,0.09416097005011115,-0.13989257812,0.38732910156,0.01849484291258871,1.1102875272855557,0.89698642809,1.3763021134,0.02512970277795217,974.3332645754168,974.29158419776,974.39365001908,0.000698509117902995,-0.0004956355648892591,Stairs up
-1.0629626615514816,-1.34887695312,-0.87414550781,0.019564103229355808,0.10562849633098766,-0.0478515625,0.29943847656,0.00932239168941821,0.08045488522209877,-0.17858886718,0.20092773437,0.01158584959647211,1.0806333837820987,0.89370074303,1.38041324234,0.019970715484360385,974.2793964517441,974.24744109722,974.33826160048,0.0005515142413675949,-0.0006468316950248508,Stairs up
-1.0432578638940788,-1.32104492187,-0.86999511718,0.018955287870829833,0.11094424598855267,-0.03601074218,0.21801757812,0.005664948107195342,0.08186581260144736,-0.11145019531,0.21411132812,0.010067832351782722,1.0608742289592104,0.88443295117,1.3214664326,0.016390792597823913,974.2284179585113,974.17890274752,974.28444325509,0.0008074255831767888,-0.0008666629621035889,Stairs up
-1.072121478138085,-1.33081054687,-0.87145996093,0.017538159432898073,0.08301690284042552,-0.23352050781,0.24206542968,0.017308705672451716,0.09389025099478723,-0.16052246093,0.24438476562,0.01417258508601188,1.094318862946702,0.88443295117,1.3370519585,0.016289130776038933,974.1751518093159,974.13081925037,974.22174532328,0.00048018539473074006,-0.00048673993176771987,Stairs up
-1.0326258341439583,-1.43725585937,-0.83117675781,0.026154468397981398,0.10293706257802082,-0.01110839843,0.22619628906,0.004081243353344783,0.0982831319140625,-0.12072753906,0.24450683593,0.011950150796526476,1.0513499767220835,0.87142672824,1.44243870693,0.023223288392922658,974.1238741014458,974.08593118617,974.19523999437,0.000879713430547528,-0.0005822909246817643,Stairs up
-1.0479147023126436,-1.23754882812,-0.84826660156,0.01240807385701485,0.08390159168206895,-0.06372070312,0.18017578125,0.003536631372724451,0.008633317618390805,-0.16748046875,0.18676757812,0.010376932900971714,1.0581010316447133,0.86110279483,1.23843113927,0.011816352122064205,974.0900499920035,974.05796294497,974.12368386526,0.00037386221611330133,-0.0003469433758036632,Stairs up
-1.034172058102375,-1.42077636718,-0.77966308593,0.02502326623686554,0.08279266357175,-0.02221679687,0.23254394531,0.004442861654794314,0.0188644409165,-0.17944335937,0.20739746093,0.013196969312128272,1.046224863451,0.79072145243,1.42579425649,0.02457284214262321,974.0541727617507,973.99626281744,974.1284779574,0.00135310755604479,-0.000752282163447755,Stairs up
-1.1014309484941747,-1.28234863281,-0.84631347656,0.014598195076359349,0.18489741352796116,-0.07641601562,0.3837890625,0.019107764612510254,0.026727472693689316,-0.24938964843,0.3623046875,0.03396971271776749,1.1400517657377667,0.85289077233,1.33584122004,0.015502655328099144,974.0310816049667,974.00878771701,974.07835406953,0.0003755362646658016,-7.691651952846007e-05,Stairs up
-1.0434066109001083,-1.28723144531,-0.85217285156,0.014941486405983648,0.1801943571630435,-0.02941894531,0.35974121093,0.010733493715304987,0.04267286217543479,-0.1474609375,0.13317871093,0.004421923917847337,1.0669020940066303,0.85458240141,1.30449051997,0.014637119899487041,974.0347678356047,974.02364563527,974.06078501783,0.00011106843176129063,0.0001516820782478788,Stairs up
-1.069834513833012,-1.30541992187,-0.87585449218,0.01808891434684797,0.13949106974445782,0.00048828125,0.33947753906,0.007453195761680452,0.09864751976277107,-0.05590820312,0.20690917968,0.005276333048871982,1.089443706832048,0.88792937563,1.31185030183,0.017505433778576638,974.0374954435783,974.01584654478,974.09579900319,0.000384290141217051,-1.664668748680323e-05,Stairs up
-1.0586666751196103,-1.21887207031,-0.91650390625,0.010571866544959715,0.10356952617389611,-0.11608886718,0.29479980468,0.011812464772106268,0.06988604656987012,-0.126953125,0.28271484375,0.014752532158373154,1.0777807691996104,0.93157486113,1.2509907968,0.011579397133595787,974.0330256417317,974.0110859542,974.06124564588,0.0002560745637806369,-0.0003484625505618299,Stairs up
-1.071546766489506,-1.19604492187,-0.87829589843,0.008499066531591446,0.1531017915671605,-0.11535644531,0.36596679687,0.014426375819548856,0.11887990692296295,-0.11547851562,0.24291992187,0.008218527120326868,1.0987635776661726,0.90081414711,1.23775483623,0.00937892929072499,974.0122741687095,973.9989464558,974.04658581605,0.00017835974312318758,-0.00024367937136970567,Stairs up
-0.9283773592158415,-1.5927734375,-0.33557128906,0.103078052071372,0.2871154180812871,0.013671875,0.73376464843,0.05286454986821238,0.0009415126069306907,-0.51501464843,0.57531738281,0.08591181139058948,1.0593741049259409,0.53684523589,1.70473223277,0.06212206176130177,974.1745508758127,973.8655391854,974.66009341909,0.055038810328219084,0.004971413470117088,Stairs up
-0.4357191297703333,-0.87268066406,-0.27453613281,0.02047633451503247,0.8521253797711111,0.41052246093,1.17883300781,0.030940590512403575,-0.10565999348733332,-0.48400878906,0.18908691406,0.02539597034718633,0.9922777688319999,0.6411403932,1.2359608531,0.018684713289467334,973.8881061266924,973.71143663913,974.08483037729,0.014390983018043133,0.0018280408787065634,Stairs up
-1.1219173569231327,-1.33605957031,-0.82409667968,0.02431186591840971,0.19624052851783133,-0.1240234375,0.61328125,0.02981004589167303,0.08477709666626507,-0.17065429687,0.23425292968,0.012065343875591198,1.1593622101666266,0.84393790589,1.36963588556,0.025978130955814808,973.9191491197644,973.77986163436,974.0523173298,0.004181949259834766,0.00222544608028208,Stairs up
-1.0900248865898925,-1.453125,-0.81591796875,0.033643345992345135,0.20056021084913983,0.03149414062,0.33837890625,0.008110612467254181,0.07254126763935484,-0.30004882812,0.24487304687,0.018835412063244777,1.1230833535160216,0.84529475688,1.48694501549,0.032613219822625834,973.9641480467715,973.91715864276,974.07022546541,0.0020707161809153073,-0.0006136642013618099,Stairs up
-0.9899411545546392,-1.15051269531,-0.80444335937,0.006796624095470552,0.10490621979381443,-0.19372558593,0.29345703125,0.008368129393433427,0.16793728857484536,0.08361816406,0.23559570312,0.0019215740507100402,1.0148224330715465,0.83158708635,1.16524953931,0.0063023188541593235,973.9338969321318,973.92024069068,973.98043247149,0.0002313462154814336,5.975650167058535e-06,Stairs up
-1.0255779887319765,-1.32348632812,-0.81909179687,0.024993585031552447,0.14279387717709302,0.04016113281,0.27551269531,0.0029602842030775783,0.07059212617883721,-0.26550292968,0.23413085937,0.01939632993016006,1.0485541549265116,0.84136262212,1.33543176726,0.024805789662484572,973.9232002702105,973.89821880604,973.99432105396,0.0006277524725815216,-0.0005885881923889972,Stairs up
-1.0436192765983543,-1.37438964843,-0.76086425781,0.030666717245241077,0.11111952383037976,-0.18054199218,0.4306640625,0.01588581202518349,0.05694039260177213,-0.154296875,0.21899414062,0.009827505623681218,1.0625148254578478,0.78004482773,1.39485693582,0.03186288832083129,973.8850969887767,973.82241844193,974.01622767541,0.0024329531535889804,-0.0007955337708047451,Stairs up
-1.0859921103997368,-1.50146484375,-0.76965332031,0.038185461916696625,0.16700021843776314,-0.01892089843,0.41137695312,0.01903651369994226,0.12041433233657897,-0.08813476562,0.36633300781,0.012098086013351973,1.117241707385658,0.77050202999,1.50425282733,0.04250575735359226,973.8156482075846,973.76548756017,973.87982688499,0.0009948557554423057,-0.0009576754945194786,Stairs up
-1.1167191485919388,-1.44421386718,-0.82214355468,0.04029410115636184,0.15635463169428573,-0.11083984375,0.36682128906,0.011184067148375604,0.036866479988571434,-0.20129394531,0.18908691406,0.011914776923978165,1.1382672416474489,0.85246070248,1.452905264,0.0403733025410516,973.7665399044433,973.72545224537,973.8569489411,0.0015919909296569176,-0.000136153846217689,Stairs up
-1.0231175472825262,-1.44018554687,-0.7001953125,0.04604074206074135,0.11022692228357894,-0.05932617187,0.32434082031,0.006438044784534388,0.054690069899368414,-0.12670898437,0.17980957031,0.007659129315806091,1.0377518853922105,0.70112482194,1.44389803982,0.044959663139285504,973.7115702490705,973.66030640527,973.8569489411,0.002260164315064599,-0.00040297110596525097,Stairs up
-1.0694953469632942,-1.42041015625,-0.83251953125,0.02528770942888604,0.17266199448164707,0.0439453125,0.37292480468,0.008741755750101015,0.045157398895294125,-0.34814453125,0.21569824218,0.02040556739700032,1.0979082679518821,0.87577747817,1.43994137003,0.02435018048979381,973.6701631824794,973.62410974479,973.75818825483,0.000789642425949291,-0.0003591933799256563,Stairs up
-1.129535054047209,-1.92016601562,-0.74499511718,0.06587407361630129,0.13760730831802323,-0.00830078125,0.37353515625,0.010961736178023556,0.08411070357709301,-0.11279296875,0.31030273437,0.013766515761996941,1.1513188331440698,0.76619453072,1.93045119953,0.06664855790418754,973.6467389669044,973.59348276775,973.79408635137,0.002387348579293824,-0.0002650188877095538,Stairs up
-0.4444012028145544,-1.11901855468,0.15405273437,0.2533756612393347,0.7318381130069305,0.10388183593,1.43017578125,0.10650907057653469,0.08205783957326733,-0.298828125,0.4912109375,0.04703676867478096,1.0500260510264356,0.77140889824,1.43720831192,0.04055231674449475,973.6153450996242,973.47626093955,973.81401556042,0.005281526703738658,-0.0005849336718899863,Stairs up
0.08403649490651686,-0.07775878906,0.212890625,0.01056777952947741,0.9535529318780899,0.73083496093,1.24206542968,0.02419652963315282,-0.2097812609705618,-0.61560058593,0.0869140625,0.041579958081272225,1.0073011397711233,0.75718930762,1.25563183706,0.02140488849121626,973.5433111683747,973.46923801563,973.60681778146,0.001762910772867275,0.00011090558204121577,Stairs up
0.13662079233901234,-0.03515625,0.33630371093,0.012755937285326813,0.935543860915185,0.62768554687,1.2412109375,0.023143192744101884,-0.17095419801246917,-0.70593261718,0.220703125,0.06868875847968811,1.006477737671852,0.81347709371,1.24817068235,0.013600039715964388,973.5081865388697,973.42048263289,973.73297706383,0.007181293807640657,-0.0014226783434446064,Stairs up
0.1752496016619737,0.01953125,0.34045410156,0.007416950346470974,0.9269569798493421,0.73046875,1.08984375,0.009787056383420109,-0.2815037777531579,-0.77526855468,0.12622070312,0.06675145497330602,1.0212133751985524,0.88439716473,1.22530140404,0.009302470075472354,973.5291187314364,973.50832847054,973.58777090432,0.0003701022102183148,0.00014895596792287291,Stairs up
-0.02220672922072165,-0.37780761718,0.28039550781,0.0419543809773315,0.8779108106438145,0.39709472656,1.2470703125,0.059367440125663785,-0.38738069828824745,-0.89453125,-0.06591796875,0.05093938510715634,1.0246044630574227,0.75366189188,1.26990559854,0.022392382315624442,973.5610075556876,973.50594645194,973.7164668581,0.0027392454496255295,0.0013241771649343066,Stairs up
-0.47210500616315765,-0.701171875,-0.20544433593,0.015918192668074132,0.3391974198154736,0.0732421875,0.71801757812,0.039830192249213164,-0.891091437083684,-1.41430664062,-0.49951171875,0.04383841504993126,1.0975695529005267,0.85890970638,1.49191136826,0.026136693197646305,973.5240593856737,973.38589292118,974.02269378655,0.027227768640279915,-0.0021101944314496626,Stairs up
-0.43334960937232564,-0.72924804687,0.07165527343,0.04488066504924121,0.10527854741941858,-0.20422363281,0.70727539062,0.04992651925442665,-0.8185779660211627,-1.01721191406,-0.38403320312,0.024706625278111304,0.9862442504362791,0.75226004145,1.19072786622,0.01456105008333831,973.5303967086882,973.45964065811,973.62754527724,0.0017987948165079652,-0.0004678597653552993,Stairs up
0.11019606817047618,-0.00866699218,0.2431640625,0.005796113413061205,0.7585449218713095,0.39184570312,1.05053710937,0.021062077168994484,-0.6354762486000001,-0.98425292968,-0.29418945312,0.035865874951056205,1.0177367982765477,0.78234874709,1.23899752,0.015871526715627925,973.526299345077,973.49353721286,973.582386435,0.0005635282862913504,0.00024404718615013969,Stairs up
0.2647475440877228,-0.02319335937,0.43518066406,0.02063042900326328,0.9633994527343563,0.63562011718,1.40734863281,0.043942495903207396,-0.2148884688253465,-0.59521484375,0.04248046875,0.0437430160404947,1.05102619321,0.71168024438,1.4730962708,0.04746421142492265,973.5090498120649,973.47117485099,973.54560653984,0.0003613950163773256,-0.0005808106849386608,Stairs up
-0.26594962654516485,-1.537109375,0.61450195312,0.6257192900451026,0.5429003369638461,0.09729003906,0.83679199218,0.05465450194422125,-0.05471432863857143,-0.35266113281,0.39733886718,0.054784056145804075,1.022784522317912,0.60955340879,1.61254267839,0.05000414496463324,973.4849695816318,973.46502245174,973.59650012477,0.0004939892081413361,0.0003337271048975293,Stairs up
-1.2049334490707406,-1.7587890625,-0.76013183593,0.08816998083620495,0.21000916280506177,-0.04455566406,0.76831054687,0.037479775651743416,0.1230966073480247,-0.10583496093,0.42895507812,0.020342074251130954,1.2492205892501234,0.76337653495,1.78900365024,0.09594310451455897,973.4927672415242,973.46302194532,973.58086990891,0.0004815806917289546,-0.00020451009247410404,Stairs up
0.6027072482608888,-1.24780273437,1.18420410156,0.3270456970307969,0.08460150824677778,-0.39086914062,0.83361816406,0.17405325320106826,-0.2767483181388889,-0.52770996093,0.50244140625,0.06819892158170822,0.9826729195473334,0.7440635461,1.58252275626,0.044827429539899405,973.4132943108991,973.3585387224,973.47842590441,0.002054316738643134,-0.0014321324340851272,Stairs up
-0.3741140463903092,-1.32067871093,0.77978515625,0.5628006182796297,0.27994372180762883,-0.01733398437,0.78002929687,0.06622577308491241,-0.0061878322332989694,-0.58056640625,0.45910644531,0.10464371565593988,0.9529728076177318,0.71347361725,1.34691925905,0.03669572844530936,973.3494321017629,973.29618501641,973.45054095738,0.0008472777243239766,0.0002585562217818903,Stairs up
-1.090249736654382,-1.41162109375,-0.8447265625,0.02793916408826738,0.14429808198382024,-0.03002929687,0.32104492187,0.007399508438370753,0.07718409848730337,-0.232421875,0.23156738281,0.014061923122091861,1.1128045983053934,0.87796860588,1.42720978123,0.02622998752203861,973.3457785969049,973.28848429346,973.45054095738,0.0016114522640049242,-0.0007478211124635065,Stairs up
-1.0634825171463416,-1.3896484375,-0.82788085937,0.029741222072207713,0.11730361566036585,-0.00622558593,0.27026367187,0.003928612007783158,0.06775646674878048,-0.21667480468,0.19494628906,0.013530811169104718,1.0807974983424389,0.84932077702,1.39570652032,0.02819173819232051,973.2790514737264,973.24309518676,973.32827292283,0.0007745590018632525,-0.0007257204151979756,Stairs up
-1.030666906853495,-1.27746582031,-0.82800292968,0.019091730296501578,0.11144545471504856,-0.03381347656,0.22570800781,0.005351388256250115,0.030985711848058258,-0.14916992187,0.22497558593,0.012254567442671668,1.045859450020874,0.85341322435,1.28186468173,0.01835206052646758,973.2218137727702,973.18907848254,973.27771804298,0.0006642859746103171,-0.00043863958809384,Stairs up
-1.0283203124964835,-1.31164550781,-0.76525878906,0.021117426620561167,0.0762832138531868,-0.11865234375,0.23840332031,0.007775660570271204,0.057978032706703285,-0.0146484375,0.17370605468,0.002279567358162883,1.0376287561814288,0.77787289269,1.31372486589,0.02101079620599854,973.1776883909306,973.16071841625,973.19775535943,0.00010631193786696088,-0.00017995344067165106,Stairs up
-1.0650128620389026,-1.32421875,-0.80346679687,0.026448219628551754,0.11920612613963412,-0.09790039062,0.34631347656,0.010714661263464395,0.08812732231134147,-0.19104003906,0.30456542968,0.017931927996488115,1.0879704326690243,0.82426368446,1.33691157138,0.02730517024688554,973.1394940188744,973.08995861465,973.19000329213,0.0008592416574508718,-0.0006686224817209132,Stairs up
-1.0511881510371999,-1.24523925781,-0.822265625,0.013959410356851446,0.12079752603853335,-0.03491210937,0.2646484375,0.006946055540051645,0.07027669270706666,-0.09313964843,0.27233886718,0.012124178688171944,1.0696054001412,0.83270496082,1.25194104407,0.013237420976314597,973.1015930069162,973.08518509947,973.1589013469,0.00042144219151872255,-0.0002726906182362639,Stairs up
-1.095091599679904,-1.36364746093,-0.83508300781,0.02280018644832131,0.1963489239001923,0.07800292968,0.37744140625,0.008763311555979767,0.10210829514586539,-0.03979492187,0.26525878906,0.008923030581187806,1.12571825295,0.84385345849,1.36611941987,0.0212647341606203,973.1056484561266,973.09088671158,973.1336945298,0.0002025011602499822,1.6469980485640714e-05,Stairs up
-1.1727520486532608,-1.53686523437,-0.79028320312,0.037185033903367457,0.12476780103423914,-0.12536621093,0.37390136718,0.01915820124946334,0.08304363748315216,-0.15222167968,0.33557128906,0.026324060767256883,1.2009286590196742,0.79585033809,1.55710569491,0.037760148217448136,973.1005980766433,973.0628209936,973.16722747502,0.000690780721904277,-0.00015564157892789681,Stairs up
-1.156761812872771,-1.47814941406,-0.85131835937,0.03711682138573339,0.20307646601771084,-0.15710449218,0.45861816406,0.02453447330963996,0.197645072473494,-0.04455566406,0.34765625,0.010958633412496976,1.2072365272922894,0.85418298849,1.5035022837,0.033115577169196456,973.0908427326866,973.06422750375,973.15395555925,0.000488570861226238,-7.58001540829827e-05,Stairs up
-1.102215706030106,-1.3125,-0.8212890625,0.021897418431085443,0.1565824468048936,0.03198242187,0.38647460937,0.012600499905544975,0.1500659699106383,-0.08422851562,0.3212890625,0.014263126334766656,1.1356513154612768,0.82775137228,1.35705682799,0.022657553211370023,973.1056083374144,973.07972152645,973.15198889173,0.0002912067896236072,0.00023359506088639541,Stairs up
-1.0923682143960824,-1.29333496093,-0.87036132812,0.013910929531718436,0.18593070432948453,0.02294921875,0.35681152343,0.009593739791815076,0.1258607844684536,-0.0546875,0.26623535156,0.006318012988542867,1.1219498015384537,0.88291927974,1.30668136578,0.01457359778446811,973.0986046762031,973.07918660556,973.16396677892,0.00044923955139063854,0.00021966220282399967,Stairs up
-1.0787886696262068,-1.49560546875,-0.80078125,0.04001237476330131,0.09583642016505747,-0.0498046875,0.21801757812,0.004176926000065073,0.08951963227149423,-0.24645996093,0.24743652343,0.014614471109046097,1.1000787093086204,0.82244125447,1.49644597541,0.03941968828648871,973.0832836539847,973.04505061711,973.16146318943,0.001240174694292495,-0.0005209130343740553,Stairs up
-1.0673225499372152,-1.552734375,-0.818359375,0.03141697510424424,0.11431498466784809,-0.06506347656,0.25854492187,0.00796116079837329,0.06262052511860759,-0.17431640625,0.30236816406,0.018753866160433987,1.087162386691392,0.82758113708,1.55634109697,0.032046421290894724,973.0441701511563,973.01837442173,973.10838525347,0.0007153402224218335,-0.00022840613058921342,Stairs up
-1.0165917968716,-1.45520019531,-0.7666015625,0.0394894733461235,0.042646484373600003,-0.16796875,0.22204589843,0.010009874620550363,0.0669384765608,-0.17346191406,0.24353027343,0.012399257694712607,1.0309868434828002,0.78280972234,1.45680089771,0.03840991542963411,973.0029792092694,972.95804317063,973.08958490917,0.0010573797405904577,-0.00031250129650004177,Stairs up
-1.0743513840860577,-1.36328125,-0.83959960937,0.02484260372470498,0.12019113393663462,-0.09631347656,0.24914550781,0.006287966659144018,0.07489483172961539,-0.11413574218,0.27880859375,0.01261903068412221,1.0937344908393267,0.86093076852,1.38160817456,0.02395719184566252,972.9653960299812,972.91856852906,973.05258377074,0.0008988864300786337,-0.0003847582135824016,Stairs up
-1.0140142026120653,-1.27038574218,-0.83325195312,0.016988562436810496,0.1310066554830435,0.01538085937,0.28393554687,0.005005357533307768,0.06133635147543476,-0.1748046875,0.20397949218,0.010765608670064694,1.031679682940652,0.83708328975,1.29337245136,0.01737907650945859,972.9119912792521,972.87803661705,972.96526065912,0.0004351022044821366,-0.000684682136272327,Stairs up
-1.070011683867619,-1.39978027343,-0.83618164062,0.02417676831118451,0.11560785202404762,-0.02587890625,0.30383300781,0.007460693763957359,0.055712018692380946,-0.1845703125,0.18798828125,0.012422112462319135,1.0869141650661904,0.84207946919,1.42234154267,0.023830356383532345,972.8665863603952,972.83736258351,972.93476431738,0.000760977546323403,-0.0007863961106776553,Stairs up
-1.0340589735210002,-1.42260742187,-0.75720214843,0.030354578674230005,0.09902479383455555,-0.04040527343,0.35241699218,0.007985995891918753,0.050272623697777775,-0.24450683593,0.22875976562,0.014574987582610758,1.0502663679246669,0.76400728981,1.43829233164,0.031226334338694078,972.8206671165937,972.77193338679,972.93697038138,0.0016696843392770867,-0.0008890592750349092,Stairs up
-1.0428997001227274,-1.34436035156,-0.81652832031,0.02033235806660199,0.11565853850575758,0.01684570312,0.23999023437,0.004871298568510609,0.02915754221666667,-0.18920898437,0.17236328125,0.007674590364097233,1.0551620371750505,0.81716378215,1.36088910679,0.02126081885723722,972.7721235849162,972.72955124274,972.8188510771,0.0006812700734473236,-0.0004516635845674409,Stairs up
-1.0696203058379545,-1.26733398437,-0.87463378906,0.014243786267001403,0.13347556373875,-0.09130859375,0.38317871093,0.009974490224381167,0.12804620916045453,-0.12683105468,0.36779785156,0.021273033683026726,1.0994054897745456,0.91008929386,1.32256534622,0.01474868769911029,972.7339706577604,972.71205638577,972.79920958415,0.0005204458396565005,-0.00026592353359315945,Stairs up
-1.0743655434105064,-1.42602539062,-0.79052734375,0.0260762420906223,0.09019141860822784,-0.09606933593,0.33996582031,0.012029797636497778,0.01631261125405063,-0.19311523437,0.18603515625,0.012945370099390082,1.0891593955713923,0.79550878429,1.4630023827,0.027142490457061977,972.7108237544547,972.66839150558,972.77352933566,0.0008333233185360892,-0.0006843989240010452,Null
-1.0556769120030263,-1.23950195312,-0.80432128906,0.01646329108040967,0.17757375616368423,0.02453613281,0.37780761718,0.009244647904326794,0.07171952096802632,-0.04479980468,0.2177734375,0.004994826504871548,1.0789772959923687,0.80577641484,1.26640131182,0.01746646953408758,972.6623140658227,972.64205415088,972.70845062587,0.00023463238863646855,-1.586809310729545e-05,Null
-0.9864115812308163,-1.32299804687,-0.59741210937,0.02808835229847171,0.24756357620775507,-0.04602050781,0.74084472656,0.03600251057654258,0.18069769411489794,-0.15966796875,0.8359375,0.07445095549453698,1.0853146531293876,0.93891789184,1.51200649076,0.026437185757389303,972.7816433201583,972.64205415088,973.27431397391,0.041680683122216296,0.005474587710529354,Null
-0.5073177939926314,-0.71960449218,-0.2861328125,0.018776699066119742,0.7374640213778946,0.61535644531,0.87145996093,0.005663922515834537,0.2627942536989474,-0.42956542968,0.71618652343,0.14756755666706456,1.0163919805795791,0.83842108236,1.17649012643,0.007509299629618464,972.842104671694,972.54542841785,973.23225140663,0.039511176371792536,-0.0022499292425015977,Null
-0.355829216448353,-0.59301757812,-0.07202148437,0.031082702145967627,0.46962890624611753,0.32983398437,0.61267089843,0.004886655154678812,0.8323428883237647,0.57775878906,0.9482421875,0.008532691039405288,1.03886033476,0.91659276386,1.24960933183,0.00476417339714313,972.701253759136,972.42688028486,973.07856715583,0.03227989097163684,-0.005984610084824057,Null
-0.36924689797294125,-0.60278320312,-0.13269042968,0.02028869084962766,0.7218419692062351,0.39099121093,0.94287109375,0.019852503207660077,0.579700425088235,0.19201660156,0.93713378906,0.042449559705841466,1.0351629919631766,0.92677342489,1.15734713284,0.0035501271276000635,972.5422771211055,972.31091528876,972.78617606004,0.013835067990936459,0.0011806823525325478,Null
-0.397133402301584,-0.68469238281,-0.18322753906,0.01591714469524658,0.7356488822678217,0.59875488281,0.89660644531,0.007926841502035665,0.612774839491782,0.3798828125,0.79455566406,0.011291006024354133,1.0486795951334649,0.88894358243,1.31258911443,0.009539903374209435,972.6838650874362,972.45596534968,973.01118657466,0.02533533926802983,-0.0015759907259973382,Null
-0.26467285155811116,-0.39990234375,-0.10083007812,0.006338579333335698,0.735337999128,0.64221191406,0.80639648437,0.0021747322043318505,0.6499037000825556,0.50952148437,0.73559570312,0.004771122937127863,1.0225771188455552,0.97128988143,1.0859589403,0.0006283581149089991,972.6174637748352,972.49190739538,972.67557297544,0.0021014384182297227,0.00020238102173295044,Null
-0.4046988138307317,-0.50305175781,-0.31640625,0.002622138382427017,0.7488879692220731,0.60437011718,0.90161132812,0.007567350513531999,0.5420993711856098,0.173828125,0.72448730468,0.024189257470960592,1.0251322736402437,0.95214349989,1.10929310187,0.0015684914495756308,972.6028205288578,972.48038868798,972.68699072129,0.0026691033580215017,-0.0008194476413548647,Null
-0.38001933850381575,-0.50756835937,-0.24389648437,0.0055542913942156465,0.7244712428014473,0.53283691406,0.96887207031,0.02702093416160811,0.4898344341036841,0.02648925781,0.84045410156,0.10831329886099579,1.0229505593576318,0.92429066021,1.10280680214,0.0018421723801601481,972.7837534271733,972.6276622203,972.94862117749,0.007562543629282343,0.0006236468264930969,Null
-0.34809963182000003,-0.45678710937,-0.22668457031,0.00346543176049354,0.5928534145979307,0.5205078125,0.64929199218,0.001656321185771331,0.7527276400818389,0.68627929687,0.86560058593,0.0023883923636905348,1.0226843510947123,0.97278411055,1.07849852684,0.0007971272312294793,972.6606821143399,972.56051887102,972.76311481392,0.003186570196050316,2.0385901845530338e-05,Null
-0.37396613918642857,-0.52124023437,-0.24035644531,0.005498341126576499,0.5883502570909184,0.53234863281,0.64880371093,0.0006827991036665634,0.7478313835258162,0.70715332031,0.78601074218,0.0005273658592991079,1.0254685019833674,0.98825228501,1.06594434802,0.00031610541849094986,972.6475655528372,972.51576447437,972.77882359211,0.004644786115184767,-0.0005904931489177169,Null
-0.34016927082955556,-0.39233398437,-0.24084472656,0.0024867606966381198,0.5754842122351111,0.51037597656,0.625,0.0007718551862117007,0.7719550238672223,0.73046875,0.81701660156,0.0006836868943411638,1.0229501278677777,0.99236311822,1.06390105463,0.00027753682792646994,972.6736029329394,972.58396501952,972.7798550951,0.003164810183945148,-0.00030553671876538637,Null
-0.3289764781025926,-0.50317382812,-0.13195800781,0.01015707924026792,0.5564944420279012,0.38854980468,0.74157714843,0.008895161904359454,0.7755368079628395,0.49279785156,0.94372558593,0.01263266146908261,1.0225834269724692,0.8371766256,1.15994822117,0.00504811593897396,972.6548355291601,972.38403098447,973.03511895765,0.026543639913775462,0.0003456433970556483,Null
-0.31085759942858576,-0.43981933593,-0.20422363281,0.0034614887385111493,0.4727869515421212,0.35778808593,0.94323730468,0.013930280674675737,0.8991193674989898,0.78259277343,1.19848632812,0.009528415850826122,1.0656552562354544,0.93457842019,1.58508205362,0.019802752547268734,972.6451379204419,972.33056854595,972.97111056241,0.02671282294654821,-0.004322008792113383,Null
0.3339051591565958,-0.48901367187,0.55578613281,0.07315197128871075,0.8531065595873404,0.36352539062,1.13623046875,0.025519380873367976,0.07245262632936172,-0.15795898437,0.56311035156,0.03151622148558842,0.9762980311755323,0.6500018106,1.21443893826,0.020394557544921813,972.3992683163495,972.12221004821,972.54920119883,0.007981838919526196,0.0027219219665087038,Null
-0.4113827659932141,-0.76989746093,0.15698242187,0.07250620582806301,0.8708045596130949,0.51062011718,1.14501953125,0.030738042700729225,0.03082130068738095,-0.46032714843,0.31701660156,0.06456067565325989,1.0434940999325004,0.85168597874,1.15343964401,0.005478848078503877,972.7702096060063,972.49924312205,973.08313582956,0.029636945598881175,-0.0021153381461921188,Null
-0.4716499524212821,-0.70849609375,-0.32751464843,0.01479173371785183,0.6764416816867946,0.45092773437,0.84338378906,0.010933386596729874,0.5975341796837178,0.40112304687,0.82165527343,0.01185051729141099,1.0348932192234614,0.931946966,1.14369664667,0.003205137207098036,972.7574124517787,972.50628812885,973.16456329436,0.027379172230975673,-0.004927840324216227,Null
-0.5499058773603946,-1.25952148437,-0.12329101562,0.09654108738438247,0.6440461811224999,0.00366210937,1.15466308593,0.082906360218717,0.4240305047256579,-0.09765625,0.82214355468,0.09600306055974721,1.0639513665413158,0.66679647542,1.5436724929,0.037318508324220886,972.6138935175942,972.16328039573,972.96692219994,0.027062696935270344,0.0032129965136410343,Null
-1.1609239086622682,-1.45739746093,-0.86657714843,0.03471532711111296,0.23422146826319595,0.05017089843,0.49963378906,0.016491865515182554,0.17755189875855668,-0.0947265625,0.56481933593,0.03308599104477037,1.2196764475063917,0.87512256411,1.48198029948,0.030254138158003707,972.4642164202111,972.13618957166,972.62545254473,0.019111551045671287,0.004407176169029641,Null
-0.923251537562021,-1.64526367187,-0.00500488281,0.2055285731321331,0.40740057762244675,0.05517578125,0.94189453125,0.06082838533009143,0.051665610453936174,-0.53173828125,0.44641113281,0.08293058048055316,1.1368768347684042,0.76573092837,1.73535345589,0.07491774143887855,972.6413874349728,972.60114123658,972.73788258037,0.0011061758653255376,0.0008896355055644,Null
0.14453550826372097,0.01184082031,0.32177734375,0.00676933998481059,0.999873671416744,0.81982421875,1.16882324218,0.007600064644919193,-0.2123952466367443,-0.38098144531,0.07458496093,0.014564194873607087,1.0420641950236045,0.86680405533,1.19841017785,0.00854838834794659,972.6318029109956,972.58339710476,972.71102850387,0.0013465986136930582,0.00010958751774092733,Null
-0.48909795851761895,-1.77685546875,0.35900878906,0.561623706503432,0.707407633460238,0.21398925781,1.27307128906,0.1400711127822343,-0.09042067754738098,-0.59484863281,0.28491210937,0.04336427146684271,1.18007350481,0.56114442722,1.83381408697,0.09253575083034861,972.6421662669229,972.60217540629,972.75954361449,0.001366212960981894,-0.0003046361780199584,Null
-0.3173193838067648,-1.44873046875,0.04223632812,0.18874970837579474,0.48076674517156853,0.1220703125,0.84765625,0.06709870211342638,-0.6074721392437253,-1.25598144531,0.28491210937,0.20020536070526782,1.0616218357800002,0.76988228667,1.4919069286,0.025643797930929548,972.6841258674652,972.60460772315,972.76963795427,0.0024329476886369183,0.0010619465495162576,Null
0.185506184893,-0.42431640625,0.48779296875,0.04716946435728303,0.48581000433588883,-0.11962890625,0.98889160156,0.07412786139217831,-0.7446017795101112,-1.15942382812,-0.17980957031,0.08402508288826448,1.0097073423097775,0.82955098187,1.24041085977,0.00848209189091645,972.6815790992289,972.3995778306,972.77054999029,0.006869784199258821,-9.602961298537433e-05,Null
-0.16632675542951222,-1.39489746093,0.19226074218,0.1259947934806823,0.9087018268834147,0.48620605468,1.13195800781,0.032632165927172295,-0.1912544064385366,-0.48779296875,0.06225585937,0.020477257967008507,1.0212669106686583,0.66416120356,1.47851650182,0.024211020860682633,972.5288576688273,972.3995778306,972.61093562748,0.0036644175148958825,0.002357092003931403,Null
-1.1993938245242106,-1.55004882812,-0.85314941406,0.037377447022975935,0.3077649568215789,0.05627441406,0.73547363281,0.03970402491714296,0.16434197676486845,-0.07922363281,0.32983398437,0.015791152244702737,1.2713557419999997,0.85950742048,1.62079553733,0.03605267078210039,972.6394370363363,972.60769680598,972.6784983193,0.00033014246787375364,0.0006536585787483078,Null
-1.1315432312625806,-1.44104003906,-0.72290039062,0.033093133096014915,0.15253276209344088,-0.03979492187,0.5576171875,0.020797514564137653,0.1548179708467742,-0.11010742187,0.37817382812,0.022772770905520618,1.1699269087364514,0.72597795988,1.4704684796,0.035112595563428134,972.6614381196193,972.63756895718,972.71138812799,0.0004930171115138952,0.0001581076680631789,Null
