avg_accX,min_accX,max_accX,var_accX,avg_accY,min_accY,max_accY,var_accY,avg_accZ,min_accZ,max_accZ,var_accZ,avg_magnitude,min_magnitude,max_magnitude,var_magnitude,avg_pressure,min_pressure,max_pressure,var_pressure,slope_pressure,Label
0.04111735,0.035522461,0.050415039,1.24E-05,0.548390706,0.537109375,0.556640625,2.66E-05,-0.874782562,-0.885742188,-0.865966797,2.31E-05,1.033293249,1.019922445,1.044365109,3.44E-05,970.7556814,970.7502125,970.7670186,2.54E-05,0.000129601,Null
0.046656494,0.036743164,0.0546875,2.61E-05,0.549675293,0.531860352,0.563964844,5.94E-05,-0.87338501,-0.882446289,-0.864746094,2.52E-05,1.033060087,1.025660256,1.045017345,1.78E-05,970.7617373,970.7562161,970.7675643,5.96E-06,-2.43E-05,Null
0.05291748,0.047363281,0.060058594,1.40E-05,0.545101318,0.536254883,0.5546875,2.23E-05,-0.875004883,-0.885498047,-0.86340332,3.82E-05,1.032284472,1.022651902,1.043995277,3.22E-05,970.7603505,970.7547141,970.7649573,7.56E-06,5.87E-05,Null
0.062843018,0.044311523,0.091064453,0.00013957,0.548360596,0.534790039,0.557006836,4.16E-05,-0.868143311,-0.881713867,-0.846923828,0.000118014,1.02885142,1.010430152,1.04089382,8.31E-05,970.7610508,970.7530042,970.7674197,1.47E-05,4.37E-05,Null
0.058782959,0.052124023,0.070556641,1.73E-05,0.553040771,0.539550781,0.567260742,4.71E-05,-0.868798828,-0.885986328,-0.85559082,7.07E-05,1.031609826,1.022383679,1.042853095,3.62E-05,970.7633413,970.7565728,970.7696034,1.01E-05,-1.84E-05,Null
0.058544922,0.050415039,0.070556641,2.06E-05,0.554237061,0.547119141,0.561645508,2.00E-05,-0.866105957,-0.872680664,-0.855712891,1.82E-05,1.029943956,1.021085249,1.039531502,1.96E-05,970.760671,970.7567327,970.7657896,7.14E-06,-3.94E-06,Null
0.041340332,-0.154785156,0.184448242,0.008181592,0.740334473,0.440551758,0.951660156,0.026912768,-0.647003174,-0.900756836,-0.282958984,0.035854952,1.018691904,0.935425673,1.051211315,0.000933218,970.7444788,970.6688154,970.7733339,0.00134503,0.000238329,Null
0.120406494,0.092407227,0.161132813,0.000421765,0.810041504,0.745239258,0.85925293,0.001611291,-0.628353271,-0.710083008,-0.573364258,0.001991505,1.034009934,0.999262642,1.076682363,0.000303603,970.7582842,970.7510513,970.7681261,1.68E-05,1.96E-05,Null
0.13140625,0.119750977,0.146118164,5.70E-05,0.752294922,0.746826172,0.760742188,1.71E-05,-0.692180176,-0.703125,-0.678344727,5.00E-05,1.030739574,1.017880957,1.039345387,2.76E-05,970.7585488,970.7508763,970.7650303,1.45E-05,7.53E-06,Null
0.134368896,0.124267578,0.144897461,3.04E-05,0.755367432,0.740356445,0.76550293,5.28E-05,-0.685780029,-0.700927734,-0.666137695,6.41E-05,1.029099949,1.020665419,1.038139406,2.85E-05,970.7532172,970.7442767,970.7579543,1.20E-05,-8.57E-05,Null
0.132381592,0.120727539,0.141723633,3.13E-05,0.73362793,0.702026367,0.748779297,0.000227646,-0.704455566,-0.724853516,-0.688354492,0.00011854,1.025832713,1.013738685,1.034383471,3.37E-05,970.7486361,970.7430195,970.7573825,1.38E-05,4.61E-05,Null
0.138323975,0.124145508,0.148803711,3.65E-05,0.731219482,0.702026367,0.741333008,6.21E-05,-0.715489502,-0.728027344,-0.70324707,3.83E-05,1.03239436,1.013738685,1.044337036,3.86E-05,970.7438106,970.7381036,970.752282,1.55E-05,5.42E-05,Null
0.139431152,0.098388672,0.172973633,0.000509677,0.183087158,-0.216186523,0.7734375,0.186911555,-0.896420898,-1.003295898,-0.712646484,0.010865,1.024078969,0.899660663,1.185116849,0.00413941,970.7356744,970.7149286,970.770196,0.00018228,-0.000271879,Null
0.168505859,0.149658203,0.203613281,9.76E-05,-0.176258545,-0.209106445,-0.144287109,0.000331986,-0.992821045,-1.009765625,-0.979980469,6.02E-05,1.022530158,1.00820349,1.038926266,7.25E-05,970.7305247,970.7269873,970.7354691,7.56E-06,7.16E-05,Null
0.12069458,-0.036865234,0.32434082,0.014604444,0.038380127,-0.144287109,0.282592773,0.01191492,-1.011376953,-1.14465332,-0.954833984,0.002616847,1.032133022,0.954896188,1.165544686,0.002494777,970.7358358,970.7130172,970.7582278,0.00014424,0.000238655,Null
0.186972656,-0.179321289,1.211547852,0.189831691,0.338548584,0.057250977,0.754882813,0.05016179,-0.725712891,-1.028564453,-0.001708984,0.094191596,0.992358155,0.577247882,1.216133182,0.022526905,970.7165862,970.6565416,970.788801,0.000795593,-0.00018719,Null
0.983901367,0.890991211,1.096923828,0.003108671,0.198143311,-0.094360352,0.549072266,0.016674232,-0.043632812,-0.198242188,0.096801758,0.008758691,1.016996299,0.909827259,1.110908932,0.003233535,970.7486896,970.6944111,970.7728163,0.00027678,0.000466301,Null
0.973200684,0.777832031,1.180297852,0.012761717,0.245910645,0.112304688,0.51184082,0.010113839,-0.11873291,-0.383911133,0.030639648,0.00916968,1.019451717,0.814261453,1.272030826,0.01427485,970.7516449,970.739473,970.7680587,5.74E-05,-3.08E-05,Null
0.972880859,0.809570313,1.245117188,0.014265877,0.254283447,0.087280273,0.419799805,0.006117818,-0.104390869,-0.350097656,0.03112793,0.009628394,1.016689871,0.843107553,1.300768557,0.018291279,970.7555627,970.7325237,970.7806566,0.000128171,5.55E-05,Null
0.987880859,0.774658203,1.339233398,0.025952322,0.240097656,0.135375977,0.48840332,0.007237043,-0.124290771,-0.393676758,0.044921875,0.01340246,1.03148229,0.807117211,1.435354357,0.031488752,970.7589483,970.7324512,970.7916966,0.000206201,0.000115823,Null
0.96645874,0.783203125,1.233032227,0.016036574,0.256959229,0.086914063,0.500732422,0.008675844,-0.110500488,-0.412597656,0.038085938,0.011717865,1.01450782,0.841866696,1.303134434,0.019313901,970.7596851,970.7377052,970.7916966,0.000202971,-7.84E-05,Null
0.944631348,0.709716797,1.337280273,0.031206797,0.247259521,0.142211914,0.406860352,0.004276435,-0.111278076,-0.400512695,0.091552734,0.01021996,0.990598486,0.751255018,1.362831599,0.030110368,970.7761004,970.7557737,970.8030256,0.000253476,0.000448368,Stairs down
0.992563477,0.741821289,1.438232422,0.034853285,0.18654541,0.026000977,0.338989258,0.006259027,-0.120983887,-0.326049805,0.07421875,0.011001272,1.02503138,0.78717409,1.489059885,0.035880469,970.8283355,970.8000357,970.874997,0.000391762,0.000584173,Stairs down
0.997279053,0.657470703,1.470336914,0.049221416,0.215042725,0.085083008,0.370849609,0.004944613,-0.061707764,-0.264648438,0.112182617,0.010945397,1.029316313,0.679676549,1.475495589,0.050085828,970.8881806,970.8515636,970.9256572,0.000517653,0.000648169,Stairs down
0.948790283,0.719116211,1.219604492,0.014919801,0.203200684,0.106201172,0.323242188,0.002903385,-0.086988525,-0.241821289,0.046142578,0.006508884,0.979830773,0.751921596,1.232662057,0.013213059,970.9219031,970.8992565,970.9452271,0.000117729,0.000202367,Stairs down
0.983927002,0.66784668,1.292724609,0.044252458,0.222338867,0.089355469,0.419799805,0.0046026,-0.110831299,-0.305297852,0.009521484,0.006987888,1.019430133,0.705100801,1.385203665,0.046340619,970.9732559,970.9216592,971.0265134,0.000607507,0.000765683,Stairs down
0.98755127,0.617431641,1.399780273,0.06318201,0.234282227,0.114990234,0.427612305,0.006458138,-0.094108887,-0.306030273,0.036254883,0.007336794,1.025692104,0.644447367,1.433050526,0.063803065,971.0613345,971.020282,971.1133936,0.000697309,0.000837808,Stairs down
0.986711426,0.720581055,1.400634766,0.027322297,0.259022217,0.111694336,0.513549805,0.010432612,-0.081452637,-0.305175781,0.104858398,0.009596309,1.032758105,0.781867232,1.434425674,0.02789382,971.1288394,971.098563,971.1588131,0.000218695,0.000388582,Stairs down
0.992501221,0.68762207,1.458862305,0.049512177,0.286367187,0.135498047,0.729614258,0.019123625,-0.09949707,-0.297973633,0.070068359,0.008799493,1.047127539,0.72451322,1.489284433,0.053903303,971.1762053,971.1468725,971.2210065,0.000379352,0.000468709,Stairs down
0.958751221,0.823242188,1.150878906,0.00459143,0.21795166,0.060791016,0.324829102,0.004933705,-0.119283447,-0.260864258,0.021972656,0.006595326,0.999624945,0.865291352,1.189281495,0.005189641,971.2116814,971.190876,971.2338697,0.000110975,9.85E-05,Stairs down
0.965996094,0.879760742,1.145385742,0.004914867,0.274941406,0.209716797,0.387207031,0.002006853,-0.145097656,-0.274414063,0.046020508,0.009032287,1.02066173,0.928208955,1.18329628,0.003877433,971.2176493,971.1992667,971.2615472,0.000234318,0.000165578,Stairs down
0.975053711,0.82409668,1.146362305,0.009043363,0.254907227,0.162841797,0.400512695,0.003444938,-0.11315918,-0.329956055,-0.018676758,0.007780937,1.019506078,0.859633442,1.193367579,0.009279128,971.2156383,971.1992667,971.2525275,0.000141748,-2.23E-05,Stairs down
0.967641602,0.795410156,1.255249023,0.014857999,0.214853516,0.069702148,0.394165039,0.004631221,-0.156035156,-0.334716797,0.009155273,0.006847234,1.008442015,0.848889293,1.340688017,0.016118246,971.2175199,971.1972189,971.2404029,0.000188885,8.61E-05,Stairs down
0.995874023,0.796020508,1.322875977,0.022679459,0.239516602,0.064331055,0.452148438,0.00956546,-0.105512695,-0.237915039,0.061035156,0.007360322,1.037831113,0.856364204,1.329836276,0.022608051,971.2113616,971.1800167,971.2425303,0.000340952,4.88E-05,Stairs down
0.97246582,0.806640625,1.308105469,0.015793326,0.208549805,0.049438477,0.351074219,0.004407265,-0.144716797,-0.315307617,0.008666992,0.008165776,1.010096792,0.838068207,1.366997678,0.018093858,971.2193466,971.203647,971.2590192,0.000258444,-8.83E-06,Stairs down
0.953969727,0.822509766,1.16015625,0.008513206,0.250522461,0.118164063,0.38659668,0.005484611,-0.088520508,-0.321044922,0.077758789,0.011881769,0.997716151,0.855202324,1.262903118,0.010948379,971.2183636,971.1988351,971.2427792,0.000132849,9.75E-05,Stairs down
0.964169922,0.635253906,1.326904297,0.040977683,0.213110352,0.099487305,0.317016602,0.003946414,-0.134257812,-0.377563477,0.060913086,0.009415235,1.003342989,0.677940953,1.376606182,0.040569297,971.2533058,971.2290763,971.2850297,0.000260025,0.000471807,Stairs down
0.998222656,0.837768555,1.329956055,0.011086522,0.182587891,0.016235352,0.368774414,0.007485107,-0.065698242,-0.183959961,0.049682617,0.004213724,1.022732276,0.883247513,1.344541682,0.010787131,971.3026281,971.2788142,971.3214951,0.000133541,0.000320935,Stairs down
0.941757812,0.676391602,1.3359375,0.039416486,0.179077148,0.033569336,0.304443359,0.004760806,-0.054970703,-0.311035156,0.15637207,0.009490083,0.967177222,0.700251291,1.359982147,0.040098083,971.3365282,971.3012259,971.3699527,0.000403961,0.000638823,Stairs down
1.005429687,0.684204102,1.404541016,0.050819945,0.195410156,-0.030273438,0.302368164,0.006086989,-0.091420898,-0.271362305,0.105834961,0.006903193,1.034554116,0.707700897,1.437844655,0.050809669,971.3997748,971.3614491,971.445248,0.000589141,0.000757966,Stairs down
0.951308594,0.633544922,1.362060547,0.053591299,0.19371582,-0.045898438,0.361694336,0.009632349,-0.105625,-0.302368164,0.077758789,0.008370221,0.985212202,0.659838685,1.397611225,0.054449846,971.4849556,971.4314893,971.566155,0.000977422,0.000929714,Stairs down
0.989326172,0.685058594,1.373046875,0.0388315,0.193540039,0.013549805,0.401855469,0.005981858,-0.094360352,-0.231933594,0.02331543,0.004070841,1.017579117,0.730834706,1.386096277,0.038440398,971.5668749,971.518098,971.6173615,0.000596956,0.000765493,Stairs down
0.986826172,0.664916992,1.307128906,0.018120255,0.249746094,0.167480469,0.518798828,0.006026815,-0.094101562,-0.421875,0.039672852,0.01035361,1.029955048,0.755616013,1.359101964,0.018588265,971.6289304,971.6036321,971.6499337,0.000208548,0.000424728,Stairs down
0.98125,0.689208984,1.345947266,0.046778646,0.200053711,0.091064453,0.357910156,0.003283433,-0.089130859,-0.304443359,0.074951172,0.007261809,1.011380623,0.729268419,1.359783407,0.04512853,971.6678386,971.6418948,971.7067945,0.000383829,0.000540612,Stairs down
1.014863281,0.727905273,1.428833008,0.028144813,0.176245117,-0.061767578,0.305908203,0.009249535,-0.146162109,-0.270141602,-0.012573242,0.004190633,1.04682301,0.761973441,1.448600663,0.027983738,971.7123731,971.6820576,971.7758884,0.000394717,5.53E-05,Null
0.985703125,0.858764648,1.180908203,0.006857806,0.194482422,0.014648438,0.338623047,0.009147408,-0.103505859,-0.379394531,0.078125,0.012273047,1.020402638,0.912822681,1.212107173,0.006991375,971.6928349,971.6625283,971.7414489,0.000333949,-0.000352481,Null
0.981982422,0.932495117,1.0546875,0.000778071,0.139174805,-0.018554688,0.240722656,0.004403905,-0.140043945,-0.233276367,0.009033203,0.003674613,1.005649557,0.965527335,1.073718714,0.000715557,971.6754999,971.6633424,971.6889582,4.86E-05,-0.000127537,Null
0.981875,0.95715332,1.040161133,0.000345412,0.169799805,0.078735352,0.268066406,0.002029335,-0.120009766,-0.221923828,-0.047607422,0.001573912,1.005434456,0.978743011,1.054433064,0.000326828,971.6750525,971.6687206,971.6833442,2.07E-05,8.41E-05,Null
0.982783203,0.805419922,1.164672852,0.008325623,0.222563477,0.102172852,0.340942383,0.004477012,-0.128398437,-0.378051758,0.001708984,0.008367294,1.022292967,0.897420739,1.200859978,0.007837176,971.6773445,971.6550543,971.7023111,0.000109557,-6.70E-05,Null
0.963427734,0.803344727,1.135498047,0.007824668,0.245292969,0.119018555,0.396484375,0.005017802,-0.146430664,-0.319091797,-0.016235352,0.007725782,1.009901949,0.838645275,1.22361949,0.010367881,971.681445,971.6671794,971.7208677,0.000181054,4.20E-05,Null
0.974902344,0.87878418,1.0625,0.002210564,0.170410156,0.067016602,0.311279297,0.004408921,-0.161303711,-0.273925781,-0.048828125,0.003403245,1.006819358,0.927564537,1.086052154,0.001747849,971.6818023,971.67289,971.6936988,3.41E-05,-0.000118576,Null
0.975454102,0.919311523,1.021972656,0.000930538,0.214038086,0.108886719,0.333374023,0.00462779,-0.102729492,-0.255004883,0.004638672,0.005402441,1.008934979,0.951947227,1.050921413,0.00078558,971.6769461,971.6673658,971.6920524,4.45E-05,-7.01E-05,Null
0.972797852,0.9140625,1.036865234,0.000776152,0.199335937,0.047851563,0.285400391,0.00488311,-0.105615234,-0.237304688,0.040161133,0.003731955,1.002955631,0.954359795,1.056817687,0.000608446,971.6817125,971.6714462,971.6889762,2.46E-05,-6.58E-06,Null
0.852661133,0.575927734,1.020874023,0.025636539,0.379882812,0.072387695,0.756347656,0.068427026,-0.216762695,-0.346313477,0.056518555,0.007270655,1.008523839,0.920816606,1.093821292,0.001544008,971.7509574,971.6830202,971.9909255,0.006773728,0.001842206,Null
0.656904297,0.424682617,1.018798828,0.022587528,0.776816406,0.383422852,1.184448242,0.039539663,-0.058955078,-0.30847168,0.208129883,0.019812363,1.052211185,0.873558134,1.322335888,0.012539864,971.6178411,971.457469,971.8085185,0.010838903,0.000571019,Null
0.482280273,-0.104614258,1.198486328,0.15405043,0.625185547,0.341674805,1.162109375,0.030359772,0.214887695,-0.276489258,1.101928711,0.192599558,0.991578398,0.483895357,1.421306334,0.060242318,971.6619178,971.5743365,971.8489265,0.004608411,-0.000306878,Null
0.483964844,0.04284668,0.98828125,0.125069765,0.470522461,0.256835938,0.637939453,0.014371677,0.483798828,-0.210083008,0.961547852,0.17235302,0.998068214,0.910986248,1.083837647,0.002233353,971.668094,971.6482219,971.6929318,0.000215674,0.00043441,Null
0.962866211,0.935668945,0.986816406,0.00012444,0.257036133,0.229248047,0.277587891,0.000153718,-0.11574707,-0.146118164,-0.09387207,0.000194093,1.003450622,0.973499545,1.029713165,0.000131996,971.6842291,971.6803595,971.6918972,7.88E-06,-4.05E-05,Null
0.110826416,-0.788696289,1.13269043,0.432303585,0.659178467,-0.388671875,1.321044922,0.153645691,-0.004799805,-0.3125,0.370117188,0.050218844,0.993225548,0.225359287,1.503793539,0.091041649,971.6854249,971.6074486,971.7955953,0.003104712,-0.001118252,Null
0.542021484,-0.14831543,1.055297852,0.237942751,0.50109375,0.152832031,0.836791992,0.057821049,0.237226563,-0.146240234,0.727783203,0.122251232,1.00459258,0.780314878,1.130715356,0.005845767,971.6552134,971.618027,971.7208512,0.000728837,-0.000107338,Null
-0.118212891,-0.174194336,-0.013427734,0.001886459,0.746757812,0.706420898,0.819335938,0.000827086,0.669165039,0.58215332,0.700073242,0.000701232,1.011229586,0.979418005,1.032210358,0.00020073,971.6494288,971.6413624,971.6605879,3.78E-05,4.60E-05,Null
-0.116679687,-0.229125977,-0.019042969,0.003927026,0.691508789,0.589355469,0.815551758,0.003323335,0.723344727,0.591186523,0.850708008,0.00483054,1.011019199,0.920265377,1.178955647,0.004875171,971.654812,971.6439099,971.6624971,1.63E-05,3.93E-05,Null
0.320620117,-0.047973633,0.956054688,0.134152451,0.676206055,0.330932617,0.83581543,0.018838964,0.494716797,-0.100219727,0.861328125,0.084867619,1.014204024,0.788570014,1.196843339,0.011785091,971.6717905,971.6215953,971.780744,0.001523768,0.000291616,Null
0.921328125,0.804077148,1.123413086,0.006272203,0.438144531,0.271728516,0.599609375,0.00827599,0.089223633,-0.173828125,0.296508789,0.020393403,1.037608406,0.932745552,1.24994133,0.006806037,971.6622333,971.6355523,971.6846236,0.000243849,0.000424506,Null
0.918496094,0.815429688,1.020996094,0.001929029,0.406992187,0.267944336,0.488037109,0.003135987,-0.001010742,-0.122558594,0.097290039,0.003847641,1.008362889,0.932478322,1.08097664,0.001319748,971.6843758,971.6734522,971.706101,4.12E-05,0.000116815,Null
0.927530518,0.889160156,0.949829102,0.000131049,0.381971436,0.354492188,0.450317383,0.000487995,-0.026990967,-0.04699707,-0.0078125,8.70E-05,1.003787141,0.99135944,1.018103136,5.44E-05,971.7021646,971.6901618,971.7109478,5.35E-05,0.000105064,Lift down
0.942753906,0.92199707,0.982543945,0.000333952,0.348032227,0.272216797,0.393798828,0.001208087,-0.01328125,-0.033935547,0.031860352,0.000504995,1.005930682,0.979899146,1.033005968,0.000219977,971.7221765,971.708853,971.7471216,0.000126072,0.000299761,Lift down
0.940292969,0.881835938,0.977661133,0.000530913,0.288188477,0.194213867,0.525268555,0.007739993,-0.183598633,-0.228271484,-0.057128906,0.001912715,1.005359097,0.976669634,1.03553916,0.000249285,971.7411369,971.7220602,971.7807237,0.000201788,-0.000167816,Lift down
0.944736328,0.934570313,0.953613281,1.96E-05,0.243564453,0.23449707,0.250854492,1.92E-05,-0.221938477,-0.23425293,-0.205444336,9.45E-05,1.000605457,0.990749037,1.012036638,2.81E-05,971.7307222,971.7216113,971.7410795,1.83E-05,-7.37E-05,Lift down
0.948447266,0.937133789,0.956054688,1.93E-05,0.232709961,0.196899414,0.25012207,0.000150942,-0.214897461,-0.224853516,-0.202636719,2.68E-05,1.00002478,0.986246034,1.011545557,3.29E-05,971.7210176,971.7033849,971.7385063,0.000101965,-0.000249217,Lift down
0.951625977,0.939697266,0.964599609,4.00E-05,0.233427734,0.222045898,0.246704102,3.21E-05,-0.214052734,-0.22265625,-0.202026367,3.53E-05,1.002978659,0.991734461,1.014255253,3.96E-05,971.6954072,971.6848468,971.710723,5.12E-05,-0.000214832,Lift down
0.956625977,0.94519043,0.989746094,9.17E-05,0.221420898,0.148925781,0.234741211,0.000281886,-0.215058594,-0.238647461,-0.203613281,8.04E-05,1.005385551,0.993840118,1.028945494,6.06E-05,971.6881094,971.6812054,971.6952261,1.21E-05,2.23E-05,Lift down
0.707714844,0.369750977,0.950073242,0.054262183,0.478115234,0.289550781,0.749023438,0.027697744,0.180195313,-0.184692383,0.687988281,0.125008332,0.982450963,0.865822792,1.037521367,0.001629808,971.6901598,971.6451725,971.7871647,0.000744721,-0.000295847,Lift down
0.941196289,0.935913086,0.948486328,1.77E-05,0.295805664,0.284912109,0.302246094,1.53E-05,-0.179516602,-0.190795898,-0.169433594,3.28E-05,1.002808994,0.998023389,1.01012325,1.70E-05,971.6952704,971.6888725,971.6998841,6.57E-06,3.05E-05,Lift down
0.944262695,0.938720703,0.947875977,4.89E-06,0.289033203,0.280029297,0.294677734,1.42E-05,-0.182045898,-0.187744141,-0.170776367,1.88E-05,1.004161669,0.997266617,1.009719656,9.85E-06,971.6973026,971.690706,971.7056712,8.03E-06,-6.40E-05,Lift down
0.945458984,0.939086914,0.952514648,1.50E-05,0.291240234,0.286010742,0.30090332,1.53E-05,-0.178569336,-0.186645508,-0.167602539,2.22E-05,1.005304477,0.999007164,1.014367271,1.55E-05,971.6939147,971.6870946,971.7031688,1.98E-05,8.15E-05,Lift down
0.94409668,0.932495117,0.950805664,1.80E-05,0.296582031,0.285522461,0.315185547,4.54E-05,-0.171577148,-0.193237305,-0.152099609,0.00012217,1.004435213,0.994057065,1.008743411,1.18E-05,971.7122134,971.6948843,971.7283836,7.68E-05,0.000285107,Lift down
0.919199219,0.884887695,0.948730469,0.000500412,0.287412109,0.279052734,0.298583984,4.76E-05,-0.165361328,-0.179199219,-0.148681641,4.49E-05,0.977218971,0.943616133,1.006512676,0.000512463,971.7297832,971.719194,971.7445064,2.11E-05,0.000111441,Lift down
0.754813232,0.561279297,0.922973633,0.01314477,0.587706299,0.257324219,0.783081055,0.034663918,-0.032105713,-0.17590332,0.140014648,0.0090875,0.984483095,0.907032662,1.128521712,0.003326009,971.8293717,971.7547568,971.9449617,0.003864816,0.000673523,Lift down
0.898920898,0.622558594,1.060058594,0.017380555,0.380180664,0.131103516,0.732910156,0.031898308,-0.004960938,-0.230834961,0.292114258,0.028110716,1.013537828,0.940583166,1.118534863,0.001997458,971.990982,971.8722245,972.1082718,0.006123768,0.00258227,Lift down
0.991826172,0.905395508,1.028930664,0.000928935,0.319731445,0.205200195,0.478759766,0.006790596,-0.068095703,-0.141601563,0.066772461,0.004083278,1.049470085,0.984331175,1.108326672,0.000890605,972.2155023,972.1282514,972.2532825,0.001560389,0.001235468,Lift down
0.978173828,0.938964844,1.013793945,0.000542164,0.196240234,0.126220703,0.304321289,0.002613628,-0.109702148,-0.184448242,-0.03515625,0.002116677,1.005938507,0.955837993,1.05888806,0.000683125,972.2467421,972.2356111,972.2551944,3.86E-05,-5.83E-05,Lift down
0.970595703,0.950195313,0.990966797,0.000130087,0.173813477,0.092895508,0.215454102,0.00077731,-0.19300293,-0.206420898,-0.168334961,7.47E-05,1.00516668,0.988712036,1.023421033,0.000130852,972.2443915,972.2388524,972.2484383,5.49E-06,-3.74E-06,Lift down
0.968320312,0.943603516,1.000488281,0.000158247,0.179365234,0.152099609,0.216186523,0.000271024,-0.191879883,-0.208129883,-0.114257813,0.000522414,1.003730764,0.977610987,1.028341672,0.000101743,972.2437189,972.2401004,972.2517449,1.03E-05,3.21E-05,Lift down
0.960839844,0.840332031,1.057128906,0.002918954,0.276992187,0.184082031,0.394042969,0.003325424,-0.142034912,-0.231567383,-0.074951172,0.002742011,1.012874867,0.910293782,1.13147884,0.003124064,972.2556244,972.2433091,972.276488,5.39E-05,0.000152569,Null
0.633730469,-0.509033203,1.262084961,0.33181582,0.518974609,0.186645508,1.238891602,0.078993626,-0.124345703,-0.32409668,0.173828125,0.009134671,1.019610635,0.55509618,1.540843891,0.063181449,972.2550752,972.0799446,972.5463133,0.016986324,-0.001071664,Null
0.982646484,0.807250977,1.264648438,0.012714899,0.236420898,0.091674805,0.383544922,0.004415161,-0.155200195,-0.348266602,0.011474609,0.009891186,1.028023008,0.84417517,1.36664992,0.015652306,972.2323464,972.151099,972.2830815,0.001096884,0.000809128,Null
0.950117187,0.715332031,0.990234375,0.002705847,0.252363281,0.199707031,0.505126953,0.005028932,-0.184291992,-0.376098633,-0.145751953,0.00335281,1.005478284,0.948345458,1.05181716,0.00036724,972.26324,972.250463,972.3253063,0.000446644,0.000320687,Null
0.773071289,0.641845703,0.946533203,0.014387676,0.553769531,0.302978516,0.73425293,0.021952624,0.082802734,-0.214477539,0.295043945,0.026176556,0.985643868,0.876866827,1.049912821,0.001569755,972.2406999,972.2165905,972.3217367,0.00036916,8.69E-05,Null
0.967817383,0.894042969,1.076538086,0.001682998,0.299995117,0.104125977,0.416015625,0.006138556,-0.047407227,-0.21472168,0.036865234,0.005688567,1.02023937,0.917633531,1.099781992,0.001415808,972.2603843,972.2455788,972.2774722,7.78E-05,0.000205976,Null
0.8446875,0.395385742,1.196289063,0.04001488,0.466474609,0.167724609,0.871948242,0.046934001,-0.093491211,-0.216796875,0.041259766,0.005243823,1.010469591,0.855558156,1.313694961,0.01015972,972.2537506,972.221719,972.2972781,0.000395665,1.48E-05,Null
0.963046875,0.794189453,1.170166016,0.009791864,0.299785156,0.142333984,0.466064453,0.005001984,-0.103398437,-0.416259766,0.05456543,0.013102557,1.021467066,0.829608434,1.301671208,0.012367811,972.2538098,972.2290753,972.273339,0.000135604,5.72E-05,Null
0.959536133,0.787963867,1.169921875,0.013023806,0.239912109,0.103271484,0.336547852,0.004770872,-0.115639648,-0.275024414,0.009033203,0.005653828,0.999777454,0.826547551,1.226012969,0.015453538,972.2614307,972.2377202,972.2839581,0.00014258,-0.000122798,Null
0.976672156,0.770385742,1.20324707,0.013078119,0.258784925,0.150268555,0.45703125,0.006511456,-0.121927552,-0.301025391,0.015136719,0.008146998,1.022588398,0.825995154,1.304976369,0.017602239,972.2753735,972.2591416,972.307739,0.000213012,0.000146324,Null
0.966015832,0.722290039,1.19543457,0.011705919,0.241178868,0.045898438,0.587036133,0.023574138,-0.027359267,-0.280395508,0.298217773,0.041574598,1.029152158,0.894707342,1.291249276,0.009229762,971.6657414,971.6525482,971.6820958,5.66E-05,-9.16E-07,Stairs up
0.990863438,0.830200195,1.203857422,0.013279785,0.264750014,-0.010742188,0.538452148,0.014016353,-0.021650997,-0.239501953,0.295776367,0.025129176,1.043541223,0.878350493,1.291249276,0.015549552,971.6702157,971.6558735,971.6861826,8.80E-05,8.42E-05,Stairs up
0.989384689,0.814575195,1.238647461,0.016441906,0.217878207,0.092529297,0.380737305,0.007512053,-0.148721049,-0.309814453,-0.023193359,0.006915792,1.029882002,0.820737946,1.318995423,0.018587024,971.6564363,971.6285573,971.6887621,0.000179699,-0.000104675,Stairs up
0.953234569,0.778564453,1.322509766,0.017291482,0.168749706,0.044311523,0.322998047,0.004666531,-0.108278573,-0.364379883,0.015258789,0.007823649,0.979012695,0.788578574,1.387287168,0.020114425,971.6633925,971.6335736,971.7250439,0.000686622,1.23E-05,Stairs up
1.014135984,0.836547852,1.256958008,0.015344682,0.161009534,-0.270385742,0.376342773,0.021257403,-0.113761071,-0.373779297,0.046508789,0.010784293,1.047860871,0.875433474,1.273733052,0.016558806,971.6558749,971.6388204,971.6799022,0.000126625,-7.40E-05,Stairs up
0.942518914,0.729248047,1.286743164,0.020831309,0.191275761,0.03125,0.405273438,0.009436663,-0.023031301,-0.255981445,0.147949219,0.010764789,0.971829091,0.748608182,1.329273546,0.021929954,971.6172455,971.5859124,971.6757319,0.000426705,-0.000266868,Stairs up
0.977705014,0.78112793,1.203857422,0.013491839,0.16974954,-0.046020508,0.424560547,0.017199108,-0.095292235,-0.244384766,0.053710938,0.004899368,1.007237315,0.828261184,1.217641112,0.014293034,971.5900475,971.5727662,971.6041109,0.000115748,-8.51E-05,Stairs up
0.992003962,0.776245117,1.299926758,0.02608121,0.085493372,-0.084716797,0.200683594,0.004738543,-0.024248705,-0.161621094,0.119750977,0.003946491,1.00030361,0.793345977,1.315891884,0.026066205,971.55028,971.5130634,971.5755573,0.000308712,-0.000393716,Stairs up
0.966652269,0.798950195,1.286010742,0.022675127,0.102478966,0.017822266,0.287109375,0.003421567,-0.029498761,-0.127929688,0.119750977,0.003199095,0.976162596,0.805322128,1.288755398,0.022136024,971.5001787,971.4619762,971.5327359,0.00037296,-0.000411909,Stairs up
0.951710254,0.690307617,1.315673828,0.029755586,0.245901119,-0.292602539,0.617797852,0.046586571,-0.031030556,-0.251098633,0.049804688,0.004252213,1.012593083,0.797867409,1.355134406,0.02209413,971.4452859,971.4051229,971.5441576,0.001297003,-0.000497489,Stairs up
1.000374756,0.809448242,1.284423828,0.023103871,0.095297852,-0.014770508,0.212158203,0.003249212,-0.002894287,-0.149780273,0.132202148,0.005240729,1.009485796,0.819984743,1.291112357,0.02232561,971.3963993,971.3446681,971.4159439,0.000173845,-0.000168746,Stairs up
0.95083902,0.782470703,1.272094727,0.01800694,0.037985159,-0.126831055,0.143310547,0.003254176,-0.003080146,-0.156738281,0.132202148,0.008004482,0.957520852,0.789962916,1.279186809,0.017900543,971.3372546,971.3074178,971.3781571,0.000337898,-0.000274099,Stairs up
1.00815318,0.791503906,1.258178711,0.013738867,0.046507991,-0.126831055,0.211791992,0.011363431,0.006035699,-0.156738281,0.142211914,0.008432788,1.018968415,0.798110994,1.262626782,0.013680946,971.3024933,971.2766023,971.3204127,0.000171369,-0.000228832,Stairs up
1.012889396,0.758544922,1.364135742,0.029062661,0.082880473,-0.142700195,0.318359375,0.010944369,0.022092092,-0.115722656,0.124389648,0.004776779,1.023644154,0.769630271,1.383494785,0.030133216,971.2728547,971.2436273,971.3074613,0.00034331,-0.000392154,Stairs up
0.959516185,0.810913086,1.252563477,0.013654825,0.068907272,-0.142700195,0.288330078,0.016505166,0.006227478,-0.202758789,0.19128418,0.012647799,0.976832906,0.811674597,1.255702702,0.013839002,971.2277011,971.2077945,971.2436273,4.68E-05,-8.80E-05,Stairs up
0.974107777,0.822021484,1.114990234,0.002898491,0.15703199,-0.186401367,0.307006836,0.012914658,-0.087183357,-0.267089844,0.138671875,0.015584391,1.004874273,0.851839196,1.137925127,0.002596627,971.2137263,971.1979147,971.2504877,0.000219297,0.000216925,Stairs up
0.989214517,0.85925293,1.091796875,0.004324724,0.1621208,-0.092895508,0.378540039,0.016233684,-0.115001058,-0.314697266,0.113891602,0.012937737,1.022877172,0.899362619,1.15741584,0.005132471,971.1954827,971.1715098,971.2202514,0.000163607,6.69E-05,Null
0.993799816,0.792114258,1.189453125,0.010610268,0.173485199,0.067749023,0.303588867,0.003600973,-0.079078277,-0.215820313,0.080688477,0.004262461,1.015986351,0.852691025,1.205836208,0.010186094,971.2152157,971.1898887,971.3924266,0.000494211,0.000132847,Null
0.767667696,0.442871094,1.279296875,0.047970191,0.088028549,-0.317260742,0.390014648,0.036586732,0.509111677,0.018554688,0.909912109,0.054764607,0.98966926,0.694305988,1.343857949,0.015328552,971.2008012,970.6674845,972.4320955,0.254723804,-0.005252902,Null
1.01433244,0.839599609,1.279296875,0.008548487,0.106133644,-0.081420898,0.398803711,0.015741235,-0.063590841,-0.307373047,0.135375977,0.01335126,1.035113163,0.842371919,1.31597817,0.010165302,971.1958647,971.1653071,971.2165249,0.000221296,0.000293417,Null
0.23643589,-1.002075195,1.116821289,0.484932676,0.202070236,-0.704711914,0.961914063,0.185442036,-0.306438446,-1.040771484,0.548706055,0.151846108,0.954812437,0.247206609,1.596664555,0.095515476,971.2350563,971.0202188,971.7539189,0.01788689,0.000608874,Null
-0.101404023,-0.412963867,0.934082031,0.051741172,0.87071469,0.430908203,1.811889648,0.06414573,0.235223781,-0.900146484,0.737548828,0.175636416,1.030946789,0.703623076,1.817628384,0.051022673,971.121293,970.6795345,972.037845,0.063272351,0.000409527,Null
0.761454568,0.472900391,1.281005859,0.056504959,0.659700156,0.377685547,0.871337891,0.024951754,0.06509202,-0.032592773,0.197143555,0.002570482,1.042083781,0.904265549,1.38479901,0.017009494,971.2162386,971.1324428,971.3884001,0.003691545,0.000179916,Null
0.621400345,0.410766602,0.93347168,0.019017488,0.666374029,0.438598633,0.853027344,0.014488996,0.332667861,-0.056152344,0.66027832,0.046840713,1.007433605,0.844999307,1.121874992,0.005852259,971.1826097,970.9633499,972.0380659,0.072277685,0.000420025,Null
0.524474305,0.407348633,0.597412109,0.002699087,0.832498129,0.691772461,0.969360352,0.003491056,0.202876103,0.04296875,0.432861328,0.010057433,1.010330806,0.850666432,1.178615468,0.004689331,971.2600503,971.0550963,971.3988423,0.007533393,-0.000274919,Null
0.534547642,0.367797852,0.807373047,0.009973059,0.814557757,0.510742188,1.006469727,0.015487092,0.20085362,0.026489258,0.494995117,0.01587064,1.012181691,0.809187344,1.132823931,0.006155459,971.1415859,970.9239167,971.3957589,0.020628801,2.73E-05,Null
0.917914812,0.800537109,1.028442383,0.003680597,0.435531734,0.230712891,0.728271484,0.016829925,0.049247328,-0.124389648,0.627807617,0.013675593,1.0294629,0.897819115,1.266529049,0.008876851,971.1690257,971.0565604,971.2175962,0.002141434,0.001124194,Null
0.338571041,-0.762573242,0.800537109,0.196344617,0.654634194,0.007080078,1.044311523,0.086427906,0.342220148,0.049194336,0.637207031,0.027725235,0.969466782,0.625586116,1.243348724,0.029258688,971.2057849,971.1030838,971.3863179,0.00530009,-0.000397084,Null
-0.158825011,-0.88269043,0.675292969,0.432142809,0.470807894,0.067993164,0.95324707,0.113508698,0.37845161,-0.043579102,1.004150391,0.055927937,0.98737568,0.730858551,1.266126416,0.012138521,971.1761418,970.8680098,972.0841786,0.076525166,-0.001476081,Null
0.718511963,0.471801758,0.937866211,0.017999408,0.657705078,0.458251953,0.850952148,0.013034082,0.212034912,0.081420898,0.412719727,0.013226684,1.017568095,0.906310195,1.152263839,0.002188848,971.172086,971.0844545,971.3219105,0.00391342,-0.000475708,Null
0.849185791,0.788818359,0.909790039,0.001152574,0.523452148,0.392089844,0.606445313,0.003634606,0.101547852,0.061767578,0.157714844,0.000463265,1.005104941,0.964629339,1.050912565,0.00039659,971.203278,971.1936611,971.2252448,5.74E-05,8.06E-05,Null
0.357692871,-0.364501953,0.869628906,0.242800608,0.701485596,0.534057617,1.409667969,0.044947643,0.484234619,0.119873047,0.989379883,0.082107392,1.082735351,0.733344938,1.742193359,0.048839034,971.2691495,971.1443016,971.7501863,0.027811341,0.001904758,Null
0.023175049,-0.637573242,0.982177734,0.118467075,0.789282227,0.4140625,1.108154297,0.040645683,-0.209005127,-0.552490234,0.280395508,0.034067288,0.90904146,0.487199501,1.237347922,0.032402553,971.137852,971.058371,971.6029713,0.017650786,-0.00179058,Null
0.952415771,0.793579102,1.137817383,0.010711844,0.415325928,0.224975586,0.756469727,0.018112517,0.061721191,-0.086425781,0.541259766,0.013450984,1.051604081,0.874641302,1.400901297,0.019578162,971.1819759,971.091738,971.3812374,0.002892318,0.000825808,Stairs up
0.595780029,0.33996582,1.101196289,0.025476023,0.646190186,0.277832031,1.046630859,0.04845095,0.287661133,-0.082275391,0.569091797,0.022332184,0.957225772,0.767757686,1.386007191,0.034626176,971.1816956,970.9815414,971.5294664,0.025215478,-0.002707682,Stairs up
0.948197021,0.770263672,1.279418945,0.020141603,0.32697998,-0.038208008,0.673706055,0.030440664,0.131611328,-0.082275391,0.319335938,0.010353363,1.028771163,0.821669464,1.317854077,0.025526473,971.0860741,971.0063149,971.2018729,0.002796254,0.000357191,Stairs up
0.948276367,0.729736328,1.245361328,0.025030807,0.309830322,0.139770508,0.558227539,0.009178827,0.028494873,-0.109008789,0.155273438,0.006239123,1.004525918,0.780431404,1.277773543,0.027279599,971.0738937,971.0345597,971.1066388,0.000322022,-0.0005332,Stairs up
0.94814209,0.720092773,1.25,0.026009787,0.353977051,0.118896484,0.511474609,0.009385769,0.029337158,-0.098632813,0.194335938,0.005160621,1.019923267,0.807466514,1.29997971,0.025293928,971.0177015,970.9931546,971.0402387,0.000248166,-0.000515617,Stairs up
0.959865723,0.713989258,1.285644531,0.032092813,0.285571289,0.070922852,0.409545898,0.008229413,-0.007487793,-0.251342773,0.122558594,0.008937573,1.010667594,0.800686659,1.314934851,0.030573181,970.9710717,970.8998262,970.9931546,0.000291303,-0.000288273,Stairs up
0.941315918,0.757568359,1.299560547,0.028060808,0.239350586,0.12121582,0.331298828,0.00449003,-0.033206787,-0.22277832,0.132202148,0.011773495,0.980006961,0.782048723,1.319825941,0.028216663,970.9003287,970.8745434,970.9152971,0.000102542,-0.000177857,Stairs up
0.958338623,0.77746582,1.256103516,0.017218957,0.252473145,-0.07434082,0.633178711,0.024091732,-0.035168457,-0.214233398,0.158447266,0.007237851,1.005956712,0.829187126,1.289299244,0.019703611,970.8586902,970.8296204,970.8834897,0.000195964,-0.00043627,Stairs up
0.985933838,0.783447266,1.303710938,0.021845523,0.327231445,0.143676758,0.556518555,0.0143307,-0.019202881,-0.286621094,0.108276367,0.008009911,1.048826054,0.85442781,1.348462436,0.023457457,970.8344276,970.8189055,970.8454701,3.85E-05,-7.99E-05,Stairs up
0.863527832,0.552001953,1.386108398,0.045432567,0.395198975,0.105834961,0.682373047,0.01563245,0.046787109,-0.132568359,0.33190918,0.018709692,0.973551355,0.794649232,1.458648142,0.035582122,970.821226,970.7760432,970.9132035,0.001672911,0.00045696,Stairs up
0.416887207,-0.635864258,1.143432617,0.220729756,0.725678711,0.534790039,0.970581055,0.009768122,0.323543701,-0.031494141,0.704467773,0.039185287,1.018315016,0.659058736,1.460737704,0.035460527,970.7314955,970.6479139,970.8245397,0.002124709,-0.000650127,Null
-0.366464844,-0.569580078,0.200927734,0.028456487,0.590413818,0.221069336,0.850341797,0.027029448,0.702209473,0.35168457,1.091308594,0.023487153,1.020579082,0.840483719,1.230111709,0.012711916,970.7358965,970.6884274,970.8153434,0.000538463,-0.00016637,Null
0.567558594,0.200927734,0.686401367,0.010932141,0.775577393,0.5625,0.975952148,0.008692596,0.002224121,-0.162109375,0.35168457,0.016750191,0.97560154,0.834585764,1.177313114,0.007940213,970.7573266,970.625672,970.8601855,0.005736924,-0.000943528,Null
0.896217041,0.545898438,1.155517578,0.032094022,0.381187744,0.145996094,0.811279297,0.035796025,-0.001173096,-0.283325195,0.337646484,0.027521569,1.013587063,0.83166546,1.25033808,0.015766891,970.7052277,970.6047675,970.8461245,0.002679594,0.001046244,Null
0.979855957,0.73828125,1.299804688,0.026334312,0.255938721,0.088378906,0.461547852,0.014510351,-0.084302979,-0.257080078,0.060424805,0.007576148,1.02481329,0.787568529,1.385407077,0.03073095,970.7597223,970.7129022,970.8265359,0.00124351,0.000139213,Null
0.954057617,0.76940918,1.22265625,0.018982718,0.204256592,0.059692383,0.424438477,0.00819003,-0.08574585,-0.220947266,0.030761719,0.004085418,0.984786429,0.786077405,1.247393872,0.020646784,970.7488204,970.7193026,970.8196826,0.000777446,-5.73E-05,Null
1.010612793,0.782958984,1.288696289,0.017709808,0.266257324,0.156738281,0.42578125,0.005293534,-0.121842041,-0.263305664,0.037963867,0.007464246,1.056486663,0.829105669,1.360004005,0.021288388,970.7576921,970.723083,970.8436468,0.000772855,2.38E-05,Null
0.943613281,0.725585938,1.244873047,0.022225536,0.279324951,0.021972656,0.61730957,0.022543407,0.039421387,-0.236694336,0.245239258,0.014456764,1.001354465,0.773625833,1.310065993,0.026166853,970.7354325,970.678274,970.8199125,0.001462076,-0.000611083,Stairs up
0.979525146,0.781494141,1.408447266,0.021692134,0.25911377,0.020629883,0.45703125,0.012278272,0.013258057,-0.236328125,0.174194336,0.010622967,1.024560829,0.794402231,1.43638757,0.021422,970.6857112,970.6685536,970.7097463,0.000109041,-0.00022918,Stairs up
0.963168945,0.784790039,1.228881836,0.015941308,0.24809082,0.086181641,0.543457031,0.012915171,-0.083598633,-0.28112793,0.089233398,0.011147293,1.010516074,0.845824887,1.277183978,0.014841619,970.6607768,970.636981,970.6899221,0.000187781,-0.000368214,Stairs up
0.980412598,0.745117188,1.255615234,0.022985011,0.144425049,-0.08190918,0.289428711,0.009241242,-0.156859131,-0.467651367,0.030639648,0.017018161,1.014639332,0.778694034,1.358606099,0.02572039,970.6149714,970.5755127,970.6398187,0.000315228,-0.000460504,Stairs up
0.998598633,0.744995117,1.26184082,0.024156666,0.137946777,-0.02734375,0.253540039,0.005736567,-0.055874023,-0.23034668,0.124755859,0.005067574,1.017124476,0.762199661,1.275562234,0.02409017,970.5565385,970.5097006,970.589906,0.00049156,-0.000535884,Stairs up
0.964169922,0.755371094,1.347045898,0.027519494,0.17598877,-0.287475586,0.478759766,0.040033144,-0.04388916,-0.236572266,0.17578125,0.01001196,1.008361515,0.795146086,1.388551012,0.022745406,970.5070564,970.4640921,970.5671366,0.000963994,-0.000712594,Stairs up
0.99434082,0.787475586,1.275390625,0.024826042,0.079210205,-0.234985352,0.228393555,0.010545461,-0.036519775,-0.206787109,0.087158203,0.005757516,1.006183851,0.807008682,1.27966641,0.024882226,970.4495272,970.4195553,970.5015894,0.000380556,-0.000427104,Stairs up
0.979047852,0.747680664,1.274291992,0.026418395,0.055007324,-0.130493164,0.283081055,0.011849855,-0.010148926,-0.127197266,0.100097656,0.004094459,0.988374799,0.750763534,1.276119398,0.026987718,970.40391,970.3645636,970.4290516,0.000266042,-0.000328573,Stairs up
0.975810547,0.723022461,1.318847656,0.025811705,0.112694092,-0.114501953,0.228515625,0.008895949,-0.052358398,-0.248657227,0.12121582,0.007216942,0.99244781,0.747363812,1.330107007,0.024444725,970.3702172,970.3417367,970.404778,0.000250629,-0.000319936,Stairs up
0.984951172,0.751220703,1.322753906,0.029978143,0.062380371,-0.094238281,0.202148438,0.008286904,-0.013955078,-0.189086914,0.108154297,0.006888227,0.995497536,0.766441815,1.327584555,0.028183095,970.3244924,970.3008795,970.4083962,0.000191824,-0.000206738,Stairs up
0.946022949,0.756469727,1.138549805,0.011521408,0.168804932,-0.184692383,0.395629883,0.018484704,-0.097591553,-0.34362793,0.059936523,0.010335428,0.980237312,0.822357,1.18440085,0.011913346,970.2932393,970.2598034,970.4083962,0.001069063,-0.000296063,Stairs up
0.975324707,0.797851563,1.177368164,0.012694194,0.162731934,-0.125,0.426757813,0.014003198,-0.092580566,-0.258056641,0.005493164,0.005649705,1.002359478,0.826907153,1.206300934,0.013747708,970.2940715,970.2716968,970.3541598,0.000481677,1.21E-05,Stairs up
0.965681152,0.76940918,1.214111328,0.018744473,0.177158203,-0.008178711,0.380859375,0.008627367,-0.126635742,-0.37902832,0.006103516,0.012590908,0.99888787,0.78768856,1.28088369,0.021967548,970.2960086,970.2655016,970.3734042,0.000991724,2.37E-06,Stairs up
0.978676758,0.749389648,1.235839844,0.01829578,0.181516113,0.020263672,0.442871094,0.0105126,-0.116762695,-0.22253418,0.016601563,0.00369527,1.009447822,0.801216835,1.266980858,0.017761142,970.2979654,970.2597008,970.3733474,0.000904281,0.00017337,Stairs up
0.992978516,0.80456543,1.257568359,0.014996118,0.194123535,0.028686523,0.377929688,0.006669017,-0.043054199,-0.166503906,0.076660156,0.00654316,1.018666508,0.827246101,1.27943984,0.015948183,970.2832867,970.2623576,970.3145397,0.000225496,-5.44E-05,Stairs up
1.000839844,0.751098633,1.330322266,0.029440307,0.074177246,-0.160888672,0.21862793,0.009884087,-0.004630127,-0.121826172,0.072509766,0.003159146,1.010405152,0.759349591,1.335995528,0.028630533,970.257452,970.2287337,970.2886831,0.000282679,-0.000519116,Stairs up
0.980454102,0.796264648,1.307739258,0.015483042,0.103433838,-0.114868164,0.277832031,0.006410885,-0.014400635,-0.138061523,0.068847656,0.004140216,0.991564394,0.797535473,1.330577437,0.015755885,970.2100731,970.1771684,970.2333271,0.000196852,-0.000355848,Stairs up
0.990229492,0.814331055,1.26159668,0.018520608,0.167148437,0.05859375,0.380859375,0.006926252,-0.027028809,-0.154907227,0.086914063,0.004743853,1.009953027,0.831647838,1.272275927,0.019300297,970.1774328,970.1424268,970.2386234,0.000683519,-0.000688001,Stairs up
0.987751465,0.735473633,1.337890625,0.033228795,0.148078613,0.053710938,0.23046875,0.001948622,-0.028879395,-0.153808594,0.076538086,0.004818971,1.002886911,0.757012515,1.351049116,0.032554059,970.110631,970.0724315,970.1477646,0.000425931,-0.000589626,Stairs up
0.961330566,0.756713867,1.239379883,0.023404504,0.248840332,0.01965332,0.457397461,0.015845364,-0.016218262,-0.273193359,0.254150391,0.014348535,1.009127479,0.797323484,1.257272527,0.02127793,970.0635416,970.0038281,970.1105539,0.0006552,-0.000504103,Stairs up
0.93699707,0.708496094,1.187011719,0.023966147,0.210671387,-0.043457031,0.471435547,0.014497731,0.08012207,-0.097045898,0.312866211,0.012621223,0.976047604,0.750387032,1.257134041,0.026940216,970.0007747,969.9549028,970.1063121,0.001420806,-1.50E-05,Stairs up
0.911279297,0.627075195,1.204956055,0.023743941,0.329243164,-0.070922852,0.586791992,0.024581284,0.178334961,-0.248779297,0.520751953,0.03387493,1.012300829,0.742828033,1.33425231,0.02753491,969.9419126,969.8056193,970.2344027,0.012410894,-0.001935233,Stairs up
0.978864746,0.746337891,1.330322266,0.028336947,0.159528809,-0.207275391,0.403930664,0.015572478,0.121975098,-0.11315918,0.423706055,0.014405378,1.013515684,0.761895624,1.40878972,0.029314314,969.8955727,969.8359326,969.9493228,0.000940043,-0.000372384,Stairs up
0.960039062,0.669433594,1.364868164,0.03523585,0.165654297,-0.07043457,0.388305664,0.012681766,0.071916504,-0.216552734,0.423706055,0.014752289,0.991594721,0.702603634,1.377591081,0.033405502,969.8478323,969.8342007,969.8626831,8.24E-05,9.92E-05,Null
0.965766602,0.781982422,1.082519531,0.005963565,0.22083252,0.089599609,0.385864258,0.004945149,-0.102011719,-0.283813477,0.078735352,0.016149328,1.007145688,0.856745434,1.098706303,0.004367218,969.8426878,969.8217571,969.8572807,9.92E-05,-0.000142579,Null
0.133320313,-0.767944336,1.288574219,0.591467672,0.260620117,-0.503173828,0.73840332,0.126812825,-0.432756348,-1.087768555,0.243530273,0.116136634,1.006847023,0.417073441,1.486001359,0.086168928,969.8167994,969.685586,969.9558773,0.004099922,-0.001221931,Null
0.629648437,-0.450439453,0.875244141,0.148390388,0.52579834,0.317016602,0.743286133,0.008400665,-0.322880859,-0.691772461,0.040039063,0.063125566,0.993294625,0.794235505,1.160789946,0.008339737,969.8522396,969.6410572,970.0883863,0.013277083,-0.000633362,Null
0.820322266,0.402587891,1.016235352,0.022688734,0.519545898,0.416748047,0.747802734,0.005477392,0.02979248,-0.186035156,0.181884766,0.010445127,0.983078103,0.7137559,1.264315351,0.015683573,969.7355824,969.5182856,969.8261836,0.008981715,0.002963952,Null
0.841223145,0.515991211,1.03125,0.020524307,0.380415039,-0.039916992,0.606689453,0.032502175,0.306894531,-0.037963867,0.870727539,0.129811672,1.057259885,0.889693333,1.32850688,0.009866204,970.1102666,969.8230295,971.1123248,0.227531507,0.012576828,Null
0.644467773,0.422973633,0.795043945,0.01123726,-0.383413086,-0.57421875,0.097412109,0.026068698,0.591083984,0.405151367,0.881591797,0.022901852,0.985357393,0.941180982,1.016271188,0.000405174,969.5563448,968.7696944,970.4211953,0.138497764,0.003241745,Null
0.703806152,0.612670898,0.842163086,0.005801324,-0.509133301,-0.629516602,-0.400756836,0.003791478,0.4775,0.306396484,0.582641602,0.008259053,0.999473705,0.924998753,1.093571526,0.001304764,969.8046725,969.7938718,969.8210958,3.89E-05,6.48E-05,Null
0.666955566,0.621337891,0.701049805,0.000488856,-0.523881836,-0.57434082,-0.485229492,0.000415619,0.505300293,0.477905273,0.527954102,0.000220879,0.987778534,0.977400603,0.994079243,1.81E-05,969.797702,969.7881843,969.8033154,1.56E-05,-9.87E-05,Null
0.691843262,0.67578125,0.709838867,9.20E-05,-0.484663086,-0.502807617,-0.463012695,0.000177686,0.515053711,0.477905273,0.535766602,0.000218487,0.98958693,0.977400603,1.004871372,2.70E-05,969.796616,969.7891784,969.8036998,2.03E-05,9.93E-05,Null
0.687526855,0.673217773,0.702758789,8.00E-05,-0.479213867,-0.509765625,-0.437133789,0.000314548,0.52895752,0.503051758,0.552734375,0.000245612,0.991311506,0.973261718,1.012711741,7.11E-05,969.8087366,969.8004161,969.8190159,2.90E-05,0.000164483,Null
0.70315918,0.611694336,0.815673828,0.004517924,-0.528679199,-0.610107422,-0.367797852,0.003684094,0.448449707,0.300415039,0.559814453,0.005471741,0.993705451,0.942051093,1.08166796,0.001139561,969.821627,969.8101302,969.8354216,5.14E-05,0.000130124,Null
0.729804687,0.637573242,0.822387695,0.002801429,-0.477480469,-0.610107422,-0.384033203,0.005592111,0.463930664,0.369873047,0.543701172,0.002985065,0.992899692,0.928235194,1.080303851,0.001261779,969.8292833,969.8108382,969.8528069,0.000143764,-0.000244855,Null
0.669289551,0.613769531,0.714477539,0.001023346,-0.51401123,-0.582885742,-0.4296875,0.00156259,0.517956543,0.464599609,0.571044922,0.000983596,0.9917997,0.948857384,1.025052434,0.000305273,969.8382095,969.827666,969.8530839,5.01E-05,-0.000137939,Null
0.697675781,0.618286133,0.874755859,0.004494646,-0.130998535,-0.556518555,0.744140625,0.223400898,0.572961426,0.014404297,1.195678711,0.069148693,1.054817226,0.915042816,1.407068782,0.013769011,969.8555741,969.7373401,970.1371504,0.007871661,0.000375981,Null
0.602346191,0.491333008,0.767333984,0.005268772,0.715026855,0.473754883,1.005126953,0.024775414,0.360400391,0.028686523,0.682128906,0.05011492,1.038546361,0.935674551,1.200088962,0.00479975,969.892036,969.4913325,970.462812,0.043494249,0.001796228,Null
0.817973633,0.653076172,0.984375,0.009470321,0.383349609,0.058227539,0.750854492,0.026314304,0.414333496,0.106079102,0.665283203,0.023340956,1.01960891,0.909090745,1.222214281,0.006709121,969.8494778,969.4737372,970.217972,0.049602991,0.000393004,Null
0.305024414,-0.876953125,1.213134766,0.602235394,0.471157227,0.147094727,0.91796875,0.059218575,0.123974609,-0.524536133,0.639648438,0.107029787,1.019921292,0.335369695,1.480296168,0.051472934,969.7959073,969.4737372,970.1529634,0.021836459,0.002075041,Null
0.77300293,-0.72644043,1.405273438,0.345366834,0.298286133,-0.093139648,0.693237305,0.054934613,-0.00166748,-0.243164063,0.435302734,0.027287267,1.037026982,0.610762142,1.4896598,0.034746254,969.8028626,969.678625,970.0146222,0.004454661,0.001351732,Null
1.017312012,0.910888672,1.315795898,0.007290959,0.214033203,-0.180908203,0.434692383,0.023051286,-0.053430176,-0.117431641,0.113769531,0.002938167,1.053986964,0.977753706,1.36348272,0.005704861,969.857536,969.8292621,969.8868243,0.000314611,-0.000269077,Null
0.978837891,0.887695313,1.054931641,0.001899024,0.173959961,-0.093017578,0.246948242,0.007374105,-0.021420898,-0.137084961,0.058837891,0.003139186,0.999769185,0.917831118,1.079283941,0.001610413,969.8441605,969.8269129,969.8728072,0.00014245,-0.000213198,Null
0.97605957,0.958374023,0.991210938,6.15E-05,0.217468262,0.180175781,0.244262695,0.000391303,-0.035900879,-0.062255859,-0.014038086,0.000175178,1.000933298,0.987515828,1.008933952,2.82E-05,969.8453504,969.8387252,969.8514447,1.04E-05,-2.11E-05,Null
0.985927734,0.938476563,1.0234375,0.000364762,0.127561035,-0.038330078,0.243164063,0.005861344,-0.08769043,-0.157104492,0.01550293,0.002057387,1.001842564,0.952281743,1.051451019,0.000532386,969.8423693,969.8323182,969.8520038,2.77E-05,-2.71E-05,Null
0.981669922,0.936645508,1.037109375,0.000692631,0.154130859,-0.009887695,0.273071289,0.007857897,-0.080087891,-0.182617188,0.026367188,0.003220774,1.002450321,0.960124804,1.051359656,0.000599162,969.8441769,969.8330702,969.8634715,4.53E-05,6.07E-05,Null
0.971435547,0.938842773,1.02331543,0.000315954,0.214602051,0.093139648,0.260131836,0.001045031,-0.07628418,-0.106079102,-0.051147461,0.000222696,0.998345243,0.962630154,1.058248752,0.000439352,969.8434491,969.8359941,969.8726586,6.30E-05,-2.49E-05,Null
0.846401367,-0.134277344,1.400390625,0.130782804,0.326538086,0.181396484,1.108642578,0.035057233,-0.297016602,-0.752197266,-0.037719727,0.06012044,1.045871546,0.733711206,1.585300383,0.041509938,969.8646324,969.6775893,970.1823309,0.016780485,-0.000298078,Null
-0.07901123,-0.544921875,0.165039063,0.048590889,-0.363991699,-0.768554688,1.153808594,0.306502649,-0.698168945,-0.834106445,-0.304931641,0.020230379,0.993804048,0.758859167,1.227130953,0.010198788,969.7422562,969.6994598,969.7693967,0.000398006,0.00054609,Null
-0.587058105,-0.929077148,-0.022338867,0.100230256,-0.209262695,-0.753540039,0.28137207,0.070139474,-0.483354492,-0.94519043,0.421386719,0.203593026,0.994422953,0.861722834,1.084915339,0.00344018,969.7713112,969.7392181,969.8300324,0.000668155,0.000289477,Null
-0.076694336,-0.368652344,0.292358398,0.049286217,-0.264853516,-1.017700195,0.28137207,0.171485742,-0.781816406,-1.107177734,-0.289550781,0.066452351,0.980366586,0.71432373,1.112810169,0.01060578,969.7710967,969.7155305,969.9701737,0.004229085,0.001109988,Null
-0.366572266,-0.917480469,0.143676758,0.151971597,0.074086914,-0.34362793,0.949707031,0.214014205,-0.614614258,-0.998779297,-0.045288086,0.107197006,0.982570323,0.748515916,1.340892354,0.02082962,969.7745642,969.4952837,970.480167,0.070941807,0.000829041,Null
-0.416298828,-0.863647461,1.074707031,0.180902287,0.557202148,0.184448242,0.952514648,0.051093946,0.34157959,-0.308227539,0.786010742,0.099981812,0.950579684,0.53954853,1.161916207,0.025769793,969.762448,969.5913025,969.845091,0.004393499,0.001970859,Null
0.805257967,0.400390625,1.272460938,0.080336703,0.433314559,-0.131225586,1.146606445,0.111310778,-0.241478042,-0.842041016,0.100219727,0.065805441,1.048030536,0.65523496,1.446598872,0.051559919,969.8191548,969.7321249,969.8914705,0.001486676,-0.000508121,Null
0.592620541,0.453125,0.953735352,0.019914623,0.694088098,0.359619141,1.146606445,0.02537772,0.282573045,0.063598633,0.611450195,0.022939021,0.986132154,0.876687126,1.419077175,0.007970968,969.8606452,969.5726459,970.2484567,0.020193851,0.001786469,Null
0.836950684,0.530029297,1.009155273,0.008002299,0.394313965,0.059448242,0.588256836,0.019326231,0.269069824,-0.129760742,0.501953125,0.029394034,0.990900028,0.833742728,1.077005565,0.002667669,969.8412463,969.5726459,970.2670051,0.047172814,0.002757738,Null
0.695627441,0.102539063,1.111694336,0.11112936,0.471276855,0.160400391,0.78515625,0.038891741,0.384401855,0.173583984,0.747070313,0.027697828,1.009633718,0.803017346,1.192157127,0.010450197,969.7735505,969.2915635,970.8094948,0.153275024,-0.003549959,Null
0.930041504,0.892211914,0.967285156,0.000372809,0.416269531,0.266967773,0.677368164,0.010559297,0.002468262,-0.057983398,0.259033203,0.00263007,1.024322833,0.984969505,1.192157127,0.002477679,969.7952652,969.6705901,969.8393855,0.002370926,0.001479481,Null
0.943903809,0.845581055,1.039550781,0.001571668,0.323688965,0.227539063,0.454956055,0.004303057,-0.105270996,-0.181884766,0.022583008,0.00416525,1.007471261,0.910146255,1.094820187,0.001769861,969.832723,969.8255578,969.8409684,1.36E-05,-3.58E-05,Null
0.944064941,0.821899414,1.080688477,0.003746339,0.320703125,0.181518555,0.418334961,0.004149539,-0.041352539,-0.197265625,0.129150391,0.008776448,1.004261776,0.901923565,1.160263532,0.003821241,969.8308771,969.8213769,969.8433332,3.00E-05,-5.96E-05,Null
0.961027832,0.788818359,1.083862305,0.006474928,0.2803125,0.155639648,0.462402344,0.006610906,-0.028510742,-0.165527344,0.121826172,0.004835954,1.006569755,0.873550927,1.175291612,0.007598334,969.8329189,969.8253779,969.8383797,1.43E-05,2.25E-05,Null
0.96583252,0.680053711,1.333251953,0.042798505,0.254260254,0.093383789,0.64050293,0.01509844,-0.049335937,-0.161376953,0.067749023,0.004680424,1.009855099,0.709774638,1.356057927,0.042483881,969.8511717,969.8293956,969.8846431,0.000277085,0.000476548,Stairs down
0.948203512,0.717529297,1.219604492,0.021124665,0.274143332,0.172973633,0.444458008,0.00404761,-0.009748704,-0.133544922,0.160888672,0.007003792,0.992814643,0.781204642,1.29462731,0.020721241,969.8995234,969.8779734,969.9185353,0.000155797,0.000382128,Stairs down
0.941873779,0.671020508,1.266479492,0.028976072,0.269415283,0.14050293,0.461791992,0.006901149,-0.011276855,-0.171508789,0.203369141,0.007540539,0.986844558,0.710711967,1.294741691,0.029251898,969.9391613,969.8908699,969.9730836,0.000479025,0.000685421,Stairs down
0.939402571,0.605957031,1.453613281,0.044001972,0.284516306,0.152709961,0.715209961,0.019502819,-0.071002999,-0.222290039,0.059082031,0.00538582,0.992193777,0.62871474,1.479514365,0.052747199,970.0019459,969.9667379,970.0539949,0.000391586,0.000662212,Stairs down
0.955192871,0.642822266,1.453613281,0.048237351,0.261242676,0.18762207,0.551269531,0.008475052,-0.015910645,-0.20300293,0.110107422,0.005196052,0.99700484,0.695848794,1.479514365,0.04865154,970.0782551,970.0413704,970.1214771,0.00053762,0.000734511,Stairs down
0.964733887,0.612548828,1.393920898,0.050738913,0.267033691,-0.012451172,0.722412109,0.026801074,0.013757324,-0.218261719,0.227539063,0.00784314,1.013158997,0.629366037,1.414640872,0.060854415,970.1496217,970.1057171,970.1940829,0.000708634,0.000844037,Stairs down
1.002338867,0.73046875,1.417358398,0.029594323,0.258408203,0.076782227,0.543701172,0.0121955,-0.020961914,-0.103881836,0.109741211,0.003728588,1.042058006,0.747311482,1.454334878,0.031389641,970.2104185,970.186267,970.2354252,0.000224893,0.00029769,Stairs down
0.977023926,0.676025391,1.44921875,0.036306647,0.289074707,0.025512695,0.708618164,0.02570328,-0.010241699,-0.155029297,0.223266602,0.006827655,1.030910099,0.724535473,1.513810108,0.044058994,970.2584592,970.2301128,970.2968784,0.000366135,0.000452067,Null
0.967731934,0.802856445,1.105224609,0.00801475,0.304099121,0.099121094,0.573486328,0.01696715,-0.056677246,-0.221313477,0.086914063,0.006035503,1.025321629,0.842781801,1.23530827,0.011733804,970.2876157,970.2651748,970.3229052,0.000212311,-0.000130984,Null
0.913125,0.517333984,1.1015625,0.025937643,0.256071777,-0.004638672,0.770385742,0.043090378,-0.051203613,-0.526855469,0.572387695,0.061649785,1.011528695,0.774744577,1.210739366,0.008255109,970.2992975,970.2453276,970.4475839,0.001534495,0.000706372,Null
0.623669434,0.375488281,0.919921875,0.036459499,0.700385742,0.370239258,0.893188477,0.026406149,0.19480957,-0.006347656,0.442993164,0.011865396,0.993899121,0.855588844,1.096702433,0.002311005,970.2469934,970.1851755,970.316315,0.001883663,-0.000710785,Null
0.608577313,-0.152587891,1.020629883,0.169571475,0.580211073,0.369140625,1.467651367,0.083129082,0.152421101,-0.090942383,0.527954102,0.051096486,0.989237121,0.680702537,1.713774911,0.052966922,970.2723027,970.2324401,970.3582871,0.000625025,-9.53E-05,Null
0.93253418,0.399536133,1.071166992,0.010489442,0.382502441,0.170043945,0.912109375,0.035752221,0.058898926,-0.126953125,0.527954102,0.021908558,1.039894119,0.947240786,1.219619606,0.005541554,970.2602999,970.2367298,970.2787103,0.000100049,0.000169582,Null
0.937508545,0.864257813,1.034667969,0.002371679,0.3678479,0.227905273,0.525634766,0.006360575,0.013011475,-0.234863281,0.259643555,0.01852458,1.019252129,0.936191568,1.139980487,0.002538394,970.2709577,970.2540409,970.2840528,4.81E-05,-5.03E-05,Null
0.94397096,0.805419922,1.094970703,0.007417119,0.364955709,0.223754883,0.564331055,0.007274354,-0.017760614,-0.176879883,0.114257813,0.007307937,1.017875566,0.88205016,1.233824486,0.010400868,970.2718352,970.2487091,970.3023292,0.000114795,7.13E-05,Null
0.955827637,0.784912109,1.141601563,0.010157992,0.334147949,0.212890625,0.455200195,0.00550991,-0.057890625,-0.235473633,0.044799805,0.005943455,1.01872242,0.858202056,1.234252175,0.012335881,970.2710268,970.2472552,970.3054566,0.000235961,0.000182476,Null
0.943883057,0.758178711,1.190185547,0.011694762,0.306072998,0.171142578,0.4453125,0.005277076,-0.083297119,-0.201293945,0.038818359,0.004453854,1.000248608,0.835469097,1.268446503,0.011948444,970.2685165,970.241537,970.3002189,0.000148661,6.74E-05,Null
0.98425293,0.738525391,1.246948242,0.016549466,0.27248291,0.194213867,0.539916992,0.006540202,-0.066955566,-0.294433594,0.071289063,0.008566763,1.029952141,0.78894399,1.278985919,0.018204312,970.2695999,970.2415036,970.2876512,0.000136927,-7.60E-06,Null
0.943374023,0.62902832,1.414550781,0.039601308,0.280997314,0.108032227,0.584472656,0.010429439,-0.044228516,-0.229980469,0.157226563,0.007352209,0.994548304,0.663895507,1.418884386,0.038942423,970.2801656,970.2481305,970.3168194,0.000443071,0.000660288,Stairs down
0.972365723,0.680664063,1.346679688,0.025630095,0.237320557,0.086669922,0.394775391,0.004474277,-0.059112549,-0.221557617,0.078369141,0.006978935,1.007543719,0.714112831,1.419279082,0.027150068,970.3332771,970.308183,970.3507973,0.000122987,0.000174288,Stairs down
0.964519043,0.759765625,1.307495117,0.029733046,0.262810059,0.106811523,0.518554688,0.012180707,-0.017772217,-0.167114258,0.116210938,0.005640886,1.006357013,0.782349128,1.391779276,0.034350118,970.3648785,970.3303595,970.398591,0.00035365,0.000616349,Stairs down
0.966491095,0.624633789,1.450439453,0.058157759,0.296541422,0.124389648,0.702514648,0.018101266,-0.00222869,-0.102783203,0.14855957,0.003319583,1.018251473,0.653502127,1.480349136,0.06464147,970.4381377,970.398591,970.4803921,0.00063228,0.000818741,Stairs down
1.006374512,0.692260742,1.437744141,0.05405401,0.268858643,0.044677734,0.665893555,0.023287331,-0.080657959,-0.27331543,0.051513672,0.00925709,1.057210253,0.716229601,1.447095071,0.060221477,970.5111735,970.479676,970.5426687,0.000431775,0.000610399,Stairs down
0.861655273,0.124145508,1.350097656,0.105512047,0.477072754,0.12878418,0.844848633,0.045551462,-0.086113281,-0.348632813,0.060668945,0.011518757,1.021798132,0.514553662,1.565190526,0.090015635,970.5653606,970.5328637,970.6024496,0.00044017,0.000426171,Stairs down
1.004086914,0.750732422,1.39050293,0.03202767,0.282998047,0.139160156,0.499755859,0.008023636,-0.031303711,-0.15222168,0.089477539,0.004334286,1.050257286,0.785630126,1.484202957,0.03046436,970.6270124,970.587735,970.6627243,0.000282487,0.000487042,Stairs down
0.90818093,0.211181641,1.361694336,0.070743608,0.346458975,0.068115234,1.366577148,0.061337037,-0.047731958,-0.189208984,0.107788086,0.005444097,0.995862712,0.253491577,1.911912754,0.092431476,970.6555857,970.6249214,970.6953546,0.000376522,0.000541164,Stairs down
0.973052979,0.413452148,1.558837891,0.058976414,0.311671143,-0.239379883,1.366577148,0.054578697,-0.009036865,-0.164916992,0.125488281,0.005692927,1.048996944,0.562198797,1.911912754,0.062337004,970.7024832,970.6509603,970.7333434,0.000438991,0.000471236,Stairs down
1.016263428,0.861938477,1.18371582,0.008060052,0.258591309,0.109619141,0.623901367,0.016131257,0.084606934,-0.075683594,0.333984375,0.016272437,1.066568992,0.887900645,1.259395681,0.009402875,970.7154789,970.7003709,970.743413,0.000133861,0.000181768,Stairs down
0.973463135,0.725341797,1.219604492,0.017377465,0.293554687,0.155151367,0.568359375,0.013560983,-0.077740479,-0.318603516,0.065551758,0.010276021,1.030407186,0.816243434,1.267619175,0.019102796,970.7164712,970.6881766,970.7680508,0.000261021,0.000137194,Stairs down
0.965726318,0.778564453,1.343139648,0.022996901,0.30520874,0.15625,0.573974609,0.011750677,-0.103181152,-0.360107422,0.036010742,0.01176485,1.026453895,0.83352266,1.456244458,0.029157325,970.7203084,970.7012252,970.7545055,0.000236031,9.59E-05,Stairs down
0.960631104,0.770385742,1.146118164,0.011093382,0.267503662,0.023803711,0.426269531,0.009254682,-0.094675293,-0.299194336,0.029174805,0.008018634,1.008815721,0.825745655,1.221430466,0.013846071,970.7210855,970.7040161,970.745535,0.000157699,-3.76E-05,Stairs down
0.95510834,0.763549805,1.183837891,0.015215331,0.220546005,0.08215332,0.382202148,0.005134519,-0.118612459,-0.250366211,0.018310547,0.005236059,0.992957237,0.835574018,1.242528125,0.014453006,970.7184463,970.6951156,970.7440722,0.000126369,-7.16E-05,Stairs down
0.996459961,0.662475586,1.410766602,0.055595739,0.215703125,-0.034179688,0.432495117,0.011260052,-0.067416992,-0.315429688,0.146240234,0.012265955,1.031900543,0.690365941,1.481405289,0.058098123,970.7560607,970.7162799,970.7945646,0.000542514,0.000687898,Stairs down
0.977832031,0.671142578,1.311767578,0.034293048,0.165742187,-0.025878906,0.448242188,0.009476908,-0.081787109,-0.271972656,0.123291016,0.00897685,1.003830842,0.697538787,1.329607803,0.035210166,970.7941452,970.7672173,970.8241456,0.000247179,0.000512561,Stairs down
0.916015625,0.653686523,1.254516602,0.039392571,0.227783203,0.097045898,0.427368164,0.006292996,0.000546875,-0.201782227,0.167236328,0.008058832,0.950576663,0.68794233,1.327991782,0.040990985,970.8623495,970.8189576,970.9840565,0.001982965,0.000572436,Stairs down
1.017192383,0.635375977,1.539794922,0.068752604,0.229936523,0.119018555,0.485107422,0.008025573,-0.059267578,-0.279907227,0.130371094,0.007908904,1.051585708,0.658057743,1.549880782,0.069769196,970.9424169,970.9000838,970.9944624,0.000718461,0.000858661,Stairs down
0.951486299,0.637329102,1.415893555,0.046512178,0.238239327,0.073974609,0.451660156,0.008108463,-0.061449455,-0.288330078,0.067749023,0.007067305,0.990345985,0.664128749,1.426589878,0.04661067,971.0364776,970.9944624,971.1079091,0.000732814,0.000894469,Stairs down
0.949752197,0.548828125,1.374145508,0.049739986,0.287910156,-0.021484375,0.524902344,0.01761404,0.013156738,-0.300415039,0.490478516,0.024177745,1.013600881,0.661847482,1.447418545,0.048812426,971.1213903,971.0731965,971.2599264,0.00181261,0.00095096,Stairs down
0.695290527,0.325561523,1.272460938,0.063257909,0.517092285,0.2265625,0.986450195,0.039499592,0.382242432,0.09362793,0.670898438,0.027490004,0.989442527,0.653500314,1.416357549,0.047344588,971.136966,971.0266721,971.4337659,0.007617782,-0.001678582,Stairs down
1.036846924,0.775634766,1.36328125,0.026235263,0.192145996,-0.018676758,0.510986328,0.01383087,-0.080206299,-0.54284668,0.264770508,0.018389918,1.071783369,0.78899863,1.430384992,0.027834927,971.1838407,971.0989278,971.2554184,0.000849036,0.000275897,Stairs down
0.991229248,0.817016602,1.296875,0.015666892,0.21637207,-0.077392578,0.362548828,0.011837835,-0.089197998,-0.261108398,0.07019043,0.006972482,1.028091321,0.861290652,1.311085552,0.014615404,971.1785281,971.145658,971.220501,0.000582099,-0.000290303,Stairs down
0.935695535,0.760375977,1.202026367,0.013538331,0.285267443,0.176391602,0.510131836,0.005636269,-0.106277315,-0.360229492,0.026367188,0.009774249,0.990709953,0.812203683,1.310236677,0.015508077,971.1809577,971.156955,971.2039803,0.000212468,2.48E-05,Stairs down
0.980073242,0.809814453,1.202758789,0.011239463,0.255712891,0.103027344,0.489013672,0.011474902,-0.08956543,-0.193725586,0.128540039,0.008749563,1.026270751,0.820939251,1.223471732,0.011992165,971.186177,971.1222404,971.306723,0.00215071,-0.000190209,Stairs down
0.96440918,0.795654297,1.216064453,0.010719445,0.162001953,0.032592773,0.267089844,0.003318397,-0.130512695,-0.309936523,0.032104492,0.010816054,0.99315047,0.818750766,1.252777215,0.011738144,971.1625741,971.136198,971.1952315,0.000242387,0.000207674,Stairs down
0.969887695,0.621948242,1.396850586,0.045011365,0.193540039,0.032226563,0.474609375,0.009023429,-0.080068359,-0.247436523,0.103027344,0.00786491,1.000550974,0.67535335,1.402701399,0.045181097,971.192818,971.1555993,971.2330213,0.000504066,0.000629186,Stairs down
0.983242187,0.690185547,1.409790039,0.027776963,0.195864258,0.045288086,0.3515625,0.006564085,-0.049155273,-0.248046875,0.134643555,0.008176323,1.01032882,0.718334835,1.47398487,0.029163758,971.2445267,971.2040726,971.2665811,0.000281029,0.000443181,Stairs down
1.007583008,0.639160156,1.469604492,0.052439016,0.210639648,0.033325195,0.442138672,0.00878221,-0.041835937,-0.323364258,0.158447266,0.012224463,1.039312692,0.654369316,1.4878454,0.054427459,971.3018304,971.2581564,971.3507531,0.000648502,0.000833944,Stairs down
0.946575126,0.668334961,1.29675293,0.047565066,0.212574968,0.042358398,0.376098633,0.005746741,-0.057683771,-0.279052734,0.068725586,0.007083921,0.977886344,0.684693525,1.314886671,0.048534217,971.3791826,971.3402246,971.4164487,0.000503607,0.000739171,Stairs down
0.91739624,0.609985352,1.282470703,0.044264663,0.25786377,0.127929688,0.520141602,0.006961538,-0.07085083,-0.287353516,0.03527832,0.006010714,0.960917673,0.660344904,1.316849886,0.0469002,971.4465128,971.410579,971.4668341,0.000247799,0.00049445,Stairs down
0.964782715,0.609985352,1.367431641,0.047776388,0.263442383,0.019287109,0.473632813,0.012685341,-0.077832031,-0.259399414,0.051635742,0.008924446,1.013871182,0.660344904,1.416424591,0.04749792,971.4950773,971.4643183,971.5369564,0.000256213,0.000412344,Stairs down
0.940393066,0.693359375,1.229003906,0.020751724,0.23270874,0.106079102,0.386108398,0.005248218,-0.076196289,-0.31628418,0.107421875,0.00821547,0.977991613,0.742628559,1.278043042,0.021923247,971.5288458,971.4981277,971.565582,0.000336316,0.000492139,Stairs down
0.956906762,0.661987305,1.275268555,0.040387412,0.281538859,0.063842773,0.511962891,0.014309992,-0.076472821,-0.269897461,0.090942383,0.007300675,1.008703869,0.702514351,1.339444276,0.04513035,971.5833125,971.554348,971.6435406,0.000523095,0.000578398,Stairs down
1.008505859,0.814575195,1.23449707,0.017615896,0.190737305,0.015625,0.364379883,0.008351675,-0.10199707,-0.228149414,0.045166016,0.005948051,1.037788875,0.84163689,1.263931519,0.018645361,971.5982787,971.5438629,971.6923855,0.00161248,-5.02E-05,Stairs down
0.983823242,0.797485352,1.199584961,0.015535261,0.20824707,0.013549805,0.380249023,0.005831228,-0.126416016,-0.294067383,0.007202148,0.007489055,1.02031374,0.855758304,1.221989819,0.014932206,971.594387,971.5592412,971.6729339,0.000608154,0.000221407,Stairs down
0.982207031,0.76953125,1.22644043,0.012376241,0.237167969,0.123046875,0.379882813,0.004630685,-0.1421875,-0.254150391,0.010009766,0.005676237,1.025252309,0.817959016,1.265216767,0.012636987,971.5969359,971.5731394,971.6549144,0.000567512,-7.07E-05,Stairs down
0.978364258,0.756713867,1.228881836,0.015108775,0.261879883,0.118286133,0.415161133,0.007593572,-0.09612793,-0.237426758,0.028320313,0.007817004,1.024143791,0.809671485,1.265773753,0.016527197,971.6039519,971.5824306,971.6424358,0.000350297,-8.27E-05,Stairs down
0.940166016,0.758056641,1.239379883,0.018393752,0.218720703,0.093383789,0.356811523,0.005450963,-0.079267578,-0.302246094,0.083007813,0.009936932,0.977148484,0.813324611,1.273752566,0.016827175,971.6040126,971.5843622,971.6229054,8.17E-05,0.00016009,Stairs down
0.971567383,0.606811523,1.373779297,0.060782129,0.177939453,-0.041625977,0.349853516,0.010165488,-0.073930664,-0.299316406,0.111450195,0.011271731,1.000327737,0.636150469,1.435348788,0.062437318,971.6467843,971.5953149,971.6928718,0.000444255,0.0006178,Stairs down
0.987462516,0.634155273,1.392700195,0.04438623,0.183903241,0.025390625,0.305541992,0.006162283,-0.058990787,-0.201049805,0.085327148,0.005594598,1.014033637,0.696985493,1.405073919,0.040099372,971.708124,971.6830953,971.7373159,0.000238654,0.000394702,Stairs down
0.96130127,0.658203125,1.333740234,0.054812883,0.23946167,0.042480469,0.434326172,0.008202068,-0.03885498,-0.282958984,0.142944336,0.009006565,0.999292601,0.696985493,1.395659629,0.056229627,971.7609602,971.7209425,971.798165,0.000557492,0.000757132,Stairs down
0.917250832,0.605712891,1.30847168,0.051821334,0.24063201,0.135742188,0.434326172,0.002734106,-0.069690062,-0.270507813,0.046630859,0.005001546,0.95579336,0.664832947,1.320652038,0.050031283,971.8350543,971.7962936,971.8765635,0.000615332,0.00076576,Stairs down
0.976401367,0.658813477,1.484375,0.056464597,0.238466797,0.084106445,0.447631836,0.00627027,-0.051557617,-0.26965332,0.08581543,0.00602105,1.013877275,0.703999071,1.488383157,0.053540869,971.9030141,971.8538102,971.9345923,0.000489937,0.000652473,Stairs down
0.92746582,0.636108398,1.470336914,0.052890281,0.269165039,-0.018432617,0.473022461,0.013950048,-0.043276367,-0.297119141,0.21484375,0.014361085,0.98067484,0.670851471,1.486064682,0.053718959,971.9744478,971.9270968,972.0479831,0.000767281,0.000803082,Stairs down
0.978896484,0.573974609,1.479003906,0.042209812,0.210571289,0.033691406,0.39050293,0.008325433,-0.022070312,-0.300048828,0.151367188,0.012717617,1.014032078,0.650465506,1.48377196,0.037803003,972.0365727,972.0164734,972.0558947,0.000192162,0.000248236,Stairs down
0.941240234,0.572875977,1.444458008,0.06196505,0.27609375,0.142944336,0.77734375,0.021248955,-0.040244141,-0.240844727,0.117431641,0.008397207,0.99513686,0.615525882,1.452708595,0.064826523,972.078766,972.0499484,972.1176087,0.000325048,0.000482046,Stairs down
0.971274414,0.622070313,1.493774414,0.060454111,0.262763672,0.015380859,0.600219727,0.02212743,-0.043535156,-0.337890625,0.106811523,0.011321044,1.01907922,0.668332152,1.630792738,0.069449642,972.1524715,972.1259735,972.2140213,0.000472008,0.000444594,Stairs down
1.00640625,0.794799805,1.267822266,0.017644042,0.257890625,0.067260742,0.488037109,0.011897921,-0.115585937,-0.373046875,0.045654297,0.013742606,1.055827681,0.843157498,1.331059815,0.021010965,972.1695724,972.1229192,972.2421291,0.000960957,9.99E-05,Stairs down
0.95668457,0.773193359,1.265380859,0.018334096,0.275097656,0.057128906,0.587402344,0.016499847,-0.068837891,-0.27722168,0.100952148,0.010273612,1.007059319,0.804031707,1.418445229,0.026414898,972.185507,972.1665625,972.2285659,0.000257171,0.000264854,Stairs down
0.94954797,0.77722168,1.151245117,0.011460115,0.315842754,0.156005859,0.564575195,0.01425729,-0.0646948,-0.268920898,0.086303711,0.009327476,1.012562985,0.840034171,1.281306393,0.015143466,972.2033335,972.1780116,972.2433002,0.000304257,2.82E-05,Stairs down
0.958161621,0.790405273,1.217041016,0.013129393,0.274633789,0.136962891,0.384277344,0.003761233,-0.098070068,-0.280151367,0.029785156,0.005621394,1.006301341,0.862427112,1.272368333,0.012888546,972.2053905,972.1780107,972.2298369,0.000215509,-0.000160973,Stairs down
0.972357722,0.791748047,1.179199219,0.008595086,0.226592715,0.119018555,0.344360352,0.003312556,-0.081893468,-0.259765625,0.049072266,0.007457271,1.006844725,0.867847818,1.229492921,0.00905689,972.2034741,972.1835522,972.219926,0.000112975,7.05E-05,Stairs down
0.92862793,0.594848633,1.279541016,0.031526593,0.228618164,0.088623047,0.485717773,0.008604816,-0.066938477,-0.174560547,0.059936523,0.005128144,0.965049473,0.641426399,1.307866119,0.032912452,972.216758,972.1897417,972.2495101,0.000294751,0.000503904,Stairs down
0.968984375,0.606811523,1.42578125,0.06231233,0.330673828,0.193237305,0.6328125,0.013383814,-0.002182617,-0.133544922,0.119995117,0.004174716,1.031864088,0.646953102,1.496966095,0.063241735,972.2700972,972.2533584,972.2936494,0.000141942,0.000207559,Stairs down
0.939614258,0.723876953,1.231445313,0.02038255,0.229902344,0.099609375,0.347167969,0.00458165,-0.023745117,-0.143554688,0.155761719,0.007747895,0.975041581,0.773484604,1.267868062,0.018154304,972.2943538,972.2655511,972.3153472,0.000152527,0.00034089,Stairs down
0.959575195,0.670166016,1.435791016,0.049144867,0.235258789,0.064941406,0.374023438,0.00638416,-0.026762695,-0.205566406,0.16394043,0.008787072,0.995903876,0.701963419,1.447377853,0.04918778,972.3469826,972.3004439,972.3876976,0.000453282,0.00067545,Stairs down
0.942495117,0.682983398,1.290039063,0.038107494,0.27265625,0.159179688,0.535888672,0.008065628,-0.009931641,-0.183837891,0.121459961,0.004416118,0.986665322,0.719186743,1.381484455,0.039709094,972.4230482,972.3854056,972.4552981,0.000440136,0.000664703,Stairs down
0.967456055,0.702026367,1.28515625,0.034971034,0.262827148,0.084960938,0.481201172,0.009115964,-0.053330078,-0.227539063,0.126342773,0.006907279,1.011931257,0.738518228,1.327513666,0.034720092,972.4825441,972.440578,972.5145557,0.00046568,0.0006407,Stairs down
0.954814453,0.652709961,1.443847656,0.04733451,0.302363281,0.092651367,0.533691406,0.014829029,0.010673828,-0.18737793,0.184326172,0.009582299,1.013651356,0.700521726,1.46192713,0.047219631,972.5512268,972.511563,972.5896708,0.000653384,0.000746755,Stairs down
0.987681996,0.642456055,1.505981445,0.052468061,0.21638011,-0.079956055,0.508422852,0.015192819,-9.74E-05,-0.177978516,0.107299805,0.005925071,1.020984169,0.681723101,1.598021127,0.053308542,972.6141737,972.5797782,972.6896643,0.000673524,0.000359526,Stairs down
0.969521484,0.62487793,1.411254883,0.045806021,0.219343262,0.026367188,0.544189453,0.013979784,-0.054503174,-0.190429688,0.106323242,0.005482804,1.006733592,0.647287533,1.418160302,0.046764736,972.6545419,972.6223436,972.7222347,0.000710129,0.000774817,Stairs down
0.968324567,0.670166016,1.529785156,0.065404894,0.221920202,-0.223999023,0.428833008,0.024458314,-0.051721554,-0.236083984,0.068847656,0.00590809,1.009569548,0.721962973,1.591663645,0.065820244,972.7126712,972.6755512,972.788138,0.000954915,0.000626145,Null
1.008935547,0.780761719,1.262451172,0.018519023,0.225004883,0.014404297,0.468261719,0.010818942,-0.076450195,-0.476928711,0.100708008,0.020696732,1.050533873,0.829182921,1.350242108,0.02054111,972.748117,972.6987445,972.7770452,0.000485516,0.000622886,Null
0.904038086,0.602416992,1.118286133,0.024434863,0.385297852,0.029785156,0.732299805,0.038568216,0.071806641,-0.353027344,0.427001953,0.055789188,1.040070644,0.908095774,1.217693764,0.006821099,972.8402697,972.6565659,973.3455971,0.031424502,0.001614243,Null
0.902363281,0.513916016,1.101196289,0.030457635,0.395839844,0.087768555,0.880371094,0.059924938,0.027900391,-0.253417969,0.359619141,0.024485988,1.04070362,0.959992758,1.140432453,0.002407026,972.7288439,972.6610289,972.8002874,0.001926402,0.001286167,Null
0.981728516,0.905029297,1.036254883,0.001120763,0.162548828,0.006469727,0.265014648,0.003784887,-0.086381836,-0.251708984,0.009155273,0.005032019,1.003226734,0.927486587,1.072257377,0.001059833,972.7896388,972.755828,972.7993899,8.14E-05,0.00017065,Null
0.980130899,0.975219727,0.985717773,9.10E-06,0.183433456,0.153808594,0.201538086,0.000129906,-0.095061948,-0.104858398,-0.08581543,3.33E-05,1.001709839,0.993144092,1.007920319,1.55E-05,972.7890251,972.7800872,972.7955863,1.71E-05,-0.000115592,Null
0.986098633,0.781860352,1.092407227,0.004484102,0.223891602,-0.039794922,0.591064453,0.018821089,-0.08777832,-0.227050781,0.012573242,0.002804337,1.024049438,0.79108391,1.233293615,0.007468866,972.7688758,972.7447105,972.7847054,0.00015165,-0.000334463,Null
0.977509766,0.815429688,1.122192383,0.006152806,0.214477539,0.080444336,0.397460938,0.005115597,-0.104174805,-0.375366211,0.051879883,0.008987457,1.012086522,0.847411265,1.219326891,0.008194465,972.7430439,972.7245016,972.7675121,0.00017547,-0.000348826,Null
0.979057617,0.905029297,1.069458008,0.001412023,0.184008789,0.086791992,0.314453125,0.003212214,-0.140004883,-0.290527344,0.005126953,0.006291174,1.010632607,0.953689947,1.107158185,0.001456979,972.7381199,972.7268017,972.7453935,1.37E-05,1.02E-05,Null
0.976914062,0.783325195,1.196289063,0.00552461,0.209921875,-0.017089844,0.407104492,0.014368234,-0.102949219,-0.312988281,0.024291992,0.008674223,1.015236506,0.839554333,1.295624843,0.006669751,972.7399855,972.7272894,972.7552475,5.62E-05,6.74E-05,Null
0.976537119,0.782958984,1.172851563,0.010830918,0.226670067,0.072631836,0.411010742,0.006864849,-0.087005917,-0.323486328,0.038330078,0.00697095,1.011496279,0.82386076,1.272158847,0.014010581,972.7387819,972.7194728,972.7881002,0.000268181,-2.39E-05,Null
0.703520508,-0.093505859,1.302856445,0.150506942,0.504707031,0.07434082,1.260498047,0.146472157,-0.256450195,-0.688232422,0.108398438,0.042972389,1.050850274,0.653807614,1.435895787,0.048184515,972.7541457,972.6673328,973.0452922,0.005594062,0.000428779,Null
-0.063726868,-0.651977539,0.676391602,0.191406991,0.597578569,0.061645508,0.972045898,0.081545558,0.268644699,-0.860229492,1.100097656,0.333228697,1.002269516,0.643486575,1.315038825,0.031168837,972.701387,972.2139241,973.8711428,0.182224774,-0.004148467,Null
0.680166016,-0.118164063,1.215454102,0.191711759,0.670776367,0.079956055,1.397827148,0.143285208,0.176748047,-0.045776367,0.600952148,0.031277942,1.124286798,0.885433955,1.631438325,0.042826233,972.7251008,972.6344152,973.0862172,0.006923011,-0.000661049,Null
-0.399794922,-0.794555664,0.764648438,0.147306671,0.652114258,0.385498047,0.835083008,0.016046282,-0.266865234,-0.586669922,0.067260742,0.038229583,0.913756784,0.510202053,1.096636716,0.021132615,972.7337771,972.5837631,972.9624704,0.017862139,-0.002828662,Lift up
0.682617187,0.403930664,1.034545898,0.022896251,0.625825195,0.358520508,0.90222168,0.023007189,0.316137695,-0.212646484,0.759155273,0.058928728,1.024152828,0.76448641,1.2306077,0.012587144,972.7677047,972.4035768,973.2828277,0.034792329,0.00139409,Lift up
0.519663086,-0.397338867,1.124633789,0.197417003,0.455888672,0.264770508,0.768798828,0.02326517,0.528676758,0.07800293,0.954711914,0.052198137,1.00910288,0.785352255,1.173299521,0.009339598,972.7307551,971.7117223,974.3379516,0.326782668,-0.008735957,Lift up
0.948393555,0.836181641,1.054321289,0.003326318,0.361386719,0.164550781,0.854614258,0.025025981,-0.071142578,-0.224243164,0.109741211,0.009773672,1.031433827,0.888429261,1.325653306,0.009091851,972.6573085,972.3667836,972.7613871,0.010486444,0.003195336,Lift up
0.350351562,-0.377563477,1.044555664,0.219654959,0.450917969,-0.095336914,1.149780273,0.125542639,-0.539091797,-1.12097168,-0.025878906,0.098954039,1.008123699,0.709085273,1.466776242,0.040494874,972.7144906,972.5512123,973.1424991,0.012480328,-0.001677144,Lift up
0.024727094,-0.091674805,0.1328125,0.005727311,0.005305828,-0.129272461,0.180175781,0.014557127,-1.026403446,-1.098266602,-0.952392578,0.001470111,1.036411776,0.971283031,1.118601098,0.001548737,972.7063365,972.6750964,972.7509367,0.000575156,0.000746299,Lift up
0.004578253,-0.122680664,1.01953125,0.075688389,-0.006162701,-0.193237305,0.508178711,0.033339201,-0.913433653,-1.032714844,-0.3984375,0.047930395,0.987509332,0.553834568,1.148319323,0.014767009,972.6870825,972.5866726,972.7780166,0.002110679,-0.000348435,Lift up
0.958833008,0.873779297,1.199951172,0.006771934,0.302099609,0.247314453,0.514282227,0.003731613,-0.310893555,-0.458862305,-0.263671875,0.002371531,1.053095455,0.961267283,1.364482159,0.011127277,972.7129547,972.6350075,972.7780166,0.0011923,0.000345468,Lift up
0.922910156,0.876708984,0.948608398,0.000308687,0.263759766,0.193481445,0.291137695,0.000420832,-0.295439453,-0.349731445,-0.264648438,0.000626975,1.004861267,0.970600008,1.029622094,0.000215762,972.7324218,972.7083082,972.7681252,0.000275338,0.000250911,Lift up
0.942987121,0.896362305,0.969116211,0.000373372,0.274669081,0.245849609,0.29296875,0.000120339,-0.28166939,-0.310424805,-0.261474609,0.000113351,1.021858762,0.96816646,1.048535709,0.000415293,972.727008,972.6942021,972.7664185,0.00029613,-0.000252483,Lift up
0.81700797,0.418945313,1.024902344,0.030722237,0.48839099,0.221679688,0.792114258,0.02964752,-0.06577617,-0.342895508,0.312255859,0.045640528,0.999694778,0.658053656,1.21492905,0.0160664,972.7236777,972.3014086,973.6978792,0.125438979,-0.00543676,Lift up
0.638359375,-0.0546875,1.493774414,0.187834206,0.799179687,0.238647461,1.643310547,0.111898396,0.198994141,-0.478149414,0.871582031,0.124516532,1.179317823,0.705338375,2.281458339,0.116167321,972.4574644,972.2053733,972.7853696,0.027665437,-0.001975371,Lift up
0.948295898,0.454467773,1.131958008,0.018874715,0.189399414,-0.18347168,1.021606445,0.099322455,0.16862793,-0.065917969,0.301147461,0.008525694,1.041102383,0.912381926,1.222088947,0.005185952,972.3027005,971.5764823,973.0811507,0.211912483,-0.0124141,Lift up
0.440249023,-0.274658203,1.149169922,0.207037201,0.824628906,0.260009766,1.265136719,0.094116299,0.002441406,-0.27746582,0.598022461,0.058280034,1.09677684,0.750831272,1.400759495,0.027028039,971.9693172,971.7939356,972.2733244,0.020615744,-0.004052782,Lift up
-0.306064453,-0.352661133,-0.245727539,0.001247049,0.568686523,0.375,0.775024414,0.010653311,0.78543457,0.657348633,0.903930664,0.004765369,1.024749012,0.971619065,1.055304213,0.000379606,971.7520939,971.6408836,971.9090437,0.006666525,-0.002608617,Lift up
-0.321733834,-0.345581055,-0.193359375,0.000835267,0.600827661,0.548217773,0.943847656,0.002436326,0.755473826,0.655883789,0.784545898,0.000594138,1.019160426,0.992931575,1.165512673,0.000390587,971.4922864,971.3761433,971.6213268,0.004719719,-0.002327777,Lift up
-0.498752441,-0.668457031,-0.135009766,0.022327901,0.797281494,0.645019531,1.036376953,0.008897152,0.319174805,0.068725586,0.655883789,0.013931718,1.01245951,0.809809439,1.165512673,0.00597503,971.2463939,971.1282199,971.3761433,0.005684398,-0.002572538,Lift up
-0.394414062,-0.472900391,-0.361816406,0.000786047,0.860209961,0.813476563,0.894042969,0.00057067,0.392833252,0.34777832,0.423217773,0.000460741,1.025426186,1.00251526,1.058169945,0.000143448,971.0019436,970.8852504,971.1282199,0.004851725,-0.002391537,Lift up
0.426176758,-0.362060547,0.888061523,0.265752462,0.615410156,0.386962891,0.88684082,0.032098381,0.383632812,0.182617188,0.816650391,0.027379628,1.009956803,0.767876846,1.227967788,0.009591763,970.7870522,970.5656059,971.5530672,0.045452711,-0.004238026,Lift up
0.951495361,0.855712891,1.005737305,0.000778915,0.317327881,0.196899414,0.49621582,0.005014002,-0.059180908,-0.130615234,0.273681641,0.005517006,1.009775502,0.954673681,1.115427632,0.001104085,970.5254872,970.4708135,970.5665176,0.001207659,-0.001142458,Lift up
0.343671875,-0.369628906,0.9921875,0.274295663,0.667250977,0.312988281,1.23059082,0.080488681,-0.175142822,-0.482177734,0.058105469,0.022212346,0.960418183,0.430871926,1.301925969,0.045285727,970.3609376,970.1433326,970.5127123,0.006800603,-0.001132483,Lift up
0.218070599,-0.218505859,0.786010742,0.136192538,0.536152541,0.157104492,1.192382813,0.080940975,0.623032079,-0.276855469,1.080688477,0.089503119,1.00179439,0.612084004,1.239134876,0.023366622,970.2051079,970.0955623,970.2610976,0.00254431,0.001183836,Lift up
0.791097811,-0.098632813,1.006591797,0.061743951,0.504031946,0.223754883,0.870727539,0.033288862,0.158193456,-0.146240234,0.536621094,0.042327813,1.016877524,0.743297029,1.140088321,0.006938537,970.271751,970.2470748,970.2863877,0.00015082,-8.11E-05,Lift up
-0.029274902,-0.236572266,0.142578125,0.014882364,0.857174072,0.678710938,1.005859375,0.010291445,0.467426758,0.252807617,0.751464844,0.027807424,1.000857878,0.743297029,1.07957533,0.004875872,970.2651916,970.2365153,970.2845237,0.000159036,-0.00017455,Lift up
0.186505127,0.027954102,0.858764648,0.041529268,0.760100098,0.304077148,1.031982422,0.049547687,0.532434082,0.185302734,0.850830078,0.038653028,1.010606588,0.867780775,1.103326386,0.003160989,970.2847808,970.2443878,970.3992397,0.002089754,0.000967946,Lift up
0.937678223,0.818481445,1.092407227,0.005448164,0.291033936,0.170532227,0.44921875,0.004771339,0.025296631,-0.107421875,0.185302734,0.008110536,0.989283503,0.875970319,1.125824924,0.004086878,970.2446409,970.1466431,970.3203507,0.003056142,-0.00113402,Null
0.98635498,0.840332031,1.166870117,0.007387174,0.235039062,0.052856445,0.530151367,0.017602724,0.07175415,-0.084716797,0.23449707,0.00621411,1.025981117,0.857061541,1.271112725,0.011659478,970.2564874,970.2174768,970.3298498,0.00081897,-1.68E-05,Null
0.99069458,0.804443359,1.164306641,0.009146217,0.22677124,0.069824219,0.443603516,0.010386862,0.030123291,-0.148681641,0.131713867,0.004849742,1.022647356,0.812198592,1.218877688,0.012262362,970.2577146,970.2273749,970.3308646,0.000621618,0.000185869,Null
0.98126709,0.879150391,1.066162109,0.00277529,0.153546143,0.061889648,0.23034668,0.002344962,-0.017929687,-0.153930664,0.118530273,0.006490648,0.997773584,0.893903787,1.081952206,0.002753192,970.2564072,970.2233337,970.2800834,0.000278705,-0.00018138,Null
0.991784668,0.930175781,1.043334961,0.000953518,0.099753418,-0.06652832,0.2578125,0.009841801,-0.02690918,-0.197143555,0.128295898,0.009250206,1.006412346,0.935028841,1.076707066,0.001303975,970.2513216,970.2315349,970.284849,0.000182697,7.24E-06,Null
0.989295654,0.832885742,1.16027832,0.004847311,0.211016846,0.023193359,0.329467773,0.007272612,0.032937012,-0.151245117,0.132324219,0.006512685,1.018514821,0.848053606,1.188807978,0.005447162,970.2696485,970.2457744,970.2902666,0.000220433,-4.67E-05,Null
0.985484619,0.833984375,1.200195313,0.011187328,0.164838867,-0.028686523,0.428710938,0.010926442,-0.022646484,-0.117553711,0.075805664,0.003003018,1.005773,0.864421919,1.253924034,0.012273679,970.2726606,970.2456833,970.3017487,0.000217609,3.45E-05,Null
0.99663208,0.787475586,1.233398438,0.014476131,0.191633301,0.067138672,0.409179688,0.00993171,0.016824951,-0.147949219,0.158935547,0.006100991,1.021336463,0.802795807,1.278249466,0.017532806,970.2730247,970.2327726,970.3214746,0.000556964,-0.000452769,Null
1.005882568,0.831054688,1.213500977,0.013448233,0.196072998,0.048706055,0.414794922,0.007749699,0.011972656,-0.187011719,0.179443359,0.011663362,1.032976475,0.843396166,1.252667121,0.016040393,970.2589517,970.23209,970.2866655,0.000143018,0.000180991,Null
1.013204346,0.860595703,1.252929688,0.011598602,0.122353516,-0.021118164,0.280029297,0.007400244,0.032554932,-0.126464844,0.155761719,0.005025229,1.026497865,0.865732278,1.275865224,0.012827495,970.2681206,970.2000723,970.3204671,0.00102852,-0.000327027,Null
0.946365967,0.629150391,1.372436523,0.049346295,0.156872559,-0.042358398,0.310913086,0.005910594,0.009532471,-0.110717773,0.186523438,0.005255863,0.96558029,0.641035716,1.396723427,0.048354282,970.2904751,970.2165559,970.3678077,0.000920107,0.000954888,Stairs down
1.021186523,0.775146484,1.421875,0.03099854,0.162438965,0.061523438,0.290649414,0.004990759,0.097399902,-0.021728516,0.259887695,0.00800292,1.045372544,0.812532039,1.427781408,0.029741026,970.3187152,970.2429909,970.3890283,0.001371314,0.000942018,Stairs down
0.943830566,0.719482422,1.302612305,0.03187743,0.223631592,0.069580078,0.389404297,0.00528486,0.026339111,-0.141357422,0.156738281,0.005600672,0.974832008,0.72552947,1.318870807,0.033897841,970.3884309,970.3346651,970.554774,0.002534344,0.000153751,Stairs down
0.986932373,0.596801758,1.348999023,0.046140367,0.151531982,0.057128906,0.400756836,0.006914253,0.024034424,-0.052124023,0.120483398,0.003068171,1.00257224,0.606284558,1.364727062,0.048470274,970.4446202,970.3671083,970.5247807,0.002049349,0.001372638,Stairs down
1.038546143,0.596801758,1.454223633,0.065635475,0.123345947,-0.094482422,0.322021484,0.009633291,0.025739746,-0.075927734,0.168701172,0.004168327,1.052259803,0.606284558,1.49028752,0.066511996,970.5322891,970.48026,970.6535951,0.000732772,0.000624883,Stairs down
1.008839111,0.72668457,1.393798828,0.036221955,0.205925293,0.068359375,0.392456055,0.008878966,0.071756592,-0.073486328,0.317016602,0.009721355,1.040347139,0.748024753,1.424364222,0.03763886,970.5936544,970.5511348,970.6822496,0.001247134,0.000535492,Stairs down
0.945651855,0.729492188,1.267089844,0.019926364,0.200612793,0.034912109,0.481933594,0.018838149,0.065800781,-0.106933594,0.317016602,0.010784295,0.981613764,0.745676383,1.293194068,0.024566066,970.6553853,970.6251727,970.7214526,0.000684542,0.00056724,Stairs down
1.012072631,0.754150391,1.356567383,0.026396973,0.235192501,0.00390625,0.554077148,0.027935237,0.107679579,-0.052978516,0.267822266,0.007788335,1.058010308,0.764829943,1.462131711,0.033648551,970.7006997,970.6574787,970.7723627,0.000713796,0.000395603,Stairs down
1.032286993,0.837646484,1.214233398,0.00873078,0.199754167,0.000732422,0.446655273,0.012593184,0.173158551,-0.06262207,0.37109375,0.016693605,1.07785088,0.864220992,1.271491981,0.011494492,970.7149951,970.6852758,970.7748014,0.000777791,0.000647974,Stairs down
0.967537842,0.750854492,1.23840332,0.013444753,0.191055908,0.023193359,0.425170898,0.007977669,0.013220215,-0.100585938,0.201049805,0.006331114,0.992842363,0.798561154,1.269196011,0.014693589,970.7183336,970.6462943,970.7898674,0.001874322,-0.000360026,Stairs down
0.988414307,0.817138672,1.219482422,0.013205097,0.257067871,0.119506836,0.645263672,0.014587172,0.032508545,-0.12109375,0.246948242,0.009001036,1.030936382,0.848939952,1.358679544,0.017877864,970.7168191,970.6796334,970.7562476,0.000240323,0.000153125,Stairs down
0.977357178,0.835571289,1.216674805,0.012744625,0.170397949,0.053344727,0.325195313,0.004729824,-0.0328125,-0.176757813,0.12890625,0.007892374,0.998701382,0.846067645,1.247660074,0.013179675,970.7176096,970.6946849,970.7620116,0.000354313,4.07E-05,Stairs down
1.005195312,0.782226563,1.351928711,0.020129212,0.178989258,0.010131836,0.439331055,0.013523204,0.002757568,-0.236206055,0.252685547,0.011649613,1.031851784,0.800641657,1.383422184,0.022821494,970.7180684,970.6846322,970.7530046,0.000445978,9.56E-05,Stairs down
0.97677124,0.73828125,1.403808594,0.031994778,0.211015625,-0.015869141,0.498901367,0.019543636,0.016052246,-0.134521484,0.252685547,0.008548077,1.011170958,0.746227352,1.429106798,0.036248732,970.7363627,970.6855921,970.7812851,0.000533631,0.000615359,Stairs down
1.007133789,0.823852539,1.403808594,0.01132844,0.138909912,0.070556641,0.213623047,0.001873045,0.044182129,-0.097167969,0.200195313,0.006737083,1.021862736,0.858847283,1.429106798,0.011214369,970.801038,970.774436,970.8514952,0.000393681,-4.23E-06,Stairs down
0.964442139,0.673217773,1.352172852,0.038422027,0.134824219,-0.079467773,0.373779297,0.01108934,0.042166748,-0.184936523,0.272827148,0.010950916,0.984987663,0.679616793,1.355816277,0.040162835,970.8217815,970.7796878,970.8742912,0.000626877,0.000607544,Stairs down
0.971096191,0.661376953,1.438476563,0.043732884,0.120080566,0.011474609,0.245117188,0.003592991,0.048752441,-0.093139648,0.270141602,0.007464151,0.98496169,0.672255009,1.463667644,0.044360153,970.8938563,970.8450434,970.9209581,0.000526468,0.000579283,Stairs down
0.95901001,0.690917969,1.204223633,0.02727026,0.160623779,-0.036743164,0.372924805,0.009721248,0.042038574,-0.129760742,0.168457031,0.007214783,0.980619269,0.709816153,1.258660771,0.029714663,970.9553259,970.9074692,970.9989702,0.000736082,0.000765684,Stairs down
0.945318604,0.665649414,1.299438477,0.043439975,0.115406494,-0.04699707,0.365966797,0.009409822,0.039125977,-0.114624023,0.100463867,0.001880528,0.961492766,0.682232422,1.302026119,0.044731755,971.0322168,970.980006,971.1740657,0.002784087,0.000515453,Stairs down
1.048115234,0.819580078,1.489990234,0.028864111,0.104373779,-0.062255859,0.430541992,0.013201636,0.015541992,-0.137329102,0.149536133,0.006418854,1.058413853,0.827163867,1.493245394,0.027638611,971.0698589,971.0355546,971.1135768,0.000458793,0.000370526,Stairs down
0.973463135,0.698242188,1.385498047,0.040965915,0.180970459,-0.091674805,0.399536133,0.020211413,0.082537842,-0.066162109,0.401489258,0.0144676,1.008036908,0.706013627,1.414057447,0.046407421,971.1292912,971.0694693,971.3026547,0.002883707,0.001406956,Stairs down
0.985769043,0.799682617,1.213134766,0.016034079,0.188309326,0.080932617,0.331054688,0.004104893,-0.021219482,-0.140380859,0.134399414,0.005996468,1.007887473,0.813017039,1.262763686,0.01786687,971.1899609,971.1284253,971.3001584,0.001856712,0.00014123,Stairs down
1.002773437,0.856567383,1.201538086,0.010069522,0.171784668,-0.028808594,0.30871582,0.007416515,-0.01682251,-0.155517578,0.112182617,0.004719325,1.02272517,0.877264244,1.229270382,0.011478859,971.2049142,971.1656682,971.266438,0.000970628,-8.70E-05,Stairs down
1.008493652,0.791015625,1.222045898,0.013586606,0.169569092,-0.066772461,0.306030273,0.00687351,-0.05366333,-0.181884766,0.08972168,0.004452312,1.029440291,0.814611671,1.246073337,0.013746331,971.1954288,971.1521321,971.2595305,0.000983567,-4.17E-05,Stairs down
0.97303833,0.824707031,1.213867188,0.008999923,0.157802734,0.072631836,0.280761719,0.003893208,-0.05678833,-0.160888672,0.068115234,0.004630874,0.99121682,0.849170879,1.250283448,0.009866859,971.1892849,971.148398,971.2205022,0.00041793,4.37E-05,Stairs down
0.993922119,0.808837891,1.294555664,0.014381337,0.145738525,-0.019165039,0.262084961,0.0072832,-0.052139893,-0.16796875,0.083984375,0.004812142,1.011486986,0.843975002,1.327429275,0.014764665,971.1985978,971.1561663,971.2439204,0.000720193,-0.000146257,Stairs down
0.969118652,0.750488281,1.231445313,0.013937704,0.124536133,0.00402832,0.291748047,0.005468363,-0.012280273,-0.137084961,0.119873047,0.003909325,0.982083928,0.784205036,1.253396867,0.013580215,971.1744602,971.1403184,971.2357032,0.000444542,-0.00025147,Stairs down
0.989648437,0.610229492,1.365112305,0.051435832,0.180439453,0.017822266,0.454101563,0.011359245,0.048806152,-0.07019043,0.252319336,0.00691656,1.014729577,0.629470406,1.417638372,0.054225124,971.1977655,971.1535235,971.2724789,0.00072425,0.000702677,Stairs down
0.995515137,0.654052734,1.393066406,0.035398002,0.08800293,-0.184570313,0.308837891,0.009462553,0.071870117,-0.081176758,0.314086914,0.00781363,1.009693899,0.660106104,1.427846108,0.03699585,971.2436271,971.2090119,971.2756298,0.000369258,7.11E-05,Stairs down
0.998675537,0.685668945,1.393066406,0.045744568,0.119851074,-0.013549805,0.308837891,0.006629888,0.019224854,-0.124389648,0.103515625,0.004122341,1.010620383,0.692535965,1.427846108,0.047136337,971.3068464,971.2701907,971.3391083,0.000451019,0.000641846,Stairs down
1.004908447,0.650024414,1.449584961,0.062420917,0.094019775,-0.027954102,0.224975586,0.004630652,-0.009182129,-0.212768555,0.126708984,0.006430246,1.014431359,0.65427763,1.461435503,0.06307175,971.3603314,971.3294893,971.414213,0.000602452,0.000716193,Stairs down
0.983359375,0.72253418,1.312744141,0.036027072,0.080336914,-0.029541016,0.170654297,0.002460426,-0.008918457,-0.175537109,0.112915039,0.005763103,0.990909961,0.724180737,1.313605059,0.03579269,971.4241529,971.3857705,971.476496,0.000424099,0.000633786,Stairs down
1.002644043,0.592163086,1.449951172,0.054419122,0.098199463,-0.074829102,0.35168457,0.009807161,0.052678223,-0.107299805,0.216186523,0.009945637,1.012398694,0.605907195,1.466682343,0.055046435,971.5053649,971.4648214,971.5794779,0.001155125,0.000569044,Stairs down
0.977770996,0.763427734,1.204956055,0.011547895,0.1240625,-0.019287109,0.30090332,0.00700837,0.021921387,-0.105102539,0.194213867,0.005438382,0.992281413,0.779555276,1.208250042,0.01115199,971.529371,971.4935959,971.5949912,0.000521418,0.000172318,Stairs down
0.98963623,0.7421875,1.318237305,0.031986992,0.191804199,0.004150391,0.646484375,0.018877695,0.027011719,-0.144897461,0.236328125,0.009014812,1.020830998,0.75923607,1.333370715,0.034427405,971.5841323,971.527882,971.7807571,0.00341542,0.000318451,Stairs down
0.983442827,0.801391602,1.194702148,0.012362566,0.264948065,0.014038086,0.680908203,0.026286478,0.051529701,-0.127441406,0.32824707,0.01430381,1.036163627,0.818554202,1.317344105,0.018987287,971.6274425,971.5184354,971.7298319,0.003208372,8.37E-05,Stairs down
0.994602317,0.795898438,1.225830078,0.014810447,0.164457718,-0.056030273,0.346435547,0.011843236,-0.002183971,-0.110961914,0.118530273,0.003421508,1.014591416,0.810995341,1.257869198,0.01683322,971.6181274,971.5802255,971.6651808,0.000723653,6.16E-05,Stairs down
0.990888672,0.788208008,1.283813477,0.018328049,0.198588867,0.012329102,0.510986328,0.01426584,-0.031550293,-0.179443359,0.095825195,0.005300086,1.018244013,0.788631227,1.324869277,0.02321968,971.6072637,971.5528226,971.6541409,0.000632752,-0.000162264,Stairs down
0.98229248,0.818603516,1.155151367,0.010490321,0.181750488,0.002441406,0.42175293,0.008557351,0.010603027,-0.099365234,0.171142578,0.00558911,1.00519349,0.845365144,1.200875018,0.012142064,971.6242442,971.582573,971.6882979,0.000766229,-0.000143673,Stairs down
0.982229004,0.824829102,1.190917969,0.009196682,0.123740234,0.004638672,0.313110352,0.006092564,0.02416748,-0.094604492,0.171142578,0.006071944,0.996271279,0.845365144,1.225639452,0.009354186,971.6132886,971.5824952,971.6333763,0.000192412,-0.000170022,Stairs down
0.969616699,0.637329102,1.326660156,0.038807968,0.122919922,-0.134399414,0.342285156,0.012653926,0.0071875,-0.133789063,0.149169922,0.006350523,0.98771504,0.663896933,1.333516476,0.037344247,971.6376122,971.5923494,971.683824,0.000613562,0.000628555,Stairs down
0.991638184,0.643066406,1.379638672,0.046910478,0.10590332,-0.061523438,0.336914063,0.011199088,0.044938965,-0.060302734,0.200439453,0.004120105,1.004562878,0.648141414,1.421014284,0.049537485,971.7081423,971.6532929,971.7514077,0.000753347,0.000717436,Stairs down
0.956113281,0.718505859,1.397583008,0.03372622,0.06998291,-0.127075195,0.235107422,0.007200098,0.055895996,-0.129516602,0.236083984,0.009471102,0.96878599,0.721161818,1.407236188,0.033860331,971.7533554,971.7148353,971.804966,0.000682519,0.00082815,Stairs down
1.012561035,0.657592773,1.349609375,0.04600293,0.101611328,-0.083984375,0.345581055,0.013240735,0.048327637,-0.140991211,0.294921875,0.010987606,1.029060173,0.66302136,1.370138178,0.048994334,971.8310781,971.788861,971.8782564,0.000609268,0.00053006,Stairs down
0.985285645,0.719604492,1.428833008,0.043733697,0.086403809,-0.098999023,0.294555664,0.0080181,0.039040527,-0.095336914,0.205932617,0.005537819,0.99576579,0.730779419,1.444600291,0.045398781,971.8921622,971.8590815,971.9280825,0.000328547,0.000496676,Stairs down
1.038820801,0.689208984,1.446777344,0.056680662,0.102617187,-0.041748047,0.299560547,0.006537863,0.028010254,-0.115844727,0.164916992,0.005095869,1.049013325,0.692949555,1.463469188,0.058248294,971.974295,971.9241082,972.0335982,0.00114548,0.001091297,Stairs down
0.983823242,0.694458008,1.401611328,0.047472938,0.170263672,-0.032348633,0.479370117,0.016639846,0.015217285,-0.076049805,0.145629883,0.003061843,1.005805334,0.702790191,1.470121423,0.052513098,972.0579505,972.0160398,972.1079331,0.000516669,0.000445692,Stairs down
0.969912109,0.720458984,1.283203125,0.020904521,0.068356934,-0.074951172,0.255737305,0.007054618,0.087131348,-0.066650391,0.287109375,0.00552451,0.982313379,0.745080929,1.316012049,0.021417455,972.0986927,972.0652013,972.1282832,0.000238026,0.000177267,Stairs down
1.058037109,0.693969727,1.49206543,0.057370011,0.168850098,-0.001098633,0.362792969,0.01138208,-0.001633301,-0.163452148,0.123168945,0.006921887,1.077823195,0.70781401,1.524131905,0.061787825,972.163744,972.1228303,972.22054,0.000851336,0.000864111,Stairs down
0.969570312,0.706542969,1.283935547,0.020901159,0.202929687,0.007324219,0.648681641,0.017044521,-0.033261719,-0.133911133,0.100097656,0.004377295,0.999734772,0.723108799,1.379666305,0.02503386,972.2155972,972.1733094,972.2829744,0.000959785,0.000342241,Stairs down
0.998339844,0.833007813,1.280273438,0.012773947,0.196240234,0.027099609,0.394165039,0.008816711,-0.03357666,-0.200927734,0.126342773,0.007255601,1.024841102,0.874051627,1.32011613,0.014725836,972.2218985,972.186232,972.2895973,0.000546084,0.000100538,Stairs down
0.996032715,0.816040039,1.265991211,0.01566869,0.231291504,-0.039916992,0.461425781,0.015632075,-0.025739746,-0.177246094,0.170043945,0.006833584,1.031661215,0.829943029,1.343096247,0.019866269,972.2256563,972.1884406,972.2780075,0.000603901,0.000129592,Stairs down
0.996403809,0.841674805,1.240722656,0.010174883,0.140844727,-0.062011719,0.26940918,0.008684508,-0.053857422,-0.154418945,0.088867188,0.003153731,1.013322182,0.841678142,1.262642407,0.010635912,972.2288997,972.1873373,972.2977618,0.000900862,-9.65E-05,Stairs down
1.001965332,0.863769531,1.18737793,0.00746763,0.179140625,-0.029785156,0.490600586,0.01749565,0.021884766,-0.124389648,0.215332031,0.008214428,1.03024571,0.864654217,1.223794365,0.008024789,972.1996445,972.1607777,972.2539653,0.000681296,-0.000103161,Stairs down
0.955810547,0.728271484,1.211303711,0.019828586,0.213425293,0.030761719,0.465209961,0.01108303,0.18098877,-0.041137695,0.400268555,0.012331938,1.008162827,0.776969753,1.285869522,0.018484773,972.2159674,972.0079889,972.5517449,0.02379136,-0.001934339,Stairs down
0.959584961,0.64074707,1.410766602,0.060275474,0.225598145,0.046875,0.434326172,0.00998434,0.106591797,0.050415039,0.171142578,0.001406285,0.996334261,0.678023856,1.421896772,0.061946576,972.240595,972.178861,972.3365009,0.001244584,0.001053728,Stairs down
0.991347656,0.700805664,1.316162109,0.025945808,0.172519531,0.063110352,0.346923828,0.005719697,0.116186523,0.031616211,0.236083984,0.003698564,1.017238738,0.714827011,1.349833099,0.026533587,972.3186319,972.2757314,972.3610011,0.000378253,0.000114355,Stairs down
0.936923828,0.573608398,1.354370117,0.040451005,0.241235352,0.017578125,0.490356445,0.012292792,0.117871094,0.015136719,0.361206055,0.006678953,0.983065267,0.624397715,1.375051725,0.042753084,972.366568,972.3273757,972.4403244,0.000859548,0.00066167,Stairs down
0.914140625,0.645996094,1.366821289,0.042665404,0.250576172,0.093505859,0.490356445,0.008396237,0.162473145,0.04699707,0.3203125,0.006157327,0.967571105,0.665815049,1.41081701,0.045749451,972.4314481,972.3917887,972.4736691,0.000710043,0.00071528,Stairs down
0.959123535,0.60534668,1.284423828,0.049318527,0.344064941,0.162475586,0.526855469,0.008692247,0.16421875,0.075073242,0.322875977,0.004297706,1.036019413,0.642915515,1.397292665,0.054157181,972.5007488,972.4463852,972.5506403,0.000799018,0.000578021,Stairs down
0.890229492,0.621948242,1.286621094,0.035728788,0.331147461,0.10546875,0.60559082,0.016427676,0.144155273,0.035888672,0.302856445,0.005002084,0.968710489,0.700612017,1.383553527,0.041550387,972.5390493,972.4965249,972.5863824,0.000575077,0.000379723,Stairs down
0.978151855,0.622314453,1.356689453,0.035412017,0.212558594,-0.07019043,0.464355469,0.017124037,0.156713867,0.006225586,0.448608398,0.009616896,1.025557962,0.713728206,1.46024831,0.036650233,972.6054895,972.5524146,972.6665234,0.000983868,0.000829418,Stairs down
0.956630859,0.677734375,1.279907227,0.033472952,0.103378906,-0.063476563,0.339477539,0.009213891,0.041015625,-0.087402344,0.205566406,0.00602381,0.970550695,0.713760149,1.290887067,0.034108056,972.6483102,972.6060474,972.7036778,0.000679967,0.000428708,Stairs down
0.978662109,0.609375,1.428222656,0.037883963,0.281193848,-0.04309082,0.588623047,0.038341462,0.034658203,-0.095825195,0.14440918,0.005711876,1.037298094,0.612864018,1.444695346,0.043617461,972.7336869,972.673395,972.8126275,0.001717772,0.001239689,Stairs up
0.989538574,0.805419922,1.174438477,0.009897031,0.16550293,-0.04309082,0.319335938,0.007565414,-0.021184082,-0.176147461,0.100708008,0.004886316,1.009881216,0.847348425,1.186814901,0.009385633,972.7801174,972.7280328,972.8532966,0.001346099,-0.000147809,Stairs up
0.997033691,0.959106445,1.032836914,0.000442072,0.101154785,-0.01965332,0.193237305,0.003912687,0.030373535,-0.107788086,0.170043945,0.006582018,1.007772643,0.967894399,1.045240992,0.000457307,972.7809557,972.7561198,972.8055294,0.000171973,0.000115359,Stairs up
0.990200195,0.955200195,1.020385742,0.000210543,0.083110352,-0.057983398,0.153198242,0.002787445,-0.071906738,-0.127685547,-0.04284668,0.00053367,0.997909584,0.963931413,1.028511356,0.000249636,972.7921156,972.7745204,972.8073857,6.08E-05,-8.98E-05,Stairs up
0.991308594,0.937866211,1.068115234,0.000545897,0.103413086,-0.012451172,0.179199219,0.002605638,-0.052805176,-0.125976563,0.017456055,0.001739191,1.000235254,0.938215452,1.070395063,0.000552157,972.7813765,972.7465151,972.7972504,0.000115553,-0.000234553,Stairs up
0.209694824,-0.379516602,1.03515625,0.252583464,0.479169922,-0.034057617,0.989379883,0.080277792,0.524682617,-0.107666016,1.075805664,0.157541617,1.010801518,0.774697299,1.209635441,0.012774461,972.7832812,972.6465091,973.2291944,0.020527779,0.000181938,Stairs up
-0.394580078,-0.584716797,-0.107421875,0.032916081,0.47338623,0.231811523,1.031982422,0.092564949,0.609658203,-0.112304688,0.922119141,0.124173196,0.999012318,0.936693433,1.047491461,0.00060925,972.7212365,972.6609344,972.8073588,0.001576323,-0.000231036,Stairs up
-0.45157959,-0.55078125,-0.383911133,0.002266881,0.418649902,0.077758789,0.605957031,0.038701607,0.794916992,0.721313477,0.954223633,0.005893993,1.02810411,1.00063263,1.093520781,0.00048554,972.7383948,972.7191737,972.7803548,0.000344092,-0.000271917,Stairs up
0.25536377,-0.408813477,1.024047852,0.283483763,0.624108887,0.452392578,0.969726563,0.023499027,0.484345703,0.108276367,0.798583984,0.052865314,1.017938481,0.862405497,1.345412252,0.009458776,972.8218925,972.0434722,974.8049528,0.579630465,-0.00492827,Stairs up
0.376342773,-0.150390625,1.029052734,0.117283516,0.585332031,-0.122924805,0.981933594,0.062316766,0.636430664,0.27746582,1.020019531,0.04167821,1.042837219,0.731690196,1.310716467,0.021058285,973.1367045,972.4060125,976.53088,1.090175104,0.021998497,Stairs up
0.69769043,0.435668945,0.916748047,0.016444792,0.64286377,0.401855469,0.950073242,0.014441474,0.470246582,0.114746094,0.800292969,0.03618042,1.084651547,0.88102406,1.361019351,0.011216818,972.4405759,971.3808453,974.4587005,0.54269035,-0.006031033,Stairs up
0.706364746,0.53894043,0.916748047,0.006310187,0.51204834,0.13684082,0.855102539,0.032019385,0.40588623,-0.019775391,0.862060547,0.074152512,1.015626329,0.888108404,1.176996484,0.005806779,972.6875176,972.5288066,972.9745052,0.01200285,0.001131912,Stairs up
0.654824219,0.389770508,0.795043945,0.009196598,0.7265625,0.453125,1.152587891,0.02882284,-0.066574707,-0.426147461,0.480957031,0.068271364,1.026633111,0.896312115,1.274197907,0.012497338,972.7499356,972.7155306,972.8228937,0.00069574,-0.000407402,Stairs up
0.665285645,0.389770508,0.833129883,0.01417005,0.682109375,0.329956055,1.000610352,0.022500297,-0.101723633,-0.443603516,0.503662109,0.076021858,1.010860154,0.831542978,1.176631544,0.008033251,972.7561696,972.7146497,972.8764794,0.001932974,-0.000535608,Stairs up
0.654416504,0.492431641,0.884277344,0.012615546,0.656276855,0.465087891,0.956054688,0.017765116,0.45911377,-0.117553711,0.754516602,0.06773179,1.077655758,0.950412831,1.237586859,0.00559103,972.7468105,972.6885051,972.8732884,0.001686462,-0.000130625,Stairs up
0.679200439,0.293334961,0.987060547,0.035360947,0.663249512,0.225341797,1.608642578,0.134098855,0.151286621,-0.467041016,0.781860352,0.127544792,1.08091478,0.778475986,1.740942027,0.05026119,972.75987,972.6807458,972.9382604,0.006330838,-0.001774168,Stairs up
0.498867187,0.359619141,0.743164063,0.009679098,0.888308105,0.642700195,1.260620117,0.022435226,0.241140137,-0.110351563,0.60534668,0.046087293,1.076997724,0.850175989,1.426952116,0.013741242,972.7671751,972.4719229,973.2201417,0.030323691,-0.001685439,Stairs up
0.316557617,-0.238647461,0.673461914,0.05878857,0.900651855,0.25793457,1.345825195,0.043355606,0.169206543,-0.799804688,0.697143555,0.171499937,1.09280272,0.903288153,1.395309349,0.01687195,972.7402831,972.6483122,972.9950335,0.003183956,0.000702162,Stairs up
-0.19864502,-0.727783203,0.353027344,0.094544737,0.556335449,0.006591797,1.192626953,0.072148589,-0.454831543,-1.099731445,0.769165039,0.242319835,0.959398162,0.481361041,1.425495391,0.040726166,972.823415,972.2263188,973.4733379,0.134324397,-0.005222909,Stairs up
0.415847168,-0.461791992,1.182495117,0.347244212,0.454001465,-0.000610352,1.468139648,0.142292048,0.515097656,0.090942383,0.949707031,0.054564429,1.058633421,0.482935859,1.751405569,0.062956318,972.7423334,972.4440418,972.9955531,0.022866047,-0.000609545,Stairs up
0.290649414,-0.132080078,1.139404297,0.110279915,0.765305176,0.3125,1.398681641,0.101142076,-0.101921387,-0.701171875,0.723388672,0.21167483,1.035584386,0.804414166,1.419005554,0.027260501,972.7238905,972.3675731,973.0394712,0.035293436,-0.002882218,Stairs up
-0.081877441,-0.330322266,0.041259766,0.007151811,0.932888184,0.810913086,1.216308594,0.011824499,0.333591309,-0.454345703,0.590576172,0.07848064,1.037949606,0.843456712,1.271299457,0.007485289,972.7604355,972.6227972,972.9029071,0.005070873,-0.000466623,Stairs up
-0.05510498,-0.182861328,0.040893555,0.003469657,0.853728027,0.829467773,0.91015625,0.000358162,0.54923584,0.488037109,0.601928711,0.000812708,1.018749499,0.975258812,1.057679883,0.000294638,972.7511246,972.7201799,972.7671494,0.000169936,0.000324181,Stairs up
-0.082036133,-0.111206055,-0.051391602,0.000252498,0.838374023,0.808227539,0.883178711,0.000456239,0.573562012,0.510253906,0.619995117,0.000855717,1.019829836,1.002233559,1.037529761,7.09E-05,972.7638914,972.7573847,972.7726414,1.98E-05,0.000110502,Stairs up
-0.091850586,-0.133300781,-0.007202148,0.000810633,0.847264404,0.792358398,0.873291016,0.00043793,0.556883545,0.518676758,0.633666992,0.000551766,1.018750938,0.992063034,1.037836391,9.95E-05,972.7653921,972.7544426,972.7749419,3.38E-05,-0.000154203,Stairs up
-0.10060791,-0.161743164,-0.007202148,0.002710612,0.834926758,0.76953125,0.884399414,0.000912519,0.57973877,0.506958008,0.654663086,0.00214405,1.023735245,0.965137159,1.078342285,0.001007414,972.7561424,972.7365409,972.7668568,9.12E-05,-0.000237917,Stairs up
-0.026088867,-0.087158203,0.026977539,0.000917503,0.846518555,0.7890625,0.889282227,0.000856549,0.563364258,0.525024414,0.637451172,0.00122578,1.018440304,0.975084224,1.060561663,0.000406829,972.7424949,972.7260471,972.7643684,0.00012042,-0.000254337,Stairs up
-0.08512207,-0.11340332,-0.060058594,0.000206315,0.874926758,0.837280273,0.913208008,0.000138073,0.526455078,0.508056641,0.56652832,0.000258663,1.024820033,0.998822331,1.080068426,0.000240877,972.7237715,972.718658,972.7325521,9.28E-06,-4.89E-05,Stairs up
-0.087504883,-0.103027344,-0.06628418,9.96E-05,0.867834473,0.859619141,0.875244141,1.25E-05,0.529599609,0.515136719,0.547485352,5.93E-05,1.020490959,1.006282088,1.031710977,3.77E-05,972.7233151,972.7187672,972.7274383,7.59E-06,1.71E-05,Stairs up
-0.092038574,-0.119995117,-0.072509766,0.00011673,0.861883545,0.842773438,0.877685547,7.49E-05,0.538986816,0.504882813,0.570922852,0.000298899,1.020882582,0.987142344,1.031399868,0.000106616,972.720871,972.7120496,972.728882,2.72E-05,5.85E-05,Stairs up
-0.102790527,-0.133300781,-0.07800293,0.000323623,0.863503418,0.848266602,0.878662109,0.000113082,0.532180176,0.499267578,0.555053711,0.000333104,1.01986986,1.009535108,1.031541855,4.78E-05,972.7242804,972.7175463,972.7303447,1.03E-05,4.88E-06,Stairs up
-0.103474121,-0.119140625,-0.086425781,7.01E-05,0.863187256,0.851196289,0.869262695,2.22E-05,0.53755249,0.52722168,0.547363281,3.11E-05,1.022093688,1.00900761,1.030630048,2.61E-05,972.7236801,972.7191843,972.7280591,5.30E-06,2.54E-05,Stairs up
-0.094449463,-0.119506836,-0.073608398,0.000201617,0.86416626,0.852783203,0.874755859,4.39E-05,0.532939453,0.508178711,0.559692383,0.0002295,1.019890635,1.011521626,1.032707434,2.21E-05,972.7215716,972.7129456,972.7286719,1.94E-05,1.23E-05,Stairs up
-0.108796387,-0.149414063,-0.076171875,0.000445904,0.847113037,0.819580078,0.872192383,0.000277794,0.559178467,0.520507813,0.608642578,0.000890569,1.021592427,1.004099497,1.037035794,6.54E-05,972.7146551,972.7075125,972.7182307,8.82E-06,2.03E-05,Stairs up
-0.094943848,-0.118530273,-0.068847656,0.000159703,0.850491943,0.815673828,0.874267578,0.00030203,0.549764404,0.521972656,0.607055664,0.000513728,1.017595917,1.001451675,1.035013074,5.66E-05,972.7189907,972.7115019,972.7299572,2.00E-05,-6.02E-05,Stairs up
-0.09904541,-0.126220703,-0.076171875,0.000203838,0.844455566,0.817260742,0.874511719,0.00019885,0.568144531,0.523803711,0.596679688,0.000426431,1.022950637,1.009579212,1.050639863,9.72E-05,972.7148006,972.7076658,972.7222451,1.65E-05,6.38E-05,Stairs up
-0.099211426,-0.108276367,-0.082397461,3.15E-05,0.862011719,0.853027344,0.871948242,2.03E-05,0.540837402,0.523803711,0.552124023,3.98E-05,1.022486744,1.011041496,1.033135785,2.39E-05,972.7165005,972.710583,972.7211111,1.31E-05,5.77E-05,Stairs up
-0.111584473,-0.118286133,-0.09765625,2.33E-05,0.863791504,0.858520508,0.868652344,8.61E-06,0.537385254,0.527099609,0.547241211,2.17E-05,1.023433261,1.017132066,1.029256939,7.22E-06,972.7200573,972.7167847,972.72538,4.37E-06,3.48E-05,Stairs up
-0.110593262,-0.130981445,-0.095825195,9.12E-05,0.861580811,0.842529297,0.877929688,6.86E-05,0.544326172,0.525512695,0.595947266,0.000187482,1.025271743,1.010289763,1.054202936,7.84E-05,972.7204159,972.7088487,972.7336198,2.95E-05,-3.27E-05,Stairs up
-0.028597412,-0.135986328,0.064697266,0.003454357,0.850887451,0.779907227,0.913452148,0.001003817,0.576765137,0.53527832,0.646606445,0.001161729,1.030755744,0.986353279,1.083941691,0.000597566,972.7226685,972.7088487,972.7347729,4.75E-05,0.0001217,Stairs up
-0.015349121,-0.026000977,-0.003662109,4.48E-05,0.859954834,0.849487305,0.869384766,2.79E-05,0.554272461,0.535888672,0.565063477,5.18E-05,1.023266658,1.015293669,1.032596013,2.47E-05,972.7254963,972.7179863,972.7295498,9.44E-06,-1.72E-05,Stairs up
-0.034656982,-0.060180664,-0.02355957,0.000100816,0.838250732,0.788818359,0.861938477,0.000305148,0.582526855,0.542602539,0.666259766,0.00075817,1.02189555,0.996123811,1.03539059,8.58E-05,972.7269188,972.7224991,972.7338677,1.22E-05,-4.23E-05,Stairs up
-0.103656006,-0.143798828,-0.033935547,0.001159985,0.81897583,0.7578125,0.866699219,0.001749739,0.591964111,0.528076172,0.693359375,0.004346608,1.019259507,0.987927943,1.044995443,0.000183144,972.7316491,972.7249083,972.7397367,2.27E-05,-2.77E-05,Stairs up
-0.125074463,-0.141967773,-0.104736328,0.000132262,0.860617676,0.848999023,0.869873047,3.36E-05,0.532033691,0.512207031,0.547241211,8.94E-05,1.019594825,1.010490806,1.034740804,4.59E-05,972.7284995,972.7240487,972.7340024,5.09E-06,-1.93E-05,Stairs up
-0.120163574,-0.131958008,-0.104370117,6.51E-05,0.865299072,0.860473633,0.87097168,6.66E-06,0.533602295,0.517944336,0.545776367,2.12E-05,1.023716616,1.018725746,1.034740804,9.60E-06,972.726978,972.7213607,972.732405,9.28E-06,9.72E-06,Stairs up
-0.132874756,-0.174438477,-0.104614258,0.000720609,0.865758057,0.858398438,0.87109375,1.28E-05,0.528387451,0.509277344,0.553222656,0.000119068,1.023324444,1.011893305,1.036528689,3.74E-05,972.7281472,972.7187091,972.7354171,1.09E-05,-9.47E-06,Stairs up
-0.063648682,-0.147705078,-0.006469727,0.00091472,0.832832031,0.788452148,0.879516602,0.000354064,0.574080811,0.538085938,0.58996582,0.000192469,1.014062357,0.972094347,1.051989014,0.000356868,972.7317368,972.7236485,972.7400325,2.42E-05,6.32E-05,Stairs up
-0.005899658,-0.064086914,0.313964844,0.007079556,0.87890625,0.813598633,1.356201172,0.02003677,0.568248291,0.076660156,0.639282227,0.010556654,1.058823958,1.004762729,1.430049454,0.011722421,972.7495218,972.6467015,972.9836592,0.004960926,0.000957414,Stairs up
-0.007770996,-0.742431641,0.536376953,0.139607807,0.852399902,0.511108398,1.346435547,0.023392112,0.207227783,-0.351928711,0.588012695,0.051525076,0.985260613,0.808780252,1.358324303,0.011344047,972.6793131,972.5025746,972.8188772,0.00926714,0.001485918,Stairs up
0.050218506,-0.421020508,0.591064453,0.165941958,0.904921875,0.736083984,1.133544922,0.009384536,0.088218994,-0.255126953,0.350708008,0.033806024,1.012641249,0.753160849,1.251997234,0.010895942,972.7623125,972.6619339,972.9262372,0.00476028,-5.67E-05,Stairs up
-0.081125488,-0.905639648,0.93762207,0.529422311,0.635917969,0.299560547,1.148925781,0.065908691,-0.080209961,-0.293701172,0.188720703,0.013946669,0.991269347,0.575502026,1.484466394,0.038360223,972.7418858,972.603082,972.9519552,0.007765338,0.00104251,Stairs up
0.86460083,0.849243164,0.871459961,1.50E-05,0.51611084,0.49597168,0.5625,0.000141,-0.094377441,-0.108886719,-0.080810547,4.83E-05,1.011433638,1.001594539,1.021836849,1.65E-05,972.7776779,972.7707628,972.7879367,1.57E-05,-7.21E-06,Stairs up
0.85583374,0.841064453,0.872070313,9.16E-05,0.531348877,0.506835938,0.54675293,0.000175621,-0.08682251,-0.102539063,-0.0703125,7.80E-05,1.011261832,1.002927882,1.016826586,1.26E-05,972.7649587,972.7201067,972.7945279,0.000472079,0.000185281,Stairs up
0.85663208,0.845703125,0.864868164,1.90E-05,0.523878174,0.507202148,0.544921875,0.000115752,-0.083286133,-0.099365234,-0.075073242,4.41E-05,1.007636154,0.995777364,1.022622184,5.05E-05,972.7928315,972.7375439,972.8372824,0.000696565,0.00030251,Stairs up
0.861779785,0.851318359,0.875244141,3.94E-05,0.512890625,0.490356445,0.541381836,0.000138246,-0.095308838,-0.119384766,-0.080444336,7.66E-05,1.007477207,0.991629226,1.017826145,4.68E-05,972.7604233,972.7022797,972.7893777,0.00065917,0.000258267,Stairs up
0.888165283,0.865478516,0.914550781,0.000240817,0.472034912,0.414794922,0.499511719,0.000585976,-0.113997803,-0.138183594,-0.095703125,0.000116955,1.012688426,1.003304401,1.035523224,4.70E-05,972.7886827,972.7735598,972.815699,0.000111423,0.000273066,Stairs up
0.883609619,0.857543945,0.918823242,0.000224091,0.479737549,0.422119141,0.536254883,0.00079228,-0.116306152,-0.14440918,-0.08190918,0.000249659,1.012721475,0.991910565,1.035899266,9.07E-05,972.7964212,972.7826193,972.815699,7.49E-05,9.73E-05,Stairs up
0.894907227,0.854980469,0.953979492,0.00041494,0.452570801,0.384033203,0.495239258,0.001122415,-0.108994141,-0.202392578,-0.066772461,0.001468922,1.010062341,0.967540886,1.064794594,0.000312404,972.79196,972.7553074,972.8100867,0.00022489,-0.00038104,Stairs up
0.248197021,-0.489624023,0.966064453,0.385275106,0.381577148,-0.010375977,1.054443359,0.081086169,0.329831543,-0.255859375,0.974243164,0.228836736,0.98870058,0.561345532,1.259431626,0.026978708,972.6979436,972.4745715,972.8584615,0.013242603,-0.001982807,Stairs up
-0.414724121,-0.481567383,-0.337768555,0.001733131,0.691741943,0.106689453,0.957397461,0.050726814,0.455557861,-0.003295898,0.94140625,0.109684258,1.007286164,0.88452327,1.144091792,0.003973054,972.7381562,972.6564322,972.9029185,0.003502203,-0.001159258,Stairs up
-0.597419434,-0.853149414,-0.463378906,0.020862223,0.618220215,0.43347168,1.117675781,0.016572525,0.34590332,-0.211914063,0.685913086,0.149158503,1.016139966,0.76425105,1.388617105,0.011052737,972.8104154,972.72264,973.2224751,0.022547444,0.002080373,Stairs up
-0.801728516,-0.834106445,-0.766479492,0.000298496,0.60835083,0.57043457,0.650146484,0.000359298,-0.175197754,-0.211914063,-0.155273438,0.00010843,1.021895225,1.012972743,1.038092576,4.27E-05,972.7084383,972.6897414,972.7486471,6.92E-05,-0.000144991,Stairs up
-0.747515869,-0.767333984,-0.72277832,0.000133769,0.665593262,0.590332031,0.698242188,0.000750672,-0.161582031,-0.201049805,-0.073608398,0.001153475,1.014660026,0.953186299,1.032741725,0.00038958,972.7048451,972.6331255,972.7625792,0.001582972,-0.000826987,Stairs up
-0.740239258,-0.751586914,-0.73034668,5.50E-05,0.685212402,0.673217773,0.700317383,6.33E-05,-0.149276123,-0.162109375,-0.133789063,9.42E-05,1.019773581,1.010862666,1.027858286,2.60E-05,972.7315936,972.703157,972.7407562,7.64E-05,0.000273369,Stairs up
