avg_accX,min_accX,max_accX,var_accX,avg_accY,min_accY,max_accY,var_accY,avg_accZ,min_accZ,max_accZ,var_accZ,avg_magnitude,min_magnitude,max_magnitude,var_magnitude,avg_pressure,min_pressure,max_pressure,var_pressure,slope_pressure,Label
-0.04607965528041237,-0.06579589843,-0.03332519531,6.799558591235603e-05,-0.473372311933402,-0.48266601562,-0.46350097656,3.0724216529630285e-05,-0.8904916035718555,-0.9091796875,-0.87719726562,8.745742418121863e-05,1.0095913823807217,0.99553147696,1.02940234923,9.040689527328593e-05,984.0762949993855,984.07150992086,984.08012658504,7.494846005097984e-06,3.145564504260108e-05,Null
-0.0593798828092,-0.08020019531,-0.0361328125,0.00010555811602515684,-0.4511279296843999,-0.470703125,-0.43481445312,0.000122081005212719,-0.9003710937459999,-0.91552734375,-0.88513183593,0.00011330744232773533,1.008916317534,0.98830962611,1.02506302459,0.0001372597855832176,984.0818086450294,984.07564909222,984.09017593276,9.174961856649196e-06,4.021728934459116e-05,Null
-0.07091796874599998,-0.07556152343,-0.06469726562,6.9881689713393736e-06,-0.43391601562119986,-0.44750976562,-0.42199707031,4.0948848529837446e-05,-0.9111572265588,-0.91870117187,-0.90441894531,1.276863945851089e-05,1.0117159154271997,1.00393269277,1.01826559995,1.1074228641908867e-05,984.0898273219602,984.0800729086,984.10122361345,3.6242433786701874e-05,0.00015885937491449985,Null
-0.07263671874640001,-0.08068847656,-0.0634765625,2.670707125301945e-05,-0.42867675780759995,-0.43811035156,-0.41638183593,2.4345812178777023e-05,-0.9109521484339999,-0.92309570312,-0.90539550781,1.5774303010480787e-05,1.0094190126836,1.00221104862,1.01722275428,1.322028114572124e-05,984.1081299835024,984.09175095765,984.11541237348,4.487788181036856e-05,0.0001942426816725948,Null
-0.1052783203088,-0.19555664062,-0.06420898437,0.0015393267737772072,-0.4317724609356,-0.45703125,-0.39721679687,0.00021393722958620674,-0.9019238281204001,-0.94226074218,-0.85913085937,0.0003523899810392439,1.0064036269796,0.96533484837,1.03146268356,0.00021607225045198634,984.113330316066,984.1085230755,984.11957413942,1.0010636244946565e-05,4.7734985804451864e-05,Null
0.22061523437520006,-0.20788574218,0.6005859375,0.09263066633608535,-0.3829052734331999,-0.64367675781,-0.13928222656,0.022478818026267843,-0.8452783203091999,-1.08251953125,-0.3994140625,0.03048913059825535,1.0259078422939998,0.96384879793,1.1201670801,0.0014532290703815945,984.1302651748862,984.10929169445,984.15493474786,0.0002045791149444021,0.0001935390582360981,Null
0.3896337890600002,-1.18249511718,0.69213867187,0.259669554736621,-0.4865234374976001,-0.73229980468,0.42431640625,0.16372775188316332,-0.342148437496,-0.83984375,-0.13610839843,0.024104396887530983,0.9554029767615998,0.35533518954,1.50552151621,0.03617872379994117,984.1067067768837,984.04844476446,984.15924823013,0.0007539030229809118,-0.0007795349900013343,Null
-0.908466796872,-1.2060546875,-0.76513671875,0.007656113884801995,0.37262695312079996,0.1240234375,0.52966308593,0.00916181198251952,-0.46700195312159976,-0.92736816406,-0.24853515625,0.043497951006664835,1.1033737550924,0.9032582937,1.56277206436,0.024780470816916606,984.1553844623887,984.1159083579,984.18311066516,0.00042477576577823733,0.0006047609516735285,Null
-0.9437939453095998,-1.12377929687,-0.69348144531,0.010295900527802666,0.30220214843399995,0.14733886718,0.42443847656,0.006016955086785714,-0.301093749996,-0.58422851562,-0.12329101562,0.017252562118616914,1.0462530189924002,0.8373200935,1.30034841604,0.011429272536585666,984.1607492045248,984.14141456375,984.18891880393,0.00012481932761202925,-0.0001717523313134154,Null
-0.8856103515579999,-0.99438476562,-0.80505371093,0.0027392054084566957,0.34029785155919995,0.20104980468,0.50036621093,0.007520398130325811,-0.467495117184,-0.70483398437,-0.3798828125,0.00867101823426016,1.0633180271776002,0.94160413443,1.23848595717,0.006824339185033738,984.1589621404266,984.15004673372,984.18010690221,8.473281938326462e-05,-7.674514618272058e-05,Null
-0.8487841796847999,-0.92163085937,-0.814453125,0.0009458128611490509,0.3659667968703998,0.32153320312,0.46813964843,0.0015897449820055291,-0.43833496093440005,-0.49621582031,-0.38952636718,0.0010840973228058428,1.0243924982283996,0.97904997833,1.07883856835,0.0007144305663620791,984.1603926290173,984.15234413191,984.16812250798,7.728345062521636e-06,6.240676602846127e-05,Null
-0.8667919921831999,-0.92395019531,-0.83874511718,0.0004190294188780548,0.4100781249955998,0.29040527343,0.47705078125,0.0026946487812458527,-0.37925781249560003,-0.412109375,-0.34521484375,0.0003272407223555556,1.0326405910311998,0.99333531526,1.06154580605,0.00039276175816831637,984.1696935323763,984.16259135364,984.1766789051,1.315190807205351e-05,-4.5331072908095444e-05,Null
-0.878803710934,-0.95837402343,-0.77514648437,0.0028336453678348317,0.3443261718712,0.26147460937,0.47375488281,0.0034148133403071566,-0.4188720703083999,-0.54174804687,-0.3359375,0.0033196535976680467,1.0358086944963998,0.9605270455,1.13601678626,0.0029121877389461297,984.1608008862283,984.15135984967,984.17561999859,3.1323293668488376e-05,-5.857672703332496e-05,Null
-0.8797269780548935,-0.93334960937,-0.83959960937,0.0004070283919025947,0.35820883892574445,0.31188964843,0.42053222656,0.0006297492267155504,-0.37990618766255313,-0.46838378906,-0.27917480468,0.0027495876680921527,1.024449199112766,0.97223024346,1.06784638776,0.0008204915013694529,984.1535369801358,984.14475767966,984.16044160252,2.8360240538179696e-05,-3.5508041479311135e-05,Null
-0.8332926432233334,-0.83374023437,-0.83276367187,1.693117444378397e-07,0.31154378254875,0.31018066406,0.31298828125,1.3316023207070172e-06,-0.4290262858025,-0.43872070312,-0.4130859375,6.440141495771104e-05,0.9877002607716667,0.98064644407,0.99156450251,1.1543870908528692e-05,984.1990273529817,984.19671614727,984.21092428953,1.3777338292861824e-05,0.0004111735627122937,Lift Down
-0.8531141772676291,-0.873046875,-0.83337402343,0.0001686087108059605,0.2990426918862887,0.2587890625,0.31945800781,0.0003044132442830312,-0.4333294740614433,-0.44873046875,-0.4130859375,7.133600637761993e-05,1.0026865240456702,0.98064644407,1.02162642794,0.0001394240444412529,984.2950502732738,984.21092428953,984.39760049448,0.0032432354853786207,0.0010082269783126359,Lift Down
-0.9299206023482979,-0.95727539062,-0.87353515625,0.0006779376088544744,0.2657438237582979,0.24536132812,0.29418945312,0.0002111605197777438,-0.3968992841973404,-0.42883300781,-0.37353515625,0.00023316676283897939,1.045688681258032,1.00558381981,1.07742753481,0.000555580837308714,984.524333831526,984.41217508384,984.62910890892,0.004786978214714815,0.00126597973543491,Lift Down
-0.9167371355585475,-0.95434570312,-0.89172363281,0.000441680511231658,0.27582366772446926,0.26318359375,0.29736328125,0.00010658954187158252,-0.40614702448173184,-0.42834472656,-0.38598632812,0.00013546307603852186,1.039975216369218,1.00752308112,1.08396760394,0.0005757561313548775,984.6729459751813,984.63460354151,984.69010999593,0.0002518309881294649,0.00029191825638883557,Lift Down
-0.8965544267100001,-0.91833496093,-0.88269042968,5.9797171170025294e-05,0.27528866854130685,0.26342773437,0.28784179687,3.7467157970558515e-05,-0.4052394520114772,-0.41442871093,-0.39599609375,2.891245551987936e-05,1.021701035400966,1.01073839859,1.04293876776,6.553101540552568e-05,984.6985539360874,984.69334318256,984.70545862195,1.4806375777100162e-05,4.51173160138009e-05,Lift Down
-0.8841775333142351,-0.89685058593,-0.865234375,5.166799950118812e-05,0.2881807215036471,0.267578125,0.32897949218,0.00020953073883176745,-0.40765021828717646,-0.45153808593,-0.39611816406,4.679743644940226e-05,1.0155167745003528,1.00148002802,1.02834096165,2.8773532325494086e-05,984.701553231587,984.69534404134,984.70646694722,4.931400806590954e-06,1.8598042491970307e-05,Lift Down
-0.8687373570002976,-0.9111328125,-0.81408691406,0.0008040932051017603,0.3583780924445238,0.30041503906,0.40979003906,0.0014427814059769146,-0.4054383777394047,-0.49096679687,-0.35778808593,0.0022143231073725148,1.0253767066278572,0.97677075263,1.05999778878,0.0005603184394908653,984.7074953701552,984.70244743233,984.71159696725,6.7619561918588734e-06,3.161415156621151e-05,Lift Down
-0.8921977717659144,-1.11279296875,-0.74206542968,0.012574025165794348,0.3064381669177439,0.14892578125,0.45495605468,0.005994902695248461,-0.4066891553888414,-0.50915527343,-0.25817871093,0.005727480291570199,1.0328260513133536,0.88030001014,1.27769428657,0.012814024546472142,984.7049547316461,984.69719788984,984.72637625243,5.216035887467024e-05,-6.0801667059017455e-05,Lift Down
-0.8835533669866668,-1.10009765625,-0.73754882812,0.0074664567692769345,0.3513935976772327,0.26647949218,0.42224121093,0.0019465726008050556,-0.42529066553308165,-0.57666015625,-0.24157714843,0.011070073117371761,1.0470402761348427,0.92495933295,1.29216578348,0.009134551095499741,984.7092248715018,984.69360487264,984.73536411608,0.00015209762541402568,-2.829971722942243e-05,Null
-0.8727133198105731,-0.94860839843,-0.8076171875,0.0014834206039177856,0.33717064340802544,0.29162597656,0.37316894531,0.00042739208401049823,-0.4196559638705732,-0.54736328125,-0.26049804687,0.005116975747519215,1.028240736400828,0.96304147556,1.08282635667,0.0011349518135240965,984.7056820849353,984.69523661254,984.71185122609,2.2603360342265202e-05,1.9188343130117246e-05,Null
-0.8738894772190907,-1.01904296875,-0.78186035156,0.002753139471263673,0.36630130123441557,0.32189941406,0.48022460937,0.0024322539772770385,-0.41669414569396107,-0.50134277343,-0.26916503906,0.0022074165272312945,1.037932448788247,0.97171430669,1.16335278195,0.0021477696271143517,984.7175591553889,984.70856598461,984.72964453575,3.98664561074613e-05,0.00010298669713089288,Null
-0.8843452504101325,-1.13659667968,-0.47473144531,0.02709903014398589,0.3448478243976821,-0.04663085937,0.64111328125,0.03102918137991587,-0.4793668835325165,-0.61315917968,-0.26916503906,0.005943958351362575,1.0823084316947023,0.7806110344,1.35520515297,0.023189032245784863,984.7217967851911,984.68937954673,984.7476808145,0.00023003994502994142,-0.00011287713717307883,Null
-0.9128780880445946,-1.11560058593,-0.68151855468,0.016414305073146056,0.37138902818452707,0.22924804687,0.46496582031,0.0033807590327142507,-0.39189189188817564,-0.55712890625,-0.15417480468,0.01869599478701805,1.0708054305345946,0.88319464657,1.3001679014,0.0165741705649073,984.7190783050846,984.69953344706,984.75151096465,0.00018661748278991683,2.9397168878821238e-06,Null
-0.9750993284429452,-1.36865234375,-0.6494140625,0.044249053450682266,0.34163968856657534,0.2412109375,0.45568847656,0.003827620982810996,-0.35607993765575346,-0.63549804687,-0.04724121093,0.03252537466264104,1.1081963005373288,0.72168769883,1.47299207708,0.04623944476751694,984.7086393188778,984.65270532567,984.76992823251,0.0007755130694446294,-0.0002965517029232935,Null
-0.9355801669004195,-1.20141601562,-0.66088867187,0.02938207001398771,0.36570899802888107,0.28356933593,0.43566894531,0.001917114372249509,-0.38887504097007,-0.56896972656,-0.18395996093,0.015621477437794674,1.0843670115847555,0.77779237462,1.37910596141,0.03123628246353945,984.6510216961028,984.59165668799,984.72066039372,0.000830128741156752,-0.0005455960182706138,Stairs Up
-0.9456458125525531,-1.26953125,-0.65148925781,0.03312471144516127,0.3399675518024823,0.255859375,0.44677734375,0.0027254374933031026,-0.3654620664300709,-0.55029296875,-0.05834960937,0.020494448547019494,1.0807689155078724,0.74527040958,1.44481250774,0.031493359922087294,984.5668302645214,984.49094849301,984.61693353535,0.0011576358265543449,-0.00043537600053797295,Stairs Up
-0.9293010903743166,-1.25549316406,-0.62609863281,0.04262118853472282,0.36279033413424466,0.27673339843,0.42614746093,0.0022679652570850944,-0.426537383370072,-0.60266113281,-0.138671875,0.019274280744442138,1.094486228198489,0.74527040958,1.45065620368,0.04326446102186406,984.476573725329,984.40523479355,984.56358776625,0.0010376592948027868,-0.0005262901431516783,Stairs Up
-0.9106445312463504,-1.19714355468,-0.63647460937,0.034872517208372,0.3317140453886861,0.26000976562,0.44201660156,0.0027560704463829157,-0.42128514198912415,-0.62390136718,-0.19323730468,0.01706234860281536,1.064721739910365,0.75154886649,1.41293662652,0.03772354430342103,984.397227967224,984.35149423419,984.46973500037,0.0009238468818693307,-0.00043343507126996934,Stairs Up
-0.8726897737838059,-1.19714355468,-0.57873535156,0.04177864481289584,0.3387551378802239,0.23913574218,0.41711425781,0.0018474970654009807,-0.4605931523987313,-0.63366699218,-0.21643066406,0.014301839146140017,1.0514396305966416,0.70521857851,1.41293662652,0.040763125041814854,984.3150914860751,984.26180794628,984.38279001826,0.0008864727053231335,-0.000558315308227513,Stairs Up
-0.8651031264651879,-1.27331542968,-0.5146484375,0.044275313305073644,0.4024685737739098,0.27331542968,0.55224609375,0.006259343494554065,-0.46960908129248125,-0.68127441406,-0.09729003906,0.02578821787481158,1.082656353959173,0.78161370394,1.41848661881,0.034782824229952936,984.245970791027,984.20261088428,984.29668664598,0.0005988539589899488,-0.00043814573506548393,Stairs Up
-0.9654578288965647,-1.26574707031,-0.64819335937,0.04245735749390126,0.2834864026680153,0.0517578125,0.46301269531,0.011790394385692238,-0.41966748419259536,-0.56506347656,-0.16979980468,0.01703474247401789,1.1040297562028243,0.72941628792,1.39228890025,0.0407619678184567,984.1892141784226,984.12793330667,984.26354624918,0.0012473529839857314,-0.0006764462912921427,Stairs Up
-0.8738927841149219,-1.17175292968,-0.55822753906,0.03601467613730387,0.3553066253621875,0.19873046875,0.46411132812,0.004622042439437331,-0.41935539245171877,-0.6474609375,-0.17663574218,0.01703308199702096,1.0401087545435157,0.67908036311,1.37503833067,0.041507653860710404,984.1235946439388,984.07780123995,984.19349152154,0.001314414548302827,-0.0005973071981363137,Stairs Up
-0.8823728561360156,-1.08898925781,-0.64123535156,0.013530121623846226,0.34028530120335937,0.19738769531,0.48803710937,0.006470497227332126,-0.4305505752525781,-0.62658691406,-0.14196777343,0.02346495689904914,1.0509706128895313,0.80179971267,1.30381566459,0.018480895091772927,984.0963192674938,984.06663434569,984.12858153145,0.00031462432497318633,8.763323982701047e-05,Stairs Up
-0.9317991022447368,-1.26635742187,-0.68371582031,0.026148232719896306,0.32405813116421056,0.19738769531,0.4560546875,0.004457053968267555,-0.43707168310999994,-0.62280273437,-0.10546875,0.028448888750596608,1.0913243264864034,0.81438593964,1.46143571752,0.03212405623844006,984.0896052732727,984.05190204478,984.12567557468,0.00043726047580984625,-2.856754464914043e-05,Stairs Up
-0.9196362304639999,-1.21154785156,-0.68371582031,0.02165961633435418,0.332548828121,0.25573730468,0.43469238281,0.0030805381621773786,-0.3884216308555001,-0.56628417968,-0.15661621093,0.019717223227143643,1.0622207505186,0.83305559099,1.39881362332,0.023121983738967677,984.0856998608014,984.05166921331,984.11079815972,0.0002509033027172748,-8.100679253320349e-06,Stairs Up
-0.9759704589799,-1.21838378906,-0.69494628906,0.024985855087621155,0.29808227538669996,0.19812011718,0.40808105468,0.0033247097258131517,-0.3477050781219,-0.53649902343,-0.083984375,0.017611613779205088,1.0890039842644,0.87136379897,1.34057517703,0.022023717292866687,984.0884999746534,984.04453644239,984.13522261754,0.000573301350739604,-0.0005257085272157158,Stairs Up
-0.9672180175738998,-1.24768066406,-0.67077636718,0.033099127350343406,0.2783117675742,0.00366210937,0.50512695312,0.01184943326030713,-0.27416503905859996,-0.42858886718,-0.05822753906,0.014441523262839788,1.0543565730854,0.74715246609,1.3632677236,0.03561919389889861,984.0194585876108,983.96250646044,984.07094918953,0.0008978270947728874,-0.0007881894178708746,Stairs Up
-0.8989257812450998,-1.20336914062,-0.59265136718,0.03902450414588841,0.3271081542928,0.23132324218,0.42065429687,0.0020404714089474517,-0.4196704101526999,-0.58605957031,-0.15979003906,0.016795049357850547,1.0549565132481,0.77172817772,1.3825718999,0.035897714923854476,983.9461605991685,983.88349527557,984.02303775745,0.001200087856038968,-0.0008837018466884957,Stairs Up
-0.920836181638,-1.23034667968,-0.6611328125,0.033058064301195594,0.3193823242146,0.19189453125,0.40686035156,0.003629752716620444,-0.40888671874689986,-0.59875488281,-0.17126464843,0.012259663355613093,1.0658050985756002,0.7913403445,1.33688684941,0.029949685478375624,983.8778044452966,983.81201841749,983.93115715835,0.0010932473204186778,-0.0006674136629535993,Stairs Up
-0.9376916503871999,-1.20458984375,-0.71069335937,0.023638520955795612,0.31510009765299996,0.24182128906,0.40100097656,0.002136261023690201,-0.34037475585470006,-0.51440429687,-0.14086914062,0.014628883977997024,1.0550224373661001,0.7913403445,1.36983584984,0.0215514779018476,983.8018117683679,983.73628678729,983.85378299224,0.0008373443633382479,-0.0007187889808997126,Stairs Up
-0.9381164550747997,-1.4033203125,-0.61950683593,0.049995468233443606,0.3162695312472,0.07849121093,0.55480957031,0.013762958507391064,-0.3216796874959001,-0.59008789062,-0.07177734375,0.02125219564247114,1.0543265811768001,0.70179966951,1.52224122053,0.05668959334122988,983.7347087693191,983.67398208227,983.82602391427,0.0013362824230173723,-0.0007086601768143462,Stairs Up
-0.8720239257781999,-1.18115234375,-0.56201171875,0.03825775324099769,0.39059326171489983,0.12780761718,0.79370117187,0.02663250180811426,-0.3778015136679999,-0.66076660156,-0.08862304687,0.02751453397688384,1.0415139760736003,0.64744073022,1.46123999253,0.06308301589455367,983.6717713071307,983.62777350739,983.73711469569,0.0010553682703945476,-0.0005120484784357212,Stairs Up
-0.9023327636678999,-1.20202636718,-0.70483398437,0.017152429257965562,0.33372924804239995,0.2236328125,0.43872070312,0.003454884222960167,-0.4199926757769999,-0.62048339843,-0.12316894531,0.026583877229856084,1.0622886387155999,0.80545324168,1.40670140756,0.0204400019760458,983.6484402357225,983.62256946422,983.68143468621,0.0002608918597553792,-4.438702154125368e-06,Stairs Up
-0.9001232910117,-1.13684082031,-0.68505859375,0.018353426003351603,0.3592907714809999,0.24658203125,0.45678710937,0.0026952313337370703,-0.41152832030919995,-0.58605957031,-0.18505859375,0.01762056504843449,1.0602981226151,0.78270206928,1.32406231566,0.022947249748397177,983.6575636612599,983.63293023522,983.69877039658,0.0003353221620830416,0.00024728310094275263,Stairs Up
-0.9084484863245998,-1.18615722656,-0.68505859375,0.01862527640614618,0.3399414062469998,0.25012207031,0.41003417968,0.0021956761678485533,-0.39418090820060003,-0.55639648437,-0.16967773437,0.017207952055976868,1.0544773684069,0.78916162869,1.36987793098,0.022165146947292342,983.6709449532078,983.64097795982,983.70418335774,0.0003991096766308077,3.225274585208471e-05,Stairs Up
-0.9123107910118999,-1.22045898437,-0.66918945312,0.02838840730721113,0.3207897949181,0.20788574218,0.44360351562,0.003461630385078682,-0.39795532226179986,-0.55004882812,-0.08361816406,0.02264495852466001,1.0572446685084997,0.70570744883,1.37610091222,0.0300699672757484,983.6745784790993,983.64368890007,983.736868684,0.0003134006222450151,-9.399364710313919e-05,Stairs Up
-0.8974755859344,-1.29248046875,-0.58471679687,0.04236770196405481,0.32911865234019994,0.18896484375,0.69128417968,0.016351635715016063,-0.3559851074182,-0.53979492187,-0.15246582031,0.012859276405211296,1.030595090126,0.69103521962,1.4236524811,0.04974090860818472,983.6319018362462,983.58194580971,983.736868684,0.0017530050685483287,-0.0010425974098881195,Stairs Up
-0.9880798339808998,-1.28796386718,-0.64965820312,0.030798252295303655,0.30084106444940006,0.21740722656,0.40112304687,0.0029356023563226383,-0.3829650878873,-0.60656738281,-0.06164550781,0.033407704208767305,1.1193580548020998,0.81228423004,1.42699122885,0.027249546811326436,983.566610316881,983.50142276301,983.64312156435,0.001327557517940844,-0.001043317737934859,Stairs Up
-0.9386596679656001,-1.26049804687,-0.66442871093,0.02872897925420812,0.32859619140310004,0.25085449218,0.42700195312,0.00261881225646758,-0.40300292968409984,-0.57104492187,-0.19104003906,0.014214423569734631,1.0798567147188,0.80269177177,1.44173543422,0.030792787080910235,983.4854808298378,983.42411510955,983.54626781684,0.0010634987759017842,-0.0008684010583816643,Stairs Up
-0.9288757324183001,-1.18664550781,-0.66137695312,0.029435195819016127,0.33140991210500004,0.26843261718,0.41833496093,0.0021377910553802065,-0.4108166503874,-0.57458496093,-0.22094726562,0.012483683227057221,1.0748465160662,0.7782623097,1.38321349693,0.03003439055697318,983.4028469617956,983.34435251287,983.44790016135,0.0008597999255138101,-0.000694607522130489,Stairs Up
-0.9162854003861,-1.27966308593,-0.58837890625,0.04613882011070176,0.3357604980428999,0.25268554687,0.45202636718,0.0022371156574311985,-0.3684289550737999,-0.55541992187,-0.07165527343,0.021657015354352382,1.0546809340467,0.72683374407,1.4282459068,0.04548958678332407,983.3308744396147,983.28107510206,983.38609406793,0.0009433793165151397,-0.0006516737627082686,Stairs Up
-0.8860131835897002,-1.26062011718,-0.60632324218,0.04704386525106855,0.3182080078086,0.13195800781,0.46643066406,0.00747202897328287,-0.3639770507782999,-0.55163574218,-0.0927734375,0.014068286677497672,1.0214091006497001,0.69957546107,1.41528997309,0.043814928713016864,983.2661208472355,983.21221525236,983.350565696,0.0016057603259025742,-0.0010019705861931496,Stairs Up
-0.8959997558551,-1.32153320312,-0.59387207031,0.038767841565329,0.37201904296530003,0.279296875,0.45849609375,0.002790287642792633,-0.3807678222613999,-0.61743164062,-0.12280273437,0.02075168652224052,1.0507860586428,0.69143398681,1.48905155942,0.044174991746810825,983.2231147858223,983.18685149028,983.2795950621,0.000630108436868907,-0.0003964430903422546,Stairs Up
-0.9056506347619,-1.14428710937,-0.69311523437,0.017495628888885856,0.3545288085899999,0.25817871093,0.47045898437,0.003324768007439584,-0.43977783202829995,-0.560546875,-0.17529296875,0.015080420121934527,1.0759007057531997,0.8707574272,1.34340772594,0.017452293048181373,983.2159293714318,983.18888155917,983.2392960538,0.00020957051943290873,-8.39939391579392e-05,Stairs Up
-0.8735742187462,-1.0947265625,-0.65771484375,0.01773202505992324,0.3386181640587999,0.25,0.41625976562,0.002600565679100343,-0.4486596679655,-0.60424804687,-0.19995117187,0.016506097286464443,1.0465211314415,0.8060213626,1.30598515376,0.02055908781790857,983.214782938859,983.18888155917,983.2406169272,0.00029199458623733646,0.0001586860649337598,Stairs Up
-0.8933044433556,-1.16943359375,-0.69592285156,0.01691418385728429,0.33628417968429986,0.25744628906,0.44445800781,0.0028498391672093105,-0.4005114746058,-0.54443359375,-0.15832519531,0.017568058586811503,1.0447081141824,0.83670239793,1.33709758449,0.017205087147345588,983.2135014717248,983.18893058116,983.24331687527,0.0002794602552705901,0.00012878209376573883,Stairs Up
-0.9487780761683,-1.22814941406,-0.61474609375,0.030875581350959802,0.3225036621061,0.1923828125,0.43566894531,0.0034535127983268982,-0.3757958984338,-0.53063964843,-0.15393066406,0.013284037955928456,1.0770009827023999,0.78388812011,1.35156557049,0.03294635475864052,983.2026972165914,983.15519120873,983.24457921657,0.0006936566568198742,-0.0004713097421584086,Stairs Up
-0.9331335449182001,-1.25854492187,-0.58972167968,0.0427275754153127,0.31987792968409995,0.19970703125,0.48486328125,0.005745432087872041,-0.3166113281205,-0.56823730468,0.03479003906,0.02301838207709162,1.0478524883959,0.72872294935,1.41528830955,0.04654997362918043,983.1494430285474,983.11474437282,983.23399424167,0.0010640705891881116,-0.0005261030982933472,Stairs Up
-0.8913073730432001,-1.19409179687,-0.58227539062,0.03939185301966623,0.32846069335500006,0.20690917968,0.39672851562,0.0023726743806165356,-0.43133056640199996,-0.61352539062,-0.16491699218,0.021539873974674887,1.0555768294192,0.7535508855,1.38322512079,0.03716185089856569,983.0734954115982,983.01839310598,983.15097678982,0.0011195248587105976,-0.0007903956261396411,Stairs Up
-0.8916210937468999,-1.19177246093,-0.58459472656,0.041598739262550886,0.3276660156208,0.25769042968,0.41760253906,0.0021557967831874925,-0.42121582030840005,-0.5927734375,-0.21813964843,0.013456011059364607,1.0463736554374,0.69470610589,1.37603145622,0.04193593406684709,982.9954408681281,982.93797518885,983.07248973757,0.0011994915444912694,-0.0008285806635319004,Stairs Up
-0.9213073730435998,-1.2412109375,-0.61645507812,0.03856336991433155,0.3375598144492999,0.24267578125,0.40441894531,0.0020005920604952063,-0.41716674804180004,-0.59655761718,-0.20349121093,0.015376660334611781,1.0757205453465,0.70318417829,1.42011662109,0.04380657638337786,982.9241770255034,982.85085048823,983.00048126606,0.0012542308371475271,-0.0008567289907953997,Stairs Up
-0.920490722653,-1.3173828125,-0.59814453125,0.041527034423457405,0.3502514648391999,0.09729003906,0.79064941406,0.02585305036316748,-0.35881591796519985,-0.59167480468,-0.10729980468,0.025947304741256498,1.0639730761625998,0.67784885022,1.49298570664,0.0596803342742894,982.8410760078935,982.79001156876,982.91446944939,0.0012715546916183989,-0.00046695273435255904,Stairs Up
-0.8973706054647999,-1.24890136718,-0.59936523437,0.03900146894389396,0.3341357421829999,0.19580078125,0.64318847656,0.010867227544595461,-0.36635253905879994,-0.57458496093,-0.08911132812,0.025751429591345815,1.0388180000473997,0.73930668133,1.4927951065,0.047329260837904785,982.7654937906372,982.72568289762,982.83101332969,0.00077578995861631,-0.00042157083155403664,Stairs Up
-0.8992370605426,-1.24890136718,-0.68542480468,0.019562031998356252,0.3109228515588,0.11364746093,0.58874511718,0.011175350011093734,-0.4070385742149999,-0.65844726562,-0.18518066406,0.02223799518249166,1.0436946844234998,0.73827210678,1.4927951065,0.03447246535847337,982.7283985529991,982.7032890809,982.80466239415,0.00044139251567365566,-2.6521651155299876e-05,Null
-0.8851171874957001,-1.1337890625,-0.68347167968,0.014325625752207137,0.3311035156200999,0.22058105468,0.43725585937,0.004032319844398308,-0.43434570312119986,-0.63171386718,-0.16467285156,0.02452490989614766,1.0544062063441002,0.8782567146,1.31849733549,0.012524992365052258,982.7208579976021,982.69845071223,982.77296429987,0.0003991065446106457,2.8655739083319366e-05,Null
-0.8857739257771999,-1.00134277343,-0.80908203125,0.002848078090594678,0.3158386230432001,0.24206542968,0.41625976562,0.001566224740952225,-0.41762817382409984,-0.59362792968,-0.22644042968,0.010867021690511633,1.0349399580598002,0.92700222639,1.14494808925,0.0028187570250273125,982.7123172088963,982.6964247345,982.72665146189,6.361163866119431e-05,-0.00012611425492351896,Null
-0.8983923339791999,-1.07067871093,-0.75390625,0.006009654461410066,0.32725097655859997,0.21325683593,0.41296386718,0.0036441342759095914,-0.41372802733969993,-0.52075195312,-0.24926757812,0.00519765676265988,1.0458218173313,0.93093912036,1.17644263514,0.005271467144958744,982.7075890862479,982.69843140866,982.71370821727,1.3404056337152514e-05,7.768786602370742e-06,Null
-0.8631909179646,-0.94018554687,-0.74157714843,0.0029341234161381373,0.3180883789026,0.13977050781,0.43298339843,0.005615976296331222,-0.44393554687099995,-0.57666015625,-0.24926757812,0.00451488449126944,1.0258734703460002,0.90429472459,1.12234733355,0.003914651139189451,982.7153972993223,982.70322170543,982.7335972915,2.5699722624706837e-05,7.491900906626178e-05,Null
-0.9076684570282001,-1.12158203125,-0.712890625,0.012843186741042664,0.3355957031217999,0.22912597656,0.46496582031,0.0029029472908852047,-0.4121728515581999,-0.63952636718,-0.20593261718,0.01918362140673301,1.0578867655814,0.7954702618,1.34996037535,0.022049507566688036,982.7308803633687,982.70935941686,982.78903442045,0.0004665125172605253,-5.958324556192808e-05,Null
-0.9126806640588001,-1.04406738281,-0.7529296875,0.005925305226721898,0.250571289059,-0.01391601562,0.43591308593,0.021942704879837228,-0.4029931640582,-0.62377929687,-0.17810058593,0.01754632949843917,1.0471049227457998,0.89622432286,1.24020052285,0.006774679491337889,982.7431493525365,982.72995341773,982.77196820986,0.00010662406932881487,9.925573272907023e-05,Null
-0.5378076171839998,-1.01831054687,-0.02893066406,0.13281619129784736,0.38183105468459994,0.18237304687,0.75646972656,0.010804382213482958,-0.7071997070294,-0.9541015625,-0.357421875,0.036718514766415765,1.0447758066411998,0.80092829773,1.35683259316,0.02236628716799512,982.7955311749614,982.6754395811,982.89207349237,0.003441096750112083,-8.440321334491839e-05,Lift Down
-0.30501220702760007,-0.5947265625,-0.07958984375,0.02099006923146512,0.9417749023396002,0.75646972656,1.00866699218,0.005060007770755798,-0.10297607421939999,-0.86584472656,0.11572265625,0.07663597788995051,1.044004463801,0.95150823735,1.1592180138,0.0023134938212889195,982.7376891950643,982.66554113035,982.83925520055,0.0016931005080890588,0.0008421765931320512,Lift Down
-0.44233764648009993,-0.63024902343,-0.39135742187,0.002745062309976157,0.9240283203087,0.70300292968,0.96435546875,0.0012030181620463196,0.0520800781223,-0.02795410156,0.13537597656,0.0006869551268135709,1.0277502538393,0.94593288619,1.10218336992,0.0005266320608433118,982.7585155456568,982.73536562313,982.79088265526,0.0002314166881876002,0.00020630976960857832,Lift Down
-0.8654504394495,-1.00134277343,-0.63024902343,0.006417787392658823,0.3760095214805999,0.146484375,0.70300292968,0.021552202934867367,-0.426489257809,-0.90148925781,0.05798339843,0.04898750390613477,1.0655622164988001,0.90916458428,1.31333999207,0.011232247154807388,982.7309776837131,982.63133915775,982.76803758857,0.0009461056597711252,0.0005530952665248029,Lift Down
-0.8788378906212,-0.97192382812,-0.818359375,0.0015485239510123385,0.3315258789029999,0.27795410156,0.39599609375,0.001332375142322272,-0.39382080077819986,-0.55627441406,-0.25048828125,0.0072562319399710855,1.0226775896656,0.95603052095,1.0839809452,0.0015419967888680327,982.7569679462931,982.74074437612,982.7705107625,5.71806463707952e-05,-1.1624168939423524e-05,Lift Down
-0.8870532226523999,-0.94714355468,-0.84240722656,0.0007399193024195967,0.3256420898395999,0.28393554687,0.36645507812,0.0004947755131706103,-0.39440185546559986,-0.41833496093,-0.33764648437,0.0004837358900941233,1.0244212760145996,0.95945965707,1.08547267296,0.0007285956946401495,982.7605399301713,982.75610107875,982.76458939666,6.85724833202684e-06,7.004446458878291e-06,Lift Down
-0.8784765624963998,-0.89929199218,-0.8583984375,7.982400931060556e-05,0.3359374999959999,0.31579589843,0.36804199218,0.00019634492470163055,-0.3971508789029998,-0.41564941406,-0.37023925781,0.00011018744019599253,1.0210720769136001,1.00011774949,1.04428153694,9.919386928568587e-05,982.763746758274,982.75805480297,982.76682179843,4.313153911532016e-06,3.126728254115393e-05,Lift Down
-0.8888110351527999,-0.93737792968,-0.83752441406,0.00051124289177844,0.34084472655839987,0.29431152343,0.38159179687,0.0007721312118256712,-0.37584228515259993,-0.41845703125,-0.3271484375,0.0005231982831072807,1.0240924873693997,0.97396495208,1.06236839881,0.0004451425448358052,982.7617588712355,982.75562548889,982.76726003038,1.0287496583108728e-05,-1.1029038406898796e-05,Lift Down
-0.8955175781212,-0.93737792968,-0.8603515625,0.00032911086323167074,0.3581372070273999,0.30590820312,0.40087890625,0.0006455140944805535,-0.3443310546846,-0.37817382812,-0.31176757812,0.0002998273541229689,1.0245203276521997,0.98321242026,1.06256486189,0.00040168991746426466,982.7578082754718,982.75280018227,982.7638133145,1.0770896072169394e-05,-2.237326747706191e-05,Lift Down
-0.8889379882776001,-0.91479492187,-0.87731933593,6.079173449745735e-05,0.35329345702739984,0.30590820312,0.37194824218,0.00025437377318249775,-0.3555273437465999,-0.37927246093,-0.33569335937,0.00010782855926646395,1.0206767680961997,1.00178640216,1.04048516104,6.505568704166947e-05,982.7580639220366,982.75327804463,982.76271406462,4.099078945864504e-06,-3.84869037695015e-05,Lift Down
-0.521782226559,-0.9091796875,-0.14636230468,0.0988836590454397,0.1696533203124,-0.38879394531,1.08264160156,0.19833062513591768,-0.34719482421579995,-0.873046875,0.70666503906,0.22888557916153976,0.9406312082554001,0.48042701912,1.51108256218,0.05821715330769337,982.7467576654506,982.61454444863,982.87180836484,0.004334074970395438,-0.0008589516104046832,Lift Down
-0.8528417968715999,-1.00378417968,-0.81396484375,0.00215768647908649,0.36210693358959994,0.17224121093,0.49230957031,0.0036882588900057677,-0.39738281249599994,-0.56799316406,-0.2822265625,0.006459971726654197,1.0120684816392003,0.93007377005,1.16240186456,0.004317078698585382,982.7723151540554,982.726499618,982.85466185653,0.001364093442885792,0.0012240967658443546,Lift Down
-0.8973559570267998,-0.91479492187,-0.86791992187,0.0001150634613825475,0.35177978515219993,0.31481933593,0.376953125,0.0002644419008072723,-0.34114501952759996,-0.3642578125,-0.31323242187,0.0002231896586061596,1.0226738744946002,1.00499070073,1.04912726968,0.00011259565772537913,982.9610573085258,982.85466185653,983.08685916611,0.004268049691814708,0.0022431157611824655,Lift Down
-0.8951855468712,-0.90795898437,-0.88256835937,4.342093611758897e-05,0.3518188476516,0.32958984375,0.37854003906,0.00016519171423201194,-0.3379663085909999,-0.35192871093,-0.3251953125,6.383831451868972e-05,1.019601636864,1.00740215907,1.02842763284,3.7494136059082116e-05,983.1957949260792,983.08685916611,983.31478837849,0.004846272773308531,0.0023923111863104777,Lift Down
-0.8954882812463998,-0.90307617187,-0.88745117187,2.082029978010673e-05,0.34932128905919996,0.3359375,0.36364746093,7.334788639087704e-05,-0.3444726562455999,-0.35229492187,-0.32849121093,4.1998299679657405e-05,1.021126195018,1.01242189017,1.0304469681,2.235799022055764e-05,983.4281762742887,983.31478837849,983.53743566442,0.004335510179913231,0.0022628161497844474,Lift Down
-0.8980615234333998,-0.90441894531,-0.890625,1.650497166947108e-05,0.3501245117149998,0.33422851562,0.36096191406,5.797261541707047e-05,-0.3372607421838,-0.34753417968,-0.32592773437,3.577504494578549e-05,1.0212352504284,1.01052740643,1.03104150716,3.454058864547233e-05,983.6521035780289,983.53743566442,983.75671818882,0.00416241697806651,0.002216462851308421,Lift Down
-0.8943115234337998,-0.90100097656,-0.88586425781,1.4432752972804213e-05,0.34770996093379997,0.337890625,0.36303710937,5.2004245793759856e-05,-0.34180664062119986,-0.35559082031,-0.32922363281,4.514951899649671e-05,1.0186343713718002,1.0064563202,1.02637645742,2.1803599592300693e-05,983.8702137373917,983.75671818882,983.97063186733,0.0039862599552133865,0.002168900441346828,Lift Down
-0.9336889648387999,-0.95251464843,-0.89758300781,0.0002505889384434737,0.3609838867155999,0.34436035156,0.37548828125,5.734309404645317e-05,-0.35198730468339995,-0.37951660156,-0.33374023437,0.0001256521542893826,1.0611905023772,1.02337682704,1.08455480739,0.00028634161705202586,984.0795360081739,983.97063186733,984.15573511027,0.002873945361279244,0.0018259217228038074,Lift Down
-0.9236645507765999,-1.06530761718,-0.87194824218,0.003152914486766365,0.33929687499619987,0.28784179687,0.36437988281,0.00042494814805598113,-0.33484863280839994,-0.37951660156,-0.24670410156,0.0008757655307132922,1.0406181060555997,0.98255905043,1.14349649804,0.001944674620725782,984.1631877284308,984.15290364885,984.17932501674,5.447164511148407e-05,0.00019355535838576636,Lift Down
-0.8750170898395999,-1.01062011718,-0.765625,0.0046764678485965465,0.3608691406211999,0.28784179687,0.44702148437,0.002625105693997325,-0.37244873046559995,-0.60546875,-0.20544433593,0.01775413405444746,1.0274569208234001,0.92625043544,1.13272560049,0.0037746741059546986,984.1590603149579,984.13346508884,984.18989163168,0.0002515154742385746,-0.0002214079327914955,Lift Down
-0.8691528320265999,-0.92529296875,-0.82897949218,0.0006322645479230236,0.3529614257775999,0.30493164062,0.40319824218,0.0006107833710925519,-0.4023925781217999,-0.5341796875,-0.29895019531,0.002406948142582842,1.0220310875418002,0.97399529813,1.09005439937,0.0010041945815381782,984.1347303784154,984.12778456179,984.14251196285,2.8752875950691625e-05,-4.221128605466266e-05,Lift Down
-0.87189208984,-0.88781738281,-0.82299804687,0.0001235912604781673,0.33582031249659994,0.26525878906,0.36657714843,0.0007589778274311933,-0.4096752929643999,-0.46008300781,-0.39624023437,0.0001520739721536837,1.0206490618464,0.97947148218,1.03135630753,0.00010579137339894712,984.1359193270972,984.12900848182,984.1397643337,8.462993225725616e-06,4.302655394871305e-05,Lift Down
-0.8759277343712,-1.02001953125,-0.74182128906,0.00738147232267103,0.3316674804649999,0.25598144531,0.43432617187,0.0024189795448454118,-0.43262695312099986,-0.57580566406,-0.22387695312,0.011272262346929959,1.0362612983757997,0.86193973858,1.22342463957,0.011558891481917515,984.1443230939906,984.11953574988,984.18659867448,0.0004082952707506625,-1.6776563669310168e-05,Null
-0.9520434570274,-1.23754882812,-0.75805664062,0.01575648905635015,0.3481323242145999,0.22998046875,0.59375,0.010352961493452158,-0.34793212890379993,-0.54663085937,0.03857421875,0.03025713882610902,1.0910782089062003,0.86661134946,1.30702935838,0.014132213222022755,984.1333373512384,984.09227083586,984.16500227991,0.00033581829591342824,-0.00016136556591708258,Null
-0.8558105468709999,-0.953125,-0.73083496093,0.0030624029612353883,0.34614746093399984,0.1875,0.49987792968,0.006293638041459023,-0.46714111327799995,-0.58557128906,-0.35009765625,0.004769542415930872,1.0398813429826002,0.90169437376,1.15814564579,0.0031128249124811242,984.1429895884195,984.12886108245,984.16241997242,6.460287411953159e-05,-5.25350240228938e-05,Null
-0.8877465820267997,-1.04370117187,-0.84204101562,0.0023653315112629673,0.31240478515259995,0.2373046875,0.40380859375,0.0012811285618465084,-0.4152026367146,-0.50512695312,-0.24865722656,0.004312177264171333,1.0318290179005998,0.96197940197,1.1790182729,0.0013049515221788238,984.1393999347584,984.09874673954,984.14874987212,5.57959360488502e-05,-0.00013496628577141278,Null
-0.8642919921841999,-1.05053710937,-0.66931152343,0.013940689563710315,0.4231445312465999,0.22814941406,0.5986328125,0.009360991945107918,-0.46809082030899996,-0.68969726562,-0.29748535156,0.011761826096153885,1.0780014679718,0.81134195513,1.30393129693,0.017966329004407332,984.1255102430924,984.09874673954,984.195335311,0.00041501246583077286,-8.796722594003558e-05,Null
-0.91058349609,-1.29577636718,-0.63415527343,0.03151060369919287,0.3526611328084,0.24694824218,0.54357910156,0.005956103705357073,-0.3896264648405999,-0.59204101562,-0.21630859375,0.015229500116485708,1.0603173356981999,0.72346734588,1.39917792,0.033573083956294485,984.1209004543684,984.07483385439,984.18958019484,0.0010779059359140456,-3.05874091401292e-05,Null
-0.9824731445266,-1.30163574218,-0.55285644531,0.04837231388539397,0.31988769530860006,0.23510742187,0.39880371093,0.002633838484936395,-0.35045410155899986,-0.54711914062,-0.02392578125,0.031699399659283735,1.1103146820538001,0.7841219661,1.39917792,0.039878280760939806,984.0746016117002,984.0049678839,984.17083912817,0.002162612552352766,-0.0007442129434004342,Stairs Up
-0.9553881835912,-1.23095703125,-0.5986328125,0.038388153044040425,0.32358398437139996,0.21374511718,0.40649414062,0.0034606155723833996,-0.3843627929656,-0.56921386718,-0.14807128906,0.017925709335136528,1.0913202474474,0.81075749246,1.37276099798,0.03374220563993632,984.0180567856079,983.94924274852,984.12211433886,0.0024070533395812075,-0.0009070446581916789,Stairs Up
-0.9370166015585998,-1.21154785156,-0.58996582031,0.037287361067803,0.31902832030899997,0.22045898437,0.38537597656,0.0024105293822988755,-0.38386718749579996,-0.54504394531,-0.19592285156,0.012577133805079748,1.0683515377460002,0.7948509672,1.38326994554,0.03788935777945321,983.9503485406645,983.89840594946,984.01866661186,0.0012935393297841048,-0.0005660752921836925,Stairs Up
-0.8956152343716,-1.21508789062,-0.60473632812,0.04116439315980875,0.34145751952799985,0.27978515625,0.4111328125,0.0015113740798063716,-0.40642578124639983,-0.56091308593,-0.18518066406,0.015666683009013065,1.0484325984434,0.72475799928,1.39184271613,0.04287870061779432,983.8887305605748,983.82245932387,983.97804212619,0.0014526386176657888,-0.0007217949138371842,Stairs Up
-0.923520507809,-1.24755859375,-0.57458496093,0.04275780569426774,0.3660888671842,0.27697753906,0.45629882812,0.0020468939433669086,-0.37375488280759994,-0.49951171875,-0.15441894531,0.012426800800176588,1.0705298051126002,0.694447204,1.41306525309,0.0376050719613926,983.8088937428148,983.74452796986,983.88301618618,0.0013805880368517637,-0.0006365859174384628,Stairs Up
-0.9499389648393998,-1.29028320312,-0.57458496093,0.04046087990522679,0.3128149414028,0.17602539062,0.47729492187,0.005720371604008311,-0.3271264648408,-0.51599121093,-0.03771972656,0.017432019981447406,1.0644462093058003,0.694447204,1.42649364179,0.037555913894328996,983.7490415977709,983.69289540745,983.86245277514,0.0016593085278310236,-0.0005343794434636941,Stairs Up
-0.9058959960883999,-1.29028320312,-0.5380859375,0.03629554476995802,0.3418530273407998,0.08251953125,0.68896484375,0.024354726503492453,-0.3500048828097999,-0.6142578125,-0.13146972656,0.028167273396296662,1.044415339148,0.63268557794,1.42649364179,0.05771761070888555,983.6703500935505,983.62713135716,983.75159913778,0.0011862583625752105,-0.0004951682396439819,Null
-0.8870190429644,-1.04626464843,-0.77490234375,0.008107554557068098,0.3565624999963999,0.19567871093,0.46252441406,0.00595633607939107,-0.4273999023402,-0.60461425781,-0.19665527343,0.01809361655933751,1.0577775462935999,0.86342370251,1.23480474258,0.00964936382587042,983.6401446389358,983.62048516344,983.67976200842,0.000381041870983645,-0.00032876588719010574,Null
-0.8918603515592,-0.98583984375,-0.77661132812,0.002783877464281647,0.33273925780839986,0.20935058593,0.42126464843,0.0035748114490384638,-0.40438720702799996,-0.65234375,-0.18481445312,0.016027458274086373,1.043681586039,0.94540718487,1.14797023427,0.0025761073315856797,983.6372454891031,983.61511309852,983.6726703901,0.00015471832042350962,1.679775424863003e-05,Null
-0.8824023437458,-0.98010253906,-0.79858398437,0.0018696049006520993,0.3174560546841999,0.26782226562,0.38623046875,0.001070913642411932,-0.40851074218399985,-0.50305175781,-0.29748535156,0.0031066905608218946,1.0252463776369998,0.97658217601,1.11533619804,0.0011614864057517234,983.6408884514349,983.63273869632,983.65591885721,4.2811649976369575e-05,-1.643974300308577e-05,Null
-0.8637963867159999,-0.88452148437,-0.84765625,0.00010122692342671528,0.3080883789018,0.28674316406,0.33312988281,0.0001106232163971846,-0.4419580078087999,-0.45764160156,-0.40100097656,0.00010930542995640587,1.0181629025826,1.00480119171,1.02799849442,5.229838928638678e-05,983.6393783574479,983.63466566321,983.64327615588,5.597960123937586e-06,-2.8204252295933653e-05,Null
-0.8499804687464,-0.92272949218,-0.74975585937,0.0026330472002457543,0.28707275390139997,0.2197265625,0.34289550781,0.001120894394759733,-0.4691723632779999,-0.59887695312,-0.28076171875,0.005630451145802139,1.0154284301783998,0.87757384288,1.14443579396,0.003228203787334161,983.6375029423801,983.61992384048,983.66027832515,9.084067847970455e-05,-3.843795341923651e-05,Null
-0.8831909179644001,-1.07006835937,-0.68200683593,0.012262486598874784,0.35594238280900004,0.27172851562,0.4248046875,0.0017495990040693008,-0.44519775390259997,-0.59228515625,-0.25061035156,0.007608825155020748,1.0546073893648,0.87757384288,1.26069255113,0.014272902509560812,983.6301141080164,983.59856151451,983.68266964124,0.0005394765020728408,0.00017027298510773295,Null
-0.8884643554645999,-1.11206054687,-0.71435546875,0.014131410705926674,0.3355395507777999,0.23413085937,0.42236328125,0.002237726829228273,-0.4064086914028,-0.55163574218,-0.17004394531,0.017465362795675007,1.0413113953106004,0.81857051265,1.28340854481,0.01645500892999903,983.6248179585955,983.59488495259,983.66773643485,0.0005698782221457216,2.090894599438475e-05,Null
-0.9058081054653999,-1.08044433593,-0.70617675781,0.013993354090451703,0.3184790039038001,0.20703125,0.42590332031,0.002984302507498918,-0.3873144531212,-0.53662109375,-0.18298339843,0.01491892015125674,1.0430761541786,0.80558043074,1.24326557784,0.01565599294585057,983.6188834559298,983.58985493399,983.67698283635,0.0005636282481501458,0.00012525561802829657,Null
-0.9637329101521999,-1.21252441406,-0.68237304687,0.027484351487085976,0.3043408203086,0.21313476562,0.37939453125,0.0024645264462606845,-0.3672412109333999,-0.52526855468,-0.10559082031,0.017441331232644425,1.0835316035807998,0.76624223585,1.32289133523,0.029440540550305334,983.5943553067863,983.53283407129,983.64409126604,0.0012875819137338573,-0.0007052552871165254,Stairs Up
-0.919208984371,-1.16687011718,-0.63830566406,0.02311001062400097,0.31362060546440007,0.11743164062,0.43725585937,0.010410357418713675,-0.37382080077739993,-0.53479003906,-0.15368652343,0.008606094067905351,1.0485894372142,0.7638372647,1.330054542,0.025465072594025546,983.5425752425035,983.52512915275,983.59207915953,0.0003774582415302673,1.853916523514695e-05,Stairs Up
-0.9207666015575998,-1.20190429687,-0.62866210937,0.029314791216820964,0.28413085937120003,0.1875,0.39916992187,0.0030899240513375167,-0.38068603515159993,-0.53881835937,-0.15026855468,0.01319323169483667,1.0461795583686,0.83968196463,1.31679605547,0.024357208382832955,983.5067083089099,983.45953555343,983.59594087181,0.0010305109887541561,-0.000602561106113356,Stairs Up
-0.9205102539024,-1.20983886718,-0.60107421875,0.037233949122860446,0.3113208007778001,0.20776367187,0.39916992187,0.0023373555714832615,-0.3931030273403999,-0.61193847656,-0.2158203125,0.011524091013621965,1.055102499299,0.78929109378,1.36027412714,0.03649789531961419,983.4532039753503,983.38999971591,983.52988749242,0.001395737280488961,-0.0006356459882027788,Stairs Up
-0.9218164062469998,-1.21203613281,-0.60107421875,0.03481272931024219,0.3100195312468,0.23986816406,0.3798828125,0.0018671518865932466,-0.4093896484343999,-0.55822753906,-0.216796875,0.011391965451778958,1.0618324847860001,0.75760385256,1.31748091641,0.03389937703100655,983.396344855657,983.33193155527,983.47573708055,0.001675051051848915,-0.0006010042484382587,Stairs Up
-0.8773681640589999,-1.19396972656,-0.56103515625,0.042055907875920735,0.3145068359334,0.21801757812,0.39538574218,0.0019092416281947658,-0.39791015624679993,-0.55065917968,-0.14099121093,0.012069500118720558,1.0222051806508003,0.72146448377,1.36147866312,0.03797253472312029,983.3167129190676,983.26297282252,983.40563632686,0.0018175119341727458,-0.0003296545815696205,Stairs Up
-0.9093286132771999,-1.23852539062,-0.54943847656,0.03473159296945145,0.2919067382776,0.11633300781,0.41821289062,0.005378020682647446,-0.38905273437139987,-0.67785644531,-0.138671875,0.022192011963303535,1.0440100030318,0.73857504433,1.37352576661,0.0355270947758145,983.2696834229246,983.20331198477,983.35961298843,0.0016850225678822885,-0.0006996396747432246,Stairs Up
-0.8937597656209999,-1.30529785156,-0.55847167968,0.04222637742448592,0.3194482421832,0.25146484375,0.40185546875,0.0018792602991308854,-0.4222827148399999,-0.63647460937,-0.2109375,0.018014593323163897,1.0463182787114003,0.64778068322,1.4899156562,0.04635704818320584,983.2128351115227,983.1499879547,983.32130981639,0.0019190473853475684,-0.0005290021082745769,Stairs Up
-0.8769970703086,-1.04650878906,-0.74841308593,0.008894366904988644,0.32835449218359997,0.25256347656,0.40185546875,0.0017989871718783993,-0.4411596679646,-0.60864257812,-0.22045898437,0.009325142153487348,1.0389559415882001,0.82676135557,1.24552659428,0.01207196890505641,983.1925525557651,983.17370525187,983.23760339085,0.00020279332012029748,-5.921432459485169e-06,Null
-0.8968334960897999,-0.95971679687,-0.80126953125,0.002867633652186393,0.3360522460896,0.27233886718,0.40185546875,0.0010236883464468816,-0.36994140624679983,-0.58642578125,-0.19140625,0.012422319109011584,1.033395195063,0.92779332023,1.15279016414,0.0023666175601927404,983.1938425935892,983.17738430585,983.22279203598,0.00013988781475206066,-6.117401829974091e-05,Null
-0.8698193359331999,-0.91625976562,-0.83642578125,0.0002903602099154652,0.30878662109039995,0.24328613281,0.36340332031,0.0013293287308513736,-0.44277099609039994,-0.57751464843,-0.33801269531,0.0032631554325739482,1.0256323139427999,0.98322449161,1.08631285348,0.0009024060959991756,983.1887430981212,983.1847372114,983.19978885188,1.1954910308450336e-05,2.583125843960614e-05,Null
-0.8695458984336,-0.87841796875,-0.85668945312,2.3877644789335736e-05,0.325256347652,0.29638671875,0.34973144531,0.00019903029455624053,-0.42203857421639995,-0.43786621093,-0.4111328125,7.353925342951278e-05,1.0199309914208,1.00508164643,1.03263496829,5.310581521664208e-05,983.1955724476571,983.18698581939,983.20111171374,1.5107936310970408e-05,0.00011604822335799148,Null
-0.8752734374957999,-0.88452148437,-0.86389160156,2.8807442590297013e-05,0.30416015624599996,0.29479980468,0.3154296875,3.5351839929056185e-05,-0.41925537108959987,-0.42700195312,-0.40881347656,3.0349727827260277e-05,1.0170828248694,1.00348612235,1.02588479622,2.8432825915887983e-05,983.2002485797406,983.19694742634,983.20620834446,6.098784875133254e-06,1.3115453188930783e-05,Null
-0.8842919921836,-1.05725097656,-0.59692382812,0.013215466364451025,0.31643066405879994,0.2412109375,0.43566894531,0.0038515413649109357,-0.4238305664029998,-0.62805175781,-0.18798828125,0.013021367059708654,1.0360049521741999,0.76686344411,1.29567595859,0.018398254269033194,983.1994750922427,983.16303384872,983.2434032158,0.000324634848136068,-0.00016506761953077528,Null
-0.8735717773395999,-1.06896972656,-0.68469238281,0.012525185340591698,0.34843505858979995,0.2783203125,0.42517089843,0.0016140967245696005,-0.39677001952739993,-0.54211425781,-0.21936035156,0.009201387329423154,1.0247666960111999,0.84497166423,1.24039193902,0.015072292997751436,983.1996116900305,983.16202202929,983.28951363532,0.0011909543169041237,0.0003586411603031206,Null
-0.9108813476526001,-0.98449707031,-0.81103515625,0.0021364233770195095,0.3599291992147999,0.26452636718,0.44274902343,0.003288750822993089,-0.3845605468719999,-0.5234375,-0.22448730468,0.009424103895926505,1.0583322337789998,0.99574756964,1.14781972916,0.001792263051019581,983.2003369187546,983.18730435683,983.2223174353,5.8626591802477904e-05,2.991197280319098e-05,Null
-0.9033178710902999,-1.15551757812,-0.69213867187,0.02085125265097333,0.31297607421379997,0.14929199218,0.47436523437,0.008073178656201442,-0.44362915038619993,-0.71838378906,-0.23413085937,0.016094468848488523,1.0582378980079,0.82261443724,1.37908964585,0.03206649002770904,983.1957914520052,983.14787408633,983.27559301933,0.0008352857491148438,-0.00018309020866779307,Null
-0.9102966308547997,-1.19067382812,-0.69470214843,0.023460888313425188,0.3406347656215999,0.25122070312,0.43188476562,0.0035517746993304943,-0.42213378905949994,-0.59509277343,-0.18115234375,0.01714286517628808,1.0660075125565,0.79458111294,1.39013476785,0.03051605216819293,983.1953482322547,983.1565952192,983.24382339248,0.0008130424988667581,6.991034941299408e-05,Null
-0.8880700683565999,-1.11474609375,-0.67041015625,0.020901518715464196,0.32984863280879995,0.26599121093,0.3955078125,0.0020025063284192,-0.40528198241849983,-0.54162597656,-0.19372558593,0.013089414875581773,1.0360939383686003,0.78516870934,1.29430118489,0.02410596822863267,983.1869893839595,983.15272209027,983.22745649354,0.0007886845158874801,0.00022568509518649678,Null
-0.8891943359337998,-1.03063964843,-0.625,0.01474021904387495,0.1088989257806,-0.2158203125,0.61047363281,0.06608292385072885,-0.3531787109350001,-0.7236328125,0.26831054687,0.07508286355571726,1.0357640835533999,0.84058324504,1.22198478249,0.008889348037918994,983.2708796273116,983.1511421269,983.43695514224,0.004751160282783723,0.0015809468273287532,Null
-0.9584521484341999,-1.14953613281,-0.79809570312,0.00989452321116378,0.142314453123,-0.11083984375,0.380859375,0.015659072398636713,0.05880371093800003,-0.42175292968,0.67272949218,0.10616103147923514,1.03237334582,0.8926042098,1.18103954065,0.007014703518391183,983.114822731396,982.91532981054,983.43695514224,0.015132166502552877,0.0009717644464303587,Lift Down
-0.9595117187454,-1.29113769531,-0.77014160156,0.017453077730523292,0.3166137695272,0.13903808593,0.53112792968,0.011120534454742972,-0.33189697265359996,-0.70910644531,0.099609375,0.049796421871015205,1.0946878382866003,0.91483116434,1.3696195823,0.010411604389230214,983.1899373338683,983.14380818659,983.21128585788,0.0003630446418175509,0.0003519109302051123,Lift Down
-0.8513073730430001,-0.88195800781,-0.7900390625,0.000776088627562656,0.2755249023406,0.16223144531,0.35998535156,0.002778337308803194,-0.4962133789014,-0.55676269531,-0.43688964843,0.0010269537056221,1.0246209888828002,0.96441638609,1.09256622422,0.001199847075729666,983.1969780193551,983.18726689029,983.21128585788,2.418674000469096e-05,4.3869856336131525e-05,Lift Down
-0.8444018554662001,-0.880859375,-0.79125976562,0.0004765843562926147,0.26863037109029997,0.22192382812,0.31982421875,0.0008475909269683223,-0.5029528808556999,-0.52307128906,-0.47045898437,0.00019727051108299677,1.0195190779595,0.97775718092,1.0407468438,0.00022772844466045596,983.201074050575,983.19091309641,983.21189955689,2.7718278932841134e-05,7.175065193649358e-05,Lift Down
-0.17688720703059999,-0.90612792968,0.953125,0.5169889209842953,0.2662414550759,-0.2314453125,1.00769042968,0.11636524229653808,-0.5592871093713999,-0.89916992187,-0.39929199218,0.013504412101893357,1.0000608296528999,0.46664226637,1.49034041781,0.055802013887512866,983.1815960758166,983.11948549915,983.24360347888,0.001141240441006135,-0.0008842423249768724,Lift Down
0.7928979492150998,0.76550292968,0.953125,0.0010362572079951914,0.4717956542938999,0.32141113281,0.5859375,0.0032212229615409776,-0.42236938476149993,-0.57006835937,-0.30969238281,0.003369652675572886,1.0181528671428,0.9863079711,1.1590978759,0.0005957526384498998,983.1867568505917,983.09203924566,983.28369058579,0.0035465317563568967,-0.001460808189573625,Lift Down
0.7883898925751,0.7353515625,0.87658691406,0.0009973143974544468,0.11681152343640001,-0.19299316406,0.45593261718,0.02820425072033779,-0.5958251953088,-0.64562988281,-0.49572753906,0.0016673056766402547,1.0100828488505997,0.98339368711,1.07266534327,0.0005091299306669847,983.1592717140328,982.88495787377,983.35555905547,0.01570917526957297,-0.001647481138821713,Lift Down
0.4034020996067001,-0.79858398437,0.87658691406,0.34428378308736746,0.3129211425742,0.06762695312,0.77502441406,0.049136835329072585,-0.6373632812462999,-0.9091796875,-0.49768066406,0.012084299892095095,1.0213787289315999,0.66503217248,1.35004512967,0.025373948416147946,983.1280856737856,982.96315997679,983.19915383726,0.00208615236501242,0.0014054608352362448,Lift Down
-0.7923706054643,-0.87939453125,-0.72009277343,0.0017998804047237651,0.49792236327899986,0.390625,0.60375976562,0.002867193529063287,-0.2774133300750001,-0.59387207031,-0.0380859375,0.010665285543535444,0.9819125731556,0.88223560861,1.1370902028,0.003800754062534108,983.2272428816174,983.07943276359,983.41482551534,0.008584922736489649,-0.0012462141180681187,Lift Down
-0.8657067871055999,-0.94360351562,-0.71496582031,0.002282411659284707,0.3584997558557001,0.29333496093,0.5791015625,0.005588431266571309,-0.3961645507769999,-0.51257324218,-0.3056640625,0.002433671427454225,1.0196850174779002,0.86653864702,1.13120621549,0.002776095042758362,983.3971421533365,983.29327088795,983.50323992802,0.0038421307365132944,0.002064987970190523,Lift Down
-0.8605480956998,-0.88537597656,-0.84484863281,0.00016921514663002088,0.3461828613246999,0.32263183593,0.36120605468,0.00018402580510996363,-0.4309899902304,-0.45202636718,-0.3896484375,0.0003764563301752166,1.0231514744636998,1.01525597837,1.03284621248,2.1647252731736277e-05,983.6167703576156,983.50323992802,983.72359919842,0.003915325696287136,0.002149047936944898,Lift Down
-0.8539880371057998,-0.8642578125,-0.84216308593,3.815830807969393e-05,0.35091674804309997,0.33996582031,0.36340332031,3.4159871965357214e-05,-0.4357666015594999,-0.44384765625,-0.41955566406,4.0583538293765276e-05,1.0209918775583997,1.01374238197,1.03083987461,1.8203307456098878e-05,983.8281083192122,983.72359919842,983.94326672037,0.004084301618962537,0.0021928437410309956,Lift Down
-0.8569641113245998,-0.8662109375,-0.84704589843,1.7627434001286822e-05,0.344172363278,0.33459472656,0.35217285156,2.2714011596428763e-05,-0.43281249999649996,-0.44165039062,-0.42419433593,2.0693648952131182e-05,1.0199012236695,1.00856827335,1.02851528916,3.099252592455561e-05,984.0458526603376,983.94326672037,984.15586901964,0.0038869879179549414,0.00214176897392955,Lift Down
-0.8547729492146999,-0.86645507812,-0.84606933593,3.1651119997855144e-05,0.34824829101169996,0.33679199218,0.35852050781,3.888371467993118e-05,-0.4321655273396,-0.44152832031,-0.41625976562,5.9673731982849126e-05,1.0192068058136,1.00938443011,1.02882876238,2.7377161814747374e-05,984.2631289679941,984.15586901964,984.37289955522,0.004297906486362043,0.0022523029434387792,Lift Down
-0.8584252929653,-0.86950683593,-0.84716796875,3.863391851986577e-05,0.33594116210619984,0.32177734375,0.35852050781,0.00015096666085171592,-0.4312182617158999,-0.44091796875,-0.42541503906,1.664216470957783e-05,1.0177801119832004,1.00569395167,1.02975886362,2.7738590380627714e-05,984.4774759813897,984.37289955522,984.58668592505,0.0037809674853785825,0.0021108129556531123,Lift Down
-0.8559277343717,-0.86486816406,-0.845703125,1.957173299436208e-05,0.34512084960519984,0.32507324218,0.35388183593,5.5209511168707866e-05,-0.4366564941355999,-0.44323730468,-0.42724609375,2.6129139501052792e-05,1.0210122519267002,1.01250125567,1.02815669135,2.370087613894432e-05,984.6922310847079,984.58668592505,984.7928994613,0.0038228198107690377,0.0021229959592420204,Lift Down
-0.8680212402297,-0.90881347656,-0.80163574218,0.0005331051635872832,0.31763061522990005,0.22021484375,0.35034179687,0.000841817005396058,-0.4240502929652999,-0.47009277343,-0.36486816406,0.0005384124830208374,1.0176775600228,0.9615928617,1.06217748291,0.0003993104270903424,984.9047243091331,984.7928994613,985.00885890116,0.0036411370031383277,0.0020626002900989613,Lift Down
-0.8665820312467,-0.9326171875,-0.83679199218,0.0004404421767899162,0.3619396972614998,0.22021484375,0.43383789062,0.0035874519971709124,-0.4751037597622,-0.52795410156,-0.36486816406,0.0009271882925994364,1.0544357985369002,0.98095615779,1.09041018788,0.0007666891731718795,985.1177976607003,985.00885890116,985.19483500679,0.002914663703624506,0.0018244112469280112,Lift Down
-0.8329089355421999,-0.85278320312,-0.82055664062,4.2905318315617154e-05,0.39177612304270004,0.36584472656,0.43005371093,0.0004921225149289385,-0.4859008789022999,-0.53771972656,-0.455078125,0.0005277219143620194,1.041132608977,1.01897157822,1.0815792379,0.0004247498880637878,985.2237212464056,985.19253787478,985.24315278862,0.00028138514575354844,0.0005165570031739716,Lift Down
-0.8186962890585998,-0.8408203125,-0.80517578125,8.43692066652768e-05,0.37397216796529986,0.36499023437,0.38928222656,4.035872041338395e-05,-0.4891613769488999,-0.51232910156,-0.45385742187,0.00015220566679528667,1.0245151016154004,1.0129709779,1.04273984304,4.102995084610247e-05,985.2419686274915,985.23374427223,985.25379901821,2.996339866256492e-05,0.00013086044653237266,Lift Down
-0.8356506347608998,-0.84643554687,-0.81823730468,4.923475359805156e-05,0.3653124999961,0.3564453125,0.38012695312,3.6166629403716367e-05,-0.46429077148039993,-0.51232910156,-0.45239257812,0.00013454287193371463,1.0234903427126,1.01787523995,1.03754031034,1.6555253133343862e-05,985.2593067845647,985.24888874629,985.26796893567,2.385079156731815e-05,0.00011724039909417746,Lift Down
-0.8807934570278999,-0.92272949218,-0.81616210937,0.0014238253447022293,0.29609008788669994,0.23388671875,0.37854003906,0.0024257561939860723,-0.4205468749970999,-0.51965332031,-0.3759765625,0.0016763304459704216,1.0225684721476003,0.99824889913,1.04339897197,0.0001520210038234226,985.268094929456,985.24656835374,985.28557095402,9.791683857033912e-05,0.0002522145425647377,Lift Down
-0.8264416503874,-0.900390625,-0.73303222656,0.0019808349269941354,0.4402954101530998,0.30725097656,0.54504394531,0.005566422234861054,-0.39196289062169987,-0.49230957031,-0.34484863281,0.0014842302871650637,1.0191767095379998,0.96269786677,1.0676684752,0.0007280450814706846,985.2812892956415,985.270343759,985.29608727192,4.384486106292241e-05,8.072957634742382e-06,Lift Down
-0.8441003417943,-0.85705566406,-0.83410644531,3.9861254929041916e-05,0.42502075194959993,0.40771484375,0.45739746093,0.00012106481675119386,-0.39690673827719997,-0.41088867187,-0.38598632812,3.918717004406874e-05,1.025106065708,1.01638285898,1.0381375979,3.904207487771277e-05,985.282150007454,985.27523105835,985.28882619571,1.2805600864233067e-05,5.9517300037330016e-05,Lift Down
-0.8616101074182001,-0.88854980468,-0.8427734375,0.00021021013756748055,0.39120361327759995,0.37084960937,0.41577148437,0.00021211625949223406,-0.3718884277306999,-0.3994140625,-0.33178710937,0.0003637371927143126,1.0170639991078003,1.00139867302,1.03770319861,7.300161689741235e-05,985.2874967322922,985.28232391619,985.29211122875,6.429599299737405e-06,8.478230407305352e-06,Lift Down
-0.821362304683,-1.00280761718,-0.68334960937,0.007699010348091904,0.4138769531215,0.0546875,0.73571777343,0.031376269874982106,-0.3957360839806999,-0.6826171875,-0.04321289062,0.0315935652831758,1.0279765566575,0.78531664068,1.30225623762,0.015922800061045756,985.292351684887,985.22590424193,985.39123534512,0.0015866708276792841,-0.0003734251175919377,Lift Down
-0.8112499999969001,-1.09729003906,-0.58605957031,0.01686127351997465,0.5013171386692999,0.32885742187,0.76037597656,0.01274154351670267,-0.41447265624679985,-0.60803222656,-0.22424316406,0.012875495390293895,1.0471771441944002,0.72216525538,1.35722170664,0.026976340176820972,985.2633400585913,985.20270531911,985.30454713451,0.0006358811033383305,0.00013327433507178915,Null
-0.7922802734333001,-0.98937988281,-0.59301757812,0.010055620718656256,0.5213134765583999,0.26123046875,0.86486816406,0.026358027650808,-0.3771411132774,-0.68408203125,-0.10961914062,0.020404979261534742,1.0451424400554998,0.92235027604,1.22886566609,0.005695871909673627,985.2772810866646,985.2247062492,985.35735165991,0.0012526051013913412,-0.000474682674294226,Null
-0.7629406738243999,-0.86828613281,-0.51892089843,0.00781545629865311,0.5172595214803999,0.38000488281,0.73083496093,0.0039724622997788965,-0.43618041991889994,-0.68127441406,-0.3076171875,0.010395277839501421,1.0261189401631001,0.85227559356,1.31978177797,0.00902073552851473,985.2585775748055,985.20173513994,985.33099250958,0.0012426037575049423,-0.00015430813008730107,Null
-0.8140344238242,-1.07092285156,-0.53088378906,0.02598074808691403,0.5218798828085999,0.24389648437,0.89538574218,0.028616582841372966,-0.3595849609333,-0.74841308593,-0.14807128906,0.026480158193845357,1.0448296921846998,0.6162828745,1.42871831134,0.0534440686303996,985.2320538095097,985.15911493819,985.2943276687,0.0016266523042146063,-4.056426036291802e-06,Null
-0.8490881347625,-1.2666015625,-0.50158691406,0.03865336193453248,0.5001770019499999,0.26623535156,0.78259277343,0.01793835451360807,-0.3207189941366,-0.54174804687,-0.16333007812,0.009448058091978451,1.0464178293756996,0.63114344103,1.42398958376,0.04482572750885495,985.2513487591445,985.18799377278,985.34511718295,0.0013045781563606384,-0.00011212370116319994,Null
-0.8290673828084999,-1.30151367187,-0.51501464843,0.05411436343420931,0.4600268554646999,0.28088378906,0.79602050781,0.016998953114980314,-0.33907836913729994,-0.70068359375,-0.16235351562,0.01629130944319774,1.02500431637,0.66082596525,1.44281580991,0.05035182278648478,985.2008100137442,985.1319567122,985.32543325834,0.0025366672395431247,-0.0009878906698711292,Stairs Up
-0.8345703124956998,-1.26135253906,-0.53454589843,0.04787015373101382,0.5138708496062999,0.31494140625,0.7265625,0.01198918279216462,-0.2593115234333,-0.50842285156,-0.10131835937,0.007425822417006101,1.0279242347107997,0.71173592681,1.40660568083,0.03817918970020707,985.1191213626734,985.05493849638,985.19661280934,0.001394933288519835,-0.0004530592197915951,Stairs Up
-0.7797875976522001,-1.25842285156,-0.47131347656,0.051123832807527976,0.49999023437229995,0.27294921875,0.75219726562,0.016974218469445856,-0.33388183593329984,-0.54760742187,-0.20983886718,0.006824115526668694,0.9946044242040003,0.62825358626,1.44791678273,0.05502120886551368,985.0542671788603,984.97287308489,985.11814609187,0.0015873271067408357,-0.00044842266047222457,Stairs Up
-0.7899365234332001,-1.25012207031,-0.48352050781,0.04625431417200087,0.5093457031216,0.2353515625,0.78234863281,0.023789350528777693,-0.29358642577859995,-0.52844238281,-0.18896484375,0.007467486587290297,0.9947220929002002,0.60546324942,1.4073212411,0.057464387289092686,984.9743447483723,984.90272253522,985.11065313817,0.0032982770116938664,-0.0009202112571563665,Stairs Up
-0.8240747070274,-1.25805664062,-0.4755859375,0.05078823228638522,0.5598229980440999,0.31677246093,0.92553710937,0.028975687019464267,-0.3273144531209,-0.59143066406,-0.14440917968,0.012040117027892483,1.0645911333062,0.64792600243,1.39857740075,0.05774482624416073,984.9038179428536,984.8300077532,985.0804841446,0.00430002479525425,-0.0010798709137989392,Stairs Up
-0.8383081054653002,-1.28466796875,-0.50317382812,0.04989450422804835,0.5243029785115,0.35729980468,0.71594238281,0.010718356808895388,-0.2535156249968999,-0.53662109375,-0.0751953125,0.009416801158794001,1.0329507068830004,0.69138786593,1.48878190237,0.04471360384606014,984.8227848519094,984.75837704067,984.90076071426,0.0017717518615903707,-0.000863759718880663,Stairs Up
-0.8833325195266,-1.240234375,-0.54272460937,0.03885034106605541,0.3807409667931999,0.24682617187,0.58813476562,0.00982456570155977,-0.2462805175744,-0.45385742187,0.017578125,0.016266389162637375,1.0095115399559003,0.75280745883,1.35956919587,0.0313863139917816,984.7403147840447,984.66143755453,984.87156051749,0.0026927541186660556,-0.0008841057462625071,Stairs Up
-0.8972961425743,-1.13244628906,-0.61108398437,0.027357899593134564,0.3387060546836,0.24682617187,0.42175292968,0.0016291017725244266,-0.37442138671549996,-0.54125976562,-0.099609375,0.013056742609106442,1.0360074846738,0.72933093105,1.32411187789,0.02865185053022064,984.67405926284,984.63139158527,984.72293000738,0.0006847922531742839,-0.00037836614206508305,Stairs Up
-0.9041455078078999,-1.10083007812,-0.67907714843,0.015702951773293936,0.3372167968708,0.24755859375,0.44189453125,0.003114897939909081,-0.40683837890269986,-0.60437011718,-0.09301757812,0.02654516708369982,1.0609993661356,0.85233275548,1.28696785294,0.016062086485042815,984.668561776137,984.62569645458,984.73072281889,0.000708793611372926,-0.00012418839977989946,Stairs Up
-0.9324426269488001,-1.21569824218,-0.68017578125,0.02484853377702619,0.33370971679319994,0.19287109375,0.45300292968,0.005149382044129053,-0.41620605468359995,-0.58374023437,-0.09228515625,0.02520097877011832,1.0866512862950999,0.75027105281,1.40317494828,0.028156358818076793,984.6652094664552,984.6211417178,984.73178242184,0.0008498994094771566,2.246521915039803e-05,Stairs Up
-0.8970581054645999,-1.12524414062,-0.71374511718,0.017680390766003255,0.34678588866749993,0.23217773437,0.46875,0.0034774194628035314,-0.4011730956997999,-0.57373046875,-0.12670898437,0.022410088444734837,1.0520231727904,0.8089333618,1.29511966029,0.022518195429478458,984.673219945277,984.6266341586,984.72069083603,0.0006802809773525275,0.00018870869797967476,Stairs Up
-0.9326623535122,-1.23876953125,-0.64001464843,0.028191833681590547,0.3435717773405999,0.23803710937,0.47412109375,0.0030538058703320774,-0.3754980468702999,-0.54772949218,-0.15637207031,0.012820819917215525,1.0696068220997,0.83176674018,1.43504298183,0.02875399600201182,984.6600722824412,984.60967294551,984.71751223331,0.0013030882129135225,-0.00046553781648569077,Stairs Up
-0.906333007808,-1.17333984375,-0.63452148437,0.024961855339052878,0.3318322753868,0.21057128906,0.40197753906,0.001944558986196323,-0.3880981445274999,-0.55004882812,-0.17919921875,0.01389754044284555,1.0463976911023998,0.74236349729,1.3535390139,0.027899128381096074,984.5817816453288,984.52536886944,984.68639700682,0.0012321209219752045,-0.0007709757100502136,Stairs Up
-0.9372644042926999,-1.21276855468,-0.609375,0.03500300804014432,0.30719116210620007,0.21057128906,0.39331054687,0.002385243470874435,-0.37744384765249994,-0.54174804687,-0.14697265625,0.015253204883793912,1.0650809135959,0.7809658392,1.36534410726,0.03334598089752245,984.5348450196454,984.46703656462,984.595643648,0.0015380832055561758,-0.0004654837159569703,Stairs Up
-0.9125390624958999,-1.32006835937,-0.58215332031,0.05162721766346639,0.3495861816364,0.22338867187,0.42907714843,0.002645005991652306,-0.49008544921459984,-0.62561035156,-0.29626464843,0.009251645592837083,1.1010099004627,0.73280356062,1.49695805715,0.046250117318502544,984.4526691107726,984.36288899487,984.56629262998,0.0018915341795551672,-0.0009011176945822709,Stairs Up
-0.8969348144487,-1.20532226562,-0.59375,0.04353662864549353,0.3396423339812999,0.26672363281,0.39880371093,0.0015608410566281396,-0.41998168944879993,-0.58190917968,-0.19812011718,0.01623455457457111,1.0556183274971,0.69857406731,1.36115076559,0.04305277430587177,984.3780330308415,984.32047326924,984.47446117908,0.001510040492391786,-0.00041516650305991573,Stairs Up
-0.9017031830097026,-1.21130371093,-0.58227539062,0.04452057403512494,0.3251252127127722,0.22351074218,0.38940429687,0.0016322139938386112,-0.38923992496455445,-0.54772949218,-0.16162109375,0.013017404805196362,1.0420766011832672,0.70433825616,1.36391002724,0.04337289458889385,984.3094803266912,984.24082748839,984.40773827527,0.0023437297195188123,-0.0006040278768965451,Stairs Up
-0.9488217132220201,-1.27856445312,-0.64050292968,0.03842371530168446,0.31720032354444444,0.19165039062,0.43176269531,0.00365941116207956,-0.3481901534837373,-0.50073242187,-0.12194824218,0.014216897009121087,1.066306273161818,0.74688507975,1.42930926338,0.041254047454733704,984.2399676454858,984.17125944309,984.31783562236,0.0016466016415451878,-0.0005907963007711641,Stairs Up
-0.9214001464805,-1.23364257812,-0.57263183593,0.05076269155064724,0.3103210449182999,0.21057128906,0.38854980468,0.0024972360467355147,-0.4063818359333999,-0.5849609375,-0.17419433593,0.015022728081832224,1.0631715827875001,0.65252777747,1.41536777803,0.04817130515790724,984.1719396812866,984.0937699705,984.27540009125,0.0023978244883971064,-0.000971389998440047,Stairs Up
-0.896379394528,-1.27209472656,-0.52404785156,0.03816510662291196,0.344083251949,0.22277832031,0.43603515625,0.0022494557695374234,-0.38429565429339996,-0.55187988281,-0.16613769531,0.013002272620058578,1.0412489306186996,0.65252777747,1.40883837483,0.03864220632662898,984.1123661623592,984.07591949447,984.20732127776,0.0011356669016483422,-0.00032526751219904795,Stairs Up
-0.923316650387,-1.20458984375,-0.70336914062,0.018198683615710597,0.32511352538699995,0.20080566406,0.45361328125,0.0037215415441680345,-0.3906555175742,-0.54724121093,-0.12243652343,0.01987506535788707,1.0638275533826,0.83166250376,1.38783305891,0.020679241372324377,984.0901452954345,984.06289678073,984.12414046947,0.00032356650648423065,-0.00011550861157656365,Stairs Up
-0.896904296871,-1.13647460937,-0.66650390625,0.01850415730706379,0.3237292480442,0.23803710937,0.4052734375,0.003173794558320633,-0.4062902831993999,-0.56408691406,-0.17797851562,0.017048085294532198,1.0442950107366002,0.80932058387,1.3033168297,0.02231964176525673,984.0966305516038,984.06857281988,984.1472383721,0.000510905990503193,-0.00021134112629708334,Stairs Up
-0.9372509765584001,-1.24011230468,-0.62609863281,0.027251498241417302,0.3601953124954001,0.14013671875,0.61364746093,0.00988808366977949,-0.3524902343713,-0.56323242187,-0.13928222656,0.019118095287153244,1.0769509784090998,0.72556295653,1.38892632579,0.02858698188250347,984.1046089205292,984.06082170364,984.14848206968,0.0007982185484994571,-6.59566002326439e-05,Stairs Up
-0.9325976562471999,-1.32531738281,-0.54406738281,0.055426723643878496,0.3461853027309999,0.14013671875,0.73400878906,0.024115551413682337,-0.20117065429290001,-0.49536132812,0.03796386718,0.016119403518236725,1.0339923366992003,0.69555862228,1.39804520245,0.05617898368563134,984.0721579216633,984.01822661896,984.18855523032,0.0019356066219304879,-0.0005394017744266107,Stairs Up
-0.9464160156218,-1.32080078125,-0.60888671875,0.04758233070413481,0.3265576171841,0.24426269531,0.43139648437,0.0022302217917120407,-0.27684814452779993,-0.4814453125,0.09484863281,0.03744137763322659,1.0607619815448002,0.71395533235,1.41252387625,0.0405590469010113,984.0029902088462,983.9279130308,984.08421421929,0.0018484885173017395,-0.0007777777711879678,Stairs Up
-0.9471616839375246,-1.24279785156,-0.60888671875,0.042876446660351,0.3136518119562376,0.21826171875,0.41064453125,0.003533281807876559,-0.3663378422774256,-0.5263671875,-0.1806640625,0.013738813376497445,1.0714085308114851,0.73481130828,1.38984135182,0.041746230193571376,983.9368041362267,983.88167314863,984.00298787341,0.0014228387789940978,-0.0005222349570342982,Stairs Up
-0.9268945312464001,-1.25524902343,-0.60571289062,0.045341775055758295,0.32067382812119993,0.26245117187,0.40490722656,0.0018429424786639951,-0.3890429687468,-0.55810546875,-0.16320800781,0.01252467762369065,1.0633163059803996,0.71120633292,1.38900819828,0.042212466941603785,983.8493339357572,983.78401909036,983.95167087938,0.0013650635507273224,-0.0007815234206570681,Stairs Up
-0.9137841796835999,-1.21667480468,-0.58923339843,0.0385886160048637,0.3849560546824,0.30139160156,0.54724121093,0.0036070408002321446,-0.3182177734344,-0.44677734375,-0.14672851562,0.009885773128864996,1.0502588994492001,0.76349574445,1.33101596901,0.03330515370792187,983.7893810685721,983.74803343781,983.84852998178,0.0007760226411279001,-0.0005204468517466741,Stairs Up
-0.916925603689596,-1.25073242187,-0.68981933593,0.026656699202951002,0.3240165325089899,0.19934082031,0.42309570312,0.0037829839944824436,-0.3364923650522222,-0.57885742187,-0.07678222656,0.021513312225650307,1.0399738136725252,0.78445725142,1.39797653294,0.02914345063618377,983.7318507578992,983.68246631024,983.78579347265,0.0006482948865751608,-0.00015021180728213874,Stairs Up
-0.8668066406216,-1.17053222656,-0.58117675781,0.04163044669418842,0.3501513671843,0.04321289062,0.84899902343,0.03718642583964598,-0.3265100097627,-0.61279296875,-0.07836914062,0.0226035611361587,1.0129612780858002,0.65912138504,1.51102153954,0.055438582903315554,983.6770437098671,983.61714744776,983.76231621881,0.0012690456664836106,-0.0005563057568227299,Null
-0.9429162597613999,-1.23095703125,-0.62463378906,0.02445328074739586,0.3526586914017999,0.22729492187,0.45532226562,0.003715734283150376,-0.33966430663720004,-0.6552734375,-0.08093261718,0.030470455673177316,1.075241811806,0.67793764479,1.43840723848,0.031049685748334884,983.6578870575428,983.61436696658,983.73006441921,0.0012932104772591874,-0.0004595430424574925,Null
-0.9035839843715999,-1.05480957031,-0.74340820312,0.006978204370764885,0.35282470702729996,0.21337890625,0.52221679687,0.008317628960256293,-0.39519042968389995,-0.52502441406,-0.2822265625,0.00417099637207285,1.0534937646332,0.91687860079,1.17878702039,0.006613955254062333,983.655265724908,983.63892254586,983.67041970456,0.00013037184026169814,9.584023247373144e-05,Null
-0.8847216796837,-0.95129394531,-0.85571289062,0.0003585699591754662,0.325579833981,0.166015625,0.41748046875,0.0035554517925568195,-0.4253649902302999,-0.52575683593,-0.38305664062,0.001147659166575922,1.0362580061025002,0.98513287176,1.11213191752,0.0008590531419326793,983.6567607322194,983.64634603542,983.66985099466,3.995499124408011e-05,1.644533792912649e-05,Null
-0.8602111816368,-0.92138671875,-0.7373046875,0.0015113360878735594,0.29183227538719997,0.18090820312,0.34680175781,0.0018360972088471898,-0.4371716308554998,-0.56127929687,-0.41552734375,0.0008552227041689781,1.0097837322984002,0.92880054446,1.05410745706,0.0007533658807149752,983.6573572790469,983.64537627177,983.66069245495,1.0341681468557133e-05,-3.466346074093439e-05,Null
-0.9164160156208997,-1.21044921875,-0.68469238281,0.015530358685295554,0.33471435546509987,0.20166015625,0.47863769531,0.00526496255635502,-0.4171630859337,-0.6181640625,-0.18664550781,0.016419870082405766,1.0689278707328,0.74157980082,1.39728411736,0.02295370736789205,983.6480889793279,983.61982354998,983.69564371854,0.0005170817168104412,-0.0003250030111717216,Null
-0.8682269105786138,-1.0419921875,-0.71887207031,0.006931200210542335,0.3234875367373267,0.1982421875,0.44982910156,0.003481773285593884,-0.45845862662049497,-0.53002929687,-0.30639648437,0.003735615534264628,1.0372344662244555,0.89425539152,1.23196777586,0.0068676293965764515,983.650006506061,983.6298674028,983.68978149057,0.00019757225500696858,-2.6619786516719328e-05,Null
-0.8815966796844,-0.95422363281,-0.77758789062,0.0022886539710168887,0.34913085937159993,0.23681640625,0.46838378906,0.004107577535836384,-0.4247851562468,-0.603515625,-0.26538085937,0.009313421634867444,1.0452057053480002,0.93786551184,1.12317375461,0.0026717996792085716,983.6418515980296,983.62390145619,983.66185455234,0.0001178474404329682,7.901662130517294e-05,Null
-0.873046874996,-1.00183105468,-0.75671386718,0.005791384764464566,0.34378906249599994,0.267578125,0.51318359375,0.004037558093278976,-0.4204980468703998,-0.63159179687,-0.16174316406,0.018932870565980663,1.0399888499484002,0.91513215754,1.15756294093,0.004159353663899654,983.6494499366672,983.62610864325,983.66661707514,0.00011344800190491991,0.0002212099966102086,Null
-0.9260595703088,-1.03845214843,-0.79321289062,0.00405779694062035,0.26821289062039994,0.12097167968,0.40502929687,0.005996683631331384,-0.44367187499679983,-0.73583984375,-0.25354003906,0.012396034664579732,1.0681733787828,0.85774517698,1.17980681693,0.0076776344073809346,983.6519177787778,983.61354797491,983.67703249314,0.00026483729346190877,-0.00036373554058096694,Null
-0.929218947281212,-1.01940917968,-0.86401367187,0.002087255128498432,0.3170166015588889,-0.07263183593,0.52478027343,0.01457383924573815,-0.3676128965393939,-0.55700683593,-0.22802734375,0.005988283535542664,1.057666996299394,0.96446644591,1.16355520113,0.002876799188095091,983.6627367672439,983.63815230172,983.698663564,0.00024432150247489506,0.00012654180453759863,Null
-0.7196972656214998,-0.994140625,-0.03430175781,0.06868627550626337,0.5111047363255998,-0.07263183593,1.041015625,0.07211994987984285,-0.3502441406223001,-0.52490234375,0.16528320312,0.031004126022909723,1.0338506731667,0.96550478665,1.11774826648,0.001490527644100973,983.6767471669206,983.64536040357,983.73738590857,0.0005704569905019105,0.0005860120223135838,Null
-0.0362451171872,-0.28857421875,0.15783691406,0.012673106963678208,1.0048437499955998,0.80493164062,1.326171875,0.021744020924533123,0.0087841796876,-0.13171386718,0.18933105468,0.009721036486327954,1.0157736243756,0.80609567813,1.34090348865,0.02323490807110209,983.6482754334555,983.54175416831,983.79937417782,0.003274019731425806,-0.001132945039684634,Null
-0.7674218749959998,-1.22192382812,-0.23742675781,0.052376744144997024,0.7347802734335999,0.3056640625,1.06689453125,0.02318588377225723,0.03181152343479999,-0.53039550781,0.22326660156,0.027203473177189748,1.0880337887588,0.81956267828,1.6267981713,0.0482538101803778,983.936212503027,983.54175416831,985.33295051256,0.20953924294814688,0.0037075239169042477,Null
-0.6503173828087999,-0.70422363281,-0.61376953125,0.0009160523462504141,0.7788671874963998,0.72924804687,0.80725097656,0.0006328003816089428,0.09566894530919999,0.07580566406,0.12719726562,0.0002259720696359532,1.0200053130303999,1.00706458617,1.03283969854,4.603957500296134e-05,983.6795599719964,983.42029516697,984.2589498332,0.057483194679461266,-0.005242103648642392,Null
-0.6596093749963998,-0.67529296875,-0.63220214843,0.00016257392038033464,0.7761572265579999,0.75109863281,0.79260253906,0.00012042609127965696,0.0318994140588,0.0087890625,0.07214355468,0.0003552602035698992,1.019377505972,1.01033156157,1.02738249092,2.3756034607677158e-05,983.7006595335965,983.56855163311,983.81188006449,0.006802438568795478,-0.00020768216206083537,Null
-0.6714278117221781,-0.68103027343,-0.65771484375,2.9118739723257296e-05,0.7710806969342574,0.76196289062,0.78100585937,2.1141094737397024e-05,0.01617975517861386,0.001953125,0.03637695312,6.423578403676783e-05,1.0226119778905942,1.01373700206,1.03110725686,2.0843053189698157e-05,983.6380102286548,983.49358678343,983.88806723596,0.011728328350723804,0.0033931786795069556,Null
-0.6727590849862625,-0.72192382812,-0.62390136718,0.0008713387381245668,0.7412590258016162,0.69262695312,0.76550292968,0.0003834773746599326,0.162702464089798,0.04821777343,0.22814941406,0.0032896402571209868,1.0163482110442423,0.99819103924,1.03461752494,7.747079685936535e-05,983.736031155106,983.34865329967,984.03104045984,0.025455187508644606,-0.004332250583502216,Null
-0.6617224121058,-0.70678710937,-0.62060546875,0.0007778827755454233,0.7611096191375001,0.74255371093,0.79919433593,0.00026620322252908805,0.1396655273405,0.10522460937,0.17944335937,0.000594827568870071,1.0190973201872,1.00622665958,1.0352574137,5.873823454587812e-05,983.6720107102713,983.34865329967,984.19020442602,0.06875398531794558,-0.0007667433139519959,Null
-0.6491259765599999,-0.6875,-0.58288574218,0.0009400554136968565,0.7841699218711998,0.75915527343,0.83862304687,0.0007053901691562095,0.0807226562456,0.04406738281,0.11364746093,0.0002383421406326773,1.0220335585612,0.99195602299,1.04532840699,0.0001166687514395254,983.6969190012761,983.43427842424,983.88153320504,0.013282808376804551,0.0025005171364870815,Null
-0.687524414058,-0.84936523437,-0.57446289062,0.009377306158041448,0.7524804687459999,0.56335449218,0.87219238281,0.007857035771813986,0.02367187499839999,-0.068359375,0.103515625,0.0029611417979563885,1.028567114822,0.95786101512,1.10137013182,0.001535608722663144,983.6799794591157,983.21431789176,984.16745519147,0.06163850645244068,0.004481222219603357,Null
-0.6516503906212,-0.66906738281,-0.61474609375,0.00010773596137417043,0.7692089843715999,0.75695800781,0.79650878906,6.087727017430754e-05,0.12663085937199997,0.10375976562,0.14794921875,0.0001322414899128196,1.0161966828528,1.0105975946,1.02319270402,8.298700921530768e-06,983.6266903026607,983.54153864606,984.0118069521,0.006721341432078883,-0.000942752763848964,Null
-0.6929882812471999,-0.89501953125,-0.47937011718,0.009368328711085143,0.7316992187455998,0.48132324218,0.98425292968,0.012990867152386254,0.183339843746,0.05639648437,0.36242675781,0.005506020507536051,1.0349671971496,0.91384788993,1.24566897862,0.005716634336579888,984.0412181914243,983.56684726476,985.27853579255,0.14422093437226394,0.005693255754101786,Null
-0.8482128906223998,-1.15686035156,-0.50390625,0.03700717781547399,0.3879736328091999,0.03149414062,0.767578125,0.03931460178282785,-0.18594238281080003,-0.59143066406,0.37426757812,0.09505567198916161,1.0301885883080002,0.79174075386,1.21907270878,0.01306905746300908,982.916590451229,980.5440228726,984.78558736537,1.2342299163212271,0.004461783902086833,Null
-0.9327978515591999,-1.03759765625,-0.80847167968,0.005081234700627487,0.24167480468359998,0.11315917968,0.35864257812,0.004716409577308441,-0.3897460937455999,-0.52514648437,-0.2919921875,0.004150547162451793,1.043375119926,0.8747168747,1.14007473436,0.005654171039132438,983.6569011522291,983.57125049231,983.69403579669,0.0008477084078322427,0.000795346657396528,Lift Down
-0.9114941406203999,-1.03833007812,-0.74462890625,0.004907682062411595,0.27280273437119995,0.09252929687,0.4619140625,0.009367256453679083,-0.3473925781219998,-0.58508300781,-0.2236328125,0.013116819304679148,1.0239151959688002,0.90142274894,1.12772969376,0.004686884151473658,983.6753182962525,983.65769549136,983.69489920318,0.00010001497233095251,-0.00010611713216590359,Lift Down
-0.9342333984343999,-0.95361328125,-0.89904785156,0.00020481995862811322,0.3616259765576,0.34680175781,0.38708496093,0.0001096076194616714,-0.20190917968400002,-0.22924804687,-0.16674804687,0.00022328198558636657,1.0220956640644,0.98356778487,1.04245888466,0.0001873661427020428,983.6837984592343,983.65841958418,983.6916520207,2.859879293198868e-05,0.00012769120452149513,Lift Down
-0.9310986328096,-0.94348144531,-0.92004394531,3.4779105520074775e-05,0.36124023437040004,0.34643554687,0.36779785156,2.7285103843584272e-05,-0.20494140624600007,-0.22412109375,-0.18664550781,7.727329176802697e-05,1.0195787012391997,1.00357623928,1.02972962549,3.77444918312993e-05,983.6859341219184,983.68153625074,983.69276864748,8.451511811202985e-06,-1.530053241060989e-05,Lift Down
-0.9172607421832001,-0.94177246093,-0.86828613281,0.0004077848761908045,0.38023437499640006,0.29382324218,0.57458496093,0.0038038712800008566,-0.19098144530880007,-0.38940429687,0.08093261718,0.009758335315458128,1.0177503593464,0.93595061221,1.04661406638,0.0004382415564893282,983.6945662636815,983.66982948679,983.75373250197,0.0005738932391319186,-5.469004117630172e-05,Lift Down
-0.9138916015591998,-0.93383789062,-0.90234375,6.719550700187421e-05,0.3768212890587999,0.36767578125,0.39440917968,3.6013150452795536e-05,-0.24086425780880003,-0.2587890625,-0.22290039062,0.0001300858488064463,1.0175410552696003,1.0078835721,1.03627057826,4.9390282861803675e-05,983.6866523079224,983.67699332227,983.69227404005,1.20904995608119e-05,2.3945886371918763e-05,Lift Down
-0.9020898437464,-0.92004394531,-0.88562011718,0.0001312637810535068,0.3824121093699999,0.36828613281,0.40148925781,0.00011305799389411699,-0.2831445312476,-0.32006835937,-0.24951171875,0.00035121479417799765,1.0201570220599998,1.00683270369,1.03478245014,4.56209144621169e-05,983.6834120890651,983.67610675272,983.68807149021,7.616251953677701e-06,-7.129581619692386e-05,Lift Down
-0.8989306640576001,-0.91003417968,-0.89074707031,2.6637231460206564e-05,0.3835791015584,0.36987304687,0.39562988281,3.647385221998993e-05,-0.2957470703092,-0.3125,-0.27978515625,5.8263576409235895e-05,1.0211544592488,1.0093181659,1.03782181775,3.972404551529008e-05,983.6811056023035,983.67610675272,983.68478929913,6.965751866834012e-06,1.1584606116231762e-05,Lift Down
-0.858510742184,-0.88232421875,-0.84265136718,0.00013918578023869557,0.3693798828087999,0.36083984375,0.38745117187,4.015725067418618e-05,-0.28372558593400005,-0.29846191406,-0.27197265625,6.255660394257022e-05,0.9767464850112002,0.95938283873,1.00375778495,0.00019008589837800455,983.6941799273472,983.67598197106,983.73900273506,0.0003007549702523887,0.0005436968672775699,Lift Down
-0.9005615234328,-0.91296386718,-0.87463378906,0.00010707282056541491,0.37561035155880007,0.365234375,0.39111328125,4.349814520359848e-05,-0.2937353515592,-0.30407714843,-0.28649902343,2.171477885683593e-05,1.0190296780831998,0.99268785761,1.03147234831,0.00012497830096066113,983.839236450297,983.75036917067,983.9364430925,0.003559050113072029,0.00204806597871759,Lift Down
-0.9039208984339999,-0.91149902343,-0.89916992187,1.5439312866733744e-05,0.3753417968707998,0.36938476562,0.38537597656,1.655323337472873e-05,-0.2920947265587999,-0.29956054687,-0.27893066406,2.6482138973649576e-05,1.0214232076804004,1.01442245301,1.03159735349,2.6570847034678517e-05,984.0520683834872,983.94503785304,984.15473783756,0.00419203561378291,0.002224175047315267,Lift Down
-0.9016748046848,-0.90747070312,-0.89501953125,1.0645895288604795e-05,0.37591308593399986,0.36987304687,0.3857421875,1.2145042418910788e-05,-0.29080566405920005,-0.30078125,-0.27905273437,3.2247341048996795e-05,1.019280331832,1.01322716309,1.02752005946,1.8311984068444267e-05,984.2646451146512,984.16532441984,984.35776369432,0.003645478837234666,0.002074507591191913,Lift Down
-0.8052023708190098,-1.12658691406,-0.099609375,0.06982951152424255,0.5455406868766337,0.31677246093,1.13366699218,0.05440605469275059,-0.16794699489346532,-0.58618164062,0.35729980468,0.058612856385173134,1.0411982616258415,0.33708885192,1.4279203646,0.07182707341759922,984.4675400026928,984.37200686769,984.57932653893,0.004402471366910351,0.002092465385148419,Lift Down
-0.8273235282468686,-1.11315917968,-0.23461914062,0.04578559865754415,0.5272894965238384,0.310546875,0.87243652343,0.030124376082196286,-0.3474071772371717,-0.62109375,-0.20471191406,0.013212296402925643,1.058018515390202,0.60056962402,1.43090719819,0.052539752179035046,984.6762948857801,984.55328225766,984.8068133339,0.003983899202619269,0.0016095599259359841,Lift Down
-0.8272705078088001,-1.01672363281,-0.52319335937,0.03036636655990749,0.5206884765587999,0.33435058593,0.79895019531,0.025879353128563765,-0.23434082030920003,-0.32287597656,-0.12634277343,0.002640663397524359,1.0317737588964004,0.90195061843,1.13390535058,0.004190941901719811,984.9668825182636,984.77476229738,985.24369728139,0.01967765316666417,0.004698909530691975,Lift Down
-0.7102929687468,-0.90856933593,-0.50146484375,0.006362749494612333,0.7940380859335998,0.69213867187,0.98278808593,0.0038077124200229504,-0.06941406249800001,-0.21691894531,0.04797363281,0.005837239255671335,1.07379192692,0.95605227165,1.19883191831,0.0026761790686006992,985.0404205683715,984.80381133835,985.1974488501,0.012549606518819128,0.0017905155182575871,Lift Down
-0.6758251953083999,-0.70141601562,-0.64331054687,0.00027105288070131887,0.788510742184,0.744140625,0.82409667968,0.0006307160251865777,0.02516113280999999,-0.01184082031,0.04907226562,0.00022258219086263012,1.0391057654212001,1.01209120356,1.07778897784,0.0004992763778905867,985.2396490650775,985.20898221035,985.25829708985,0.00024557323574780004,0.0005110235843075855,Lift Down
-0.6686328124959999,-0.69287109375,-0.64086914062,0.00024817457102848804,0.7653662109344,0.74853515625,0.79333496093,0.0002420698994263257,0.0263916015584,0.01000976562,0.04382324218,0.0001086610736267756,1.0169171239260002,1.00835414495,1.02788498984,2.4516133611886492e-05,985.2664750792759,985.25404891616,985.27325700471,2.3593565761820953e-05,0.00013969539924070225,Lift Down
-0.6749853515583999,-0.685546875,-0.66528320312,4.5408046597978815e-05,0.7614257812464001,0.74829101562,0.77685546875,9.378158686115551e-05,0.04667968749679998,0.03564453125,0.06237792968,6.28871147048315e-05,1.0186884930436,1.00938164735,1.03089393624,2.7523749545360963e-05,985.2794179242533,985.26937520969,985.28705646842,3.6008674913330306e-05,0.00017769275306348784,Lift Down
-0.6881103515588001,-0.70788574218,-0.66931152343,0.00011341619972851065,0.7501123046839999,0.73693847656,0.76586914062,5.1589830960710624e-05,0.0342968749964,0.01220703125,0.05126953125,0.00015158542479500967,1.0186429781264001,1.01170391086,1.03028308448,2.0717020862890634e-05,985.2992670371324,985.28752400406,985.31685813275,9.414566872806415e-05,0.0003207213947354247,Lift Down
-0.6991943359335999,-0.71044921875,-0.68884277343,3.883092091656803e-05,0.7457421874964,0.73449707031,0.75439453125,3.5413973254377766e-05,0.029619140622399998,0.01220703125,0.05126953125,0.00012858935077912035,1.0227687278224002,1.01001252452,1.03483963928,2.6624642637168826e-05,985.320412670879,985.30535962508,985.34329188079,0.00012337976623151393,-0.00025415873733256457,Lift Down
-0.6926378306737624,-0.70141601562,-0.67614746093,3.765705198614889e-05,0.7484324238055445,0.7412109375,0.76159667968,1.107237716927877e-05,0.039862604420198025,0.03210449218,0.05163574218,3.2947801121313596e-05,1.0205669470347527,1.01321747872,1.02585730695,1.1372476899172829e-05,985.3149977495286,985.29593297141,985.32864858157,0.00010362106980782649,-0.00027646773911676234,Lift Down
-0.7079882812459999,-0.88781738281,-0.638671875,0.005093824598619436,0.7247583007776999,0.55517578125,0.79650878906,0.005469196246161535,0.0289892578099,-0.14428710937,0.07641601562,0.003118249045038113,1.0199404985034999,0.93495033374,1.07215198407,0.0006345603044135333,985.3254445059896,985.31212010514,985.35365971945,0.00013576261078204359,0.00016450161290399134,Lift Down
-0.7624841308564999,-0.8876953125,-0.58752441406,0.006324589208889395,0.6333691406222,0.52465820312,0.73669433593,0.004105018943205878,-0.0704846191397,-0.32214355468,0.11901855468,0.020808975832495295,1.0077856166389,0.93156897471,1.12716225942,0.00282924108806901,985.3068191768417,985.26271687031,985.3508907996,0.000434759933572271,-0.0001580374459909287,Lift Down
-0.7653210449181,-0.89331054687,-0.57287597656,0.009447815591470449,0.6704956054643999,0.49938964843,0.86877441406,0.010848162601789264,-0.0578430175786,-0.322265625,0.10424804687,0.0136894982188365,1.0294396911439,0.8243207552,1.23144150687,0.01265254280075511,985.2961776425617,985.2525817359,985.3506878595,0.0008872779217650658,-0.00011421206555821013,Null
-0.7929846191362,-0.884765625,-0.68176269531,0.0024068658566643356,0.6459924316362,0.52355957031,0.80017089843,0.005698010612888464,-0.04201660156270002,-0.322265625,0.1123046875,0.010994562596479789,1.0312706700624004,0.93115492821,1.17326454432,0.0033186590638485014,985.2753446793212,985.23221926337,985.30934878111,0.00045292872780989667,-0.00026133836828313355,Null
-0.7650842285113,-0.8115234375,-0.63220214843,0.0016518154695935397,0.6676892089807999,0.61865234375,0.75231933593,0.0008565272631289233,-0.0342602539033,-0.09765625,0.08325195312,0.0009261635276396371,1.0174675003502,0.9475697216,1.05792258688,0.0005015842758066309,985.2731180907612,985.23221926337,985.28781869499,0.00015624985692677467,0.0002701379827522749,Null
-0.7179455566369998,-0.86254882812,-0.6201171875,0.0041461250080093125,0.7325964355427002,0.56848144531,0.85974121093,0.005629551306604636,0.051275634763499986,-0.20043945312,0.21936035156,0.012928422765624628,1.0353441888744002,0.87438494489,1.20027935084,0.005365675798173464,985.2812768695271,985.24629819817,985.33879255936,0.0004237459553728063,-0.00041545997185855465,Null
-0.7823498658424243,-0.82861328125,-0.72338867187,0.0007833167895706876,0.6420627170101009,0.5986328125,0.74536132812,0.0009680960724045719,-0.0759585602079798,-0.13073730468,-0.02062988281,0.0007373807209591433,1.016027533939798,0.98528721337,1.06592896368,0.00023967350142442467,985.2825973186342,985.26353663092,985.30028401203,9.91657137792162e-05,0.00015608016459101867,Null
-0.7295703124959999,-0.86267089843,-0.51879882812,0.007176810900436758,0.6986572265588,0.59619140625,0.85791015625,0.004557350669209669,-0.08770996093560003,-0.34606933593,0.09375,0.015808968976811742,1.0241974438936,0.87065218523,1.18653837594,0.006439488394723556,985.2776238690542,985.24527504796,985.3128899269,0.0004061648052782921,1.4071332579205022e-05,Null
-0.8268310546840002,-0.91088867187,-0.63806152343,0.006634005392463972,0.5660937499963999,0.47863769531,0.65673828125,0.0025958582368346018,-0.012119140626,-0.23779296875,0.13464355468,0.012323817242815532,1.0112719311079998,0.87798906577,1.11186608834,0.0029553795568297058,985.2906154526258,985.24105610364,985.34933361298,0.0006839312234826644,-0.00042126936741029175,Lift Up
-0.8648186107628713,-0.90637207031,-0.79443359375,0.0009373593861687316,0.5405382212993067,0.50207519531,0.662109375,0.002236358552950614,0.04262308554693067,0.01965332031,0.05603027343,8.591445365644773e-05,1.022272887579307,1.00068460812,1.04282107361,9.597803287603113e-05,985.2865522342627,985.25644041215,985.30242237033,0.00017205561868439495,0.000334048181259196,Lift Up
-0.8795983886682001,-0.91613769531,-0.80078125,0.0006670340910598684,0.5050317382774999,0.45739746093,0.67102050781,0.0008789907742374705,-0.0042260742196,-0.11462402343,0.04956054687,0.001762769673557378,1.0156459914367,0.95116212279,1.064988266,0.0005122913031660284,985.2900376339818,985.25971251193,985.3256417322,0.00014768714267980547,-0.00015574612459898243,Lift Up
-0.7999060058564998,-0.94677734375,-0.72302246093,0.0031286872562895454,0.6325341796835999,0.41003417968,0.75463867187,0.007661140952698497,0.10236694335539999,-0.01965332031,0.25756835937,0.004034240166040554,1.0315303009703998,0.96246465426,1.08880544581,0.0010597612478502876,985.3134168844394,985.19803000911,985.53886097226,0.008095944281915398,-0.0006334407329006639,Lift Up
-0.7337597656203999,-0.85864257812,-0.62719726562,0.004210317351550987,0.6883532714808999,0.5517578125,0.83117675781,0.009111206487781975,-0.1020239257785,-0.29541015625,0.03125,0.009084320905191833,1.0215969904752,0.95152362374,1.07225148481,0.0011756331160618363,985.2653896199412,985.22350725684,985.30132668865,0.00036478196677574003,0.0003803491625332787,Lift Up
-0.7065734863241999,-0.74536132812,-0.64245605468,0.0007415430037223809,0.7294299316374,0.70471191406,0.7607421875,0.0001939220545791539,-0.0677233886674,-0.08911132812,-0.04675292968,0.00014193319763829265,1.0182460171849,0.98449278686,1.03312847971,0.00014368371542640456,985.2816879815562,985.26959095367,985.2912453909,3.0018783848261218e-05,6.893111737332035e-05,Lift Up
-0.7233850097612,-0.73645019531,-0.71301269531,4.686594459532806e-05,0.7243713378869999,0.69555664062,0.74157714843,0.00012979825786756802,-0.0690966796836,-0.08959960937,-0.05249023437,6.768255522289695e-05,1.0261483048225002,1.01408466026,1.03870937972,3.597822771522874e-05,985.2771811757906,985.2732586744,985.28543449912,1.1901536951672704e-05,5.645680041603375e-05,Lift Up
-0.7175439453088999,-0.7373046875,-0.69458007812,0.00015567627821256558,0.7170495605431998,0.69555664062,0.75354003906,0.00022342778664566292,-0.07274658202800001,-0.1044921875,-0.05554199218,0.0001050955779468371,1.0172192622319,1.00384843414,1.03957742824,6.644557028697305e-05,985.2734935024957,985.26867572901,985.2808109111,1.1002839919745766e-05,3.518529092074774e-05,Lift Up
-0.6695104980436,-0.71350097656,-0.64526367187,0.00022554658127293077,0.8051599121051999,0.75061035156,0.85620117187,0.0010188512895455482,-0.09421264648040002,-0.14123535156,-0.05749511718,0.0004446182272318305,1.0519045000118,1.01782409565,1.09625905939,0.0005776389933208278,985.2771221536859,985.25462910035,985.28981534456,0.00014497462722989717,-0.0003062128479938439,Lift Up
-0.7101076684783838,-0.76550292968,-0.64721679687,0.0010635457415459689,0.7558297821925252,0.66027832031,0.82983398437,0.001727283332706217,-0.07653808593434344,-0.12573242187,-0.02966308593,0.0005546485891394915,1.0412588044623234,1.00314570907,1.08133546375,0.000486338683558595,985.1817726830546,985.10746964293,985.26685127962,0.002315863922760664,-0.0016580930466585523,Lift Up
-0.7338769531207998,-0.79895019531,-0.64184570312,0.0016002533652079544,0.6971533203096,0.630859375,0.845703125,0.002466670094071312,-0.0709521484348,-0.12451171875,-0.00634765625,0.0014908485701873586,1.0172666085187998,0.98203568802,1.06170616226,0.0003062456684966703,984.9847564027286,984.87589297833,985.08877718,0.00409596022521047,-0.0021623625638087546,Lift Up
-0.606380047180792,-0.65478515625,-0.56530761718,0.0006553457869463595,0.8221109220264354,0.79418945312,0.85302734375,0.0002616873059082709,-0.014753587172079207,-0.06457519531,0.04919433593,0.0006096229044687028,1.0223449861656435,1.00291754874,1.04448068877,0.00010409860320266038,984.7864929145785,984.67030918454,984.87589297833,0.00417350732381436,-0.0021496616990412626,Lift Up
-0.6070788574177999,-0.61828613281,-0.59631347656,2.794846591353505e-05,0.8210314941374,0.80981445312,0.83325195312,3.020627781622182e-05,0.0045764160139,-0.025390625,0.02819824218,0.0001590337701515995,1.0211942569909,1.00989144314,1.03161841371,3.606382764129574e-05,984.5620732148726,984.45418441607,984.67030918454,0.004318156699523489,-0.002256065982817809,Lift Up
-0.6557360839806,-0.6904296875,-0.60021972656,0.000416542934346068,0.7789819335902999,0.75903320312,0.81750488281,0.00021236207151252175,-0.0409033203091,-0.06799316406,-0.01318359375,0.00019123508471616114,1.0194376731353,1.00966628303,1.03348476126,3.48642301883271e-05,984.3441118314394,984.23528818003,984.45418441607,0.0035308408951296843,-0.002033657642617889,Lift Up
-0.6643981933551,-0.6904296875,-0.65258789062,6.620883190051222e-05,0.7760864257786,0.76159667968,0.78979492187,6.282133887290692e-05,-0.044992675776900005,-0.05639648437,-0.02563476562,5.696312946572918e-05,1.022705766381,1.01298907147,1.02973715035,1.6655818793279335e-05,984.1354354896654,984.02694019269,984.23528818003,0.003616677720646027,-0.002064545725639604,Lift Up
-0.6485791015589999,-0.66333007812,-0.62438964843,7.915578707752822e-05,0.7878747558561,0.77258300781,0.79638671875,3.486807147606586e-05,-0.0355273437458,-0.05517578125,-0.02380371093,5.011062429925919e-05,1.0211830397412998,1.0134784683,1.02711620639,1.1481343085958383e-05,983.9179876927545,983.79433645748,984.02694019269,0.004847242922155782,-0.002391863336582194,Lift Up
-0.6225891113239,-0.6328125,-0.61120605468,4.2340483018663963e-05,0.8038305664025001,0.79455566406,0.81640625,2.9834827986878664e-05,-0.05345581054380001,-0.06774902343,-0.03564453125,8.97315099310722e-05,1.0182050068731,1.00867751798,1.02860578467,3.753175461119423e-05,983.6891195836396,983.58422513741,983.79433645748,0.00388237781876031,-0.0021389352105565035,Lift Up
-0.6132421874972999,-0.62255859375,-0.60510253906,1.8360903765384806e-05,0.8092468261683998,0.79968261718,0.81872558593,2.3677305440134533e-05,-0.0667370605416,-0.07800292968,-0.05346679687,3.166039032158552e-05,1.0175782363180996,1.01209506838,1.02261800934,7.81416705908324e-06,983.4790688595588,983.3768868601,983.58422513741,0.0037873094103903185,-0.002114513609513609,Lift Up
-0.609788818356,-0.64025878906,-0.56555175781,0.0005096329266663433,0.8190222167929,0.79833984375,0.83972167968,0.00011490729569884173,-0.054182128903200004,-0.12121582031,0.01379394531,0.000999213174072515,1.0232909527730998,1.00164128259,1.0370403705,5.923183877042417e-05,983.2716787164901,983.17239829833,983.3768868601,0.003683327401409178,-0.0020589383120841066,Lift Up
-0.6119372558544,-0.64245605468,-0.58081054687,0.00026836313835478735,0.8162878417927999,0.80126953125,0.83557128906,0.00010555936079449135,-0.05064331054409999,-0.08447265625,0.02648925781,0.0008936682899420808,1.0220457508487,1.00910049756,1.03880516967,6.687573418502384e-05,983.0600755084404,982.95367306467,983.17239829833,0.004199190678936387,-0.0022206100484867468,Lift Up
-0.6232946777299,-0.6953125,-0.56372070312,0.0007628679441612736,0.7988806152302999,0.73571777343,0.82006835937,0.0004335088726936293,-0.0636999511694,-0.11975097656,0.021484375,0.0014447485723165187,1.0164889403858,1.00011046365,1.02657348708,3.8347154678480335e-05,982.8393808225559,982.72404281748,982.95367306467,0.004227716413957552,-0.0022239653241971995,Lift Up
-0.6087634277308999,-0.63562011718,-0.59655761718,9.65283660602515e-05,0.8150695800740999,0.80432128906,0.82543945312,2.7555219750840466e-05,-0.07150512694899998,-0.09631347656,-0.06079101562,0.00012015780265855534,1.0199272846374,1.00946452154,1.03667999258,3.47954671173659e-05,982.6225574648643,982.51157166479,982.72404281748,0.0038559337162227245,-0.00213334815468001,Lift Up
-0.5970471191370998,-0.60827636718,-0.58447265625,4.4738251454833285e-05,0.7821447753871,0.75,0.82556152343,0.0005211399825943417,-0.0458776855432,-0.07580566406,-0.01525878906,0.0002973835441286146,0.9852594883966,0.96507861873,1.02547696431,0.00044327661738281836,982.4184832290935,982.34435095819,982.51157166479,0.0028191006358524464,-0.0018136661696314478,Lift Up
-0.635831298825,-0.67822265625,-0.59436035156,0.0006442927516804958,0.7805957031214998,0.74194335937,0.82385253906,0.000490562337813262,0.0041235351555,-0.05578613281,0.06652832031,0.0017236379597937554,1.008025310446,0.96767816931,1.0271746275,0.00034644187585356715,982.3334034945233,982.32354770951,982.34971702921,6.089677348149724e-05,-0.00013345324839705218,Lift Up
-0.7646179199186,-0.84423828125,-0.658203125,0.003023580281102715,0.6751770019490999,0.57568359375,0.77734375,0.003885647075093808,0.04773925780929999,-0.01501464843,0.11083984375,0.001325923890715001,1.0251090595653998,1.01201599497,1.04402685605,8.868675919094268e-05,982.3226536474086,982.29132856074,982.35404748107,0.0003573308659547331,-0.0004909139789042277,Lift Up
-0.8213745117146999,-0.88195800781,-0.69653320312,0.0015866953616840093,0.5786999511686,0.48315429687,0.67175292968,0.0035877626035653587,-0.1038085937483,-0.19567871093,0.03454589843,0.0056879472247342525,1.015044647478,0.94316256979,1.06631322601,0.0007718089668161323,982.3216694546308,982.29012845861,982.37969924585,0.0007554086780088685,9.182111774605061e-05,Lift Up
-0.7642614746069999,-0.88623046875,-0.67590332031,0.0027968766277343487,0.6524316406206999,0.59716796875,0.724609375,0.001621272250880138,-0.1312475585907,-0.22973632812,0.04650878906,0.005952978188186308,1.0169384845415999,0.92940925794,1.07978269044,0.0008233393194357927,982.293599408042,982.21595489692,982.33106529624,0.0009350437659192639,-0.0002334652694514926,Lift Up
-0.7562524414021999,-0.76318359375,-0.73095703125,3.559317854512002e-05,0.6602807617149999,0.65014648437,0.68481445312,7.150058191222219e-05,-0.186723632809,-0.21704101562,-0.17431640625,7.057356111436385e-05,1.0212251767292002,1.01158522678,1.03770584798,2.9478314739152714e-05,982.2988870531211,982.28019185807,982.30793478982,6.19131325611792e-05,0.0002332814352352764,Lift Up
-0.7591723632785999,-0.76965332031,-0.74682617187,3.0173201755083425e-05,0.6596874999958,0.65246582031,0.66613769531,1.9061059656889206e-05,-0.18285888671579997,-0.19482421875,-0.17248535156,4.824092291124218e-05,1.0222759570422,1.01504478019,1.03006452277,1.6177125094670277e-05,982.3003769662286,982.29158206364,982.30779592255,2.46702569420663e-05,6.845365456233732e-05,Lift Up
-0.7562817382768,-0.87316894531,-0.65270996093,0.002208738140399259,0.6751733398398,0.56335449218,0.76916503906,0.003101754965268812,-0.10106933593600001,-0.21838378906,0.05053710937,0.00862403286784198,1.0250750799386,0.9181392917,1.08021913542,0.0010630084379741713,982.295964403283,982.26727608531,982.32389816745,0.0002786152370127531,-2.642351774217913e-06,Lift Up
-0.7695690917940999,-1.08203125,-0.57397460937,0.013947236626919676,0.63725585937,0.40856933593,0.85729980468,0.009979327820822649,-0.07284179687489999,-0.33288574218,0.07983398437,0.01736190526082459,1.0145987139523998,0.72998085659,1.2375855161,0.015255130685216674,982.2802740322782,982.21267356425,982.33386333297,0.0011895428012692478,-8.583805505356578e-05,Null
-0.753544921872,-0.982421875,-0.56323242187,0.014462653410703326,0.6959020996060999,0.46423339843,0.92919921875,0.01826019210511408,-0.0029748535164,-0.26574707031,0.20654296875,0.014175646429344884,1.0419066310475,0.80782061854,1.31991107187,0.013109707548259662,982.2713346795076,982.22894313008,982.33125511206,0.0006729193714893615,0.000141566738356754,Null
-0.7840954589796999,-0.84753417968,-0.67370605468,0.003200109767998028,0.6345019531214,0.5869140625,0.77490234375,0.002808435613553756,-0.1002038574192,-0.25805664062,-0.00366210937,0.007595674755290848,1.0191844154915,0.94654905607,1.09833430325,0.0010106142448499042,982.2790262341853,982.25188923616,982.31218864204,0.00032375384314349553,-0.00033572220591035896,Null
-0.8204687499954,-0.92346191406,-0.68054199218,0.004749243331731521,0.5453588867153999,0.32836914062,0.7392578125,0.008988597832735128,-0.11679199218460003,-0.37463378906,0.06066894531,0.015562230023228795,1.0058073080338,0.90851207933,1.05331518114,0.0016003879409678733,982.2862126109668,982.24388893548,982.33257756216,0.0003661405411080953,1.644623287429786e-05,Null
-0.7990747070261999,-1.18688964843,-0.48132324218,0.02973941509783837,0.633681640621,0.33776855468,0.85021972656,0.01860470822376747,-0.06049560546699999,-0.37158203125,0.14099121093,0.01885678195550038,1.0387038589959996,0.59029753704,1.34128399171,0.031672441297162714,982.2752282759186,982.20141429572,982.37406666522,0.002346736014131848,-0.00034381720550254847,Null
-0.7920507812459999,-1.07592773437,-0.52819824218,0.02611447358367642,0.6615161132776,0.40185546875,0.8798828125,0.016023791805789517,-0.07421630859419999,-0.48828125,0.08740234375,0.029105348110869983,1.0506441271391997,0.66926752948,1.33034088743,0.037509256700942774,982.2666779286225,982.21040125813,982.33187247561,0.0012154434485464145,-0.00023085846903682478,Null
-0.7543066406223999,-1.00524902343,-0.5087890625,0.014663373003070189,0.6710058593716,0.37036132812,0.9560546875,0.027168627724801588,-0.04899658203019999,-0.39025878906,0.07836914062,0.013489375144035448,1.0227735454792,0.65751140707,1.30384421935,0.030636841644852655,982.2711645841305,982.21622658862,982.33965504326,0.0011458484670547314,3.418853010729006e-05,Null
-0.7814770507762,-1.06274414062,-0.52661132812,0.016486458712369707,0.6820825195281999,0.37036132812,1.06469726562,0.02524161753659921,-0.0635156249992,-0.44201660156,0.09912109375,0.019318795829804458,1.0542840636223998,0.65751140707,1.35003349607,0.029190601520239303,982.2666251897828,982.20845381868,982.31387992569,0.0012658971571612723,0.00021463877949962285,Null
-0.6549096679655999,-1.23010253906,-0.31079101562,0.04490665323206475,0.6590649414020001,0.28930664062,1.00720214843,0.02534792002389241,-0.1262402343718,-0.3056640625,0.05334472656,0.009451246237237847,0.9459645704698002,0.42738936283,1.59517185046,0.06390874714090883,982.3112826947108,982.21592870794,982.47489067316,0.004987355531863024,0.000884417388425479,Stairs Down
-0.7707690429649997,-1.19958496093,-0.39782714843,0.04179049863324834,0.6920922851533998,0.37451171875,1.04833984375,0.02273938263912615,-0.11160400390440003,-0.44958496093,0.12890625,0.020755728573118762,1.0550599207606002,0.57026501026,1.59326311228,0.05738729272819505,982.3596166420285,982.30452807918,982.48956089461,0.0021435355604098997,0.0006546450843234917,Stairs Down
-0.7060595703092,-1.09545898437,-0.46936035156,0.026060094110916327,0.6859692382771999,0.46533203125,1.02075195312,0.023515062025040712,-0.17202880858940006,-0.39331054687,-0.03503417968,0.010019175217527742,1.0090647325022,0.66585516464,1.49975548181,0.039853108415851775,982.4345962497569,982.34164579061,982.55685904044,0.002801106940642183,0.0013297495898079046,Stairs Down
-0.6684130859341999,-0.88659667968,-0.49279785156,0.013031019562533797,0.6619555664022001,0.35083007812,0.90673828125,0.01524513105555896,-0.21692382812140004,-0.47155761718,-0.04028320312,0.011722413554333753,0.9724746867215999,0.63306485548,1.26549982111,0.026170439155592962,982.5273524500633,982.44229895595,982.63616110958,0.0022861230522147748,0.0008029016290751766,Stairs Down
-0.7881030273398,-1.27575683593,-0.51452636718,0.042179734423954854,0.6951757812475998,0.35803222656,1.10595703125,0.023124284599807005,-0.12183593749920002,-0.37231445312,0.08129882812,0.018542916990695376,1.0728239908946,0.648511193,1.68867855066,0.05179484385564528,982.6172258417778,982.55795039821,982.73548785321,0.0026790770668742485,4.9971926747645347e-05,Stairs Down
-0.728288574215,-1.08166503906,-0.51745605468,0.026036955497470475,0.6863769531221999,0.47045898437,0.92053222656,0.013793523865368884,-0.1279272460918,-0.35534667968,0.11303710937,0.016630539682782688,1.0197903685394,0.7376836952,1.38808037437,0.03414844696200365,982.6729254338967,982.61190947564,982.77002097276,0.0018326481888481135,0.0008798390833055539,Stairs Down
-0.8171972656215999,-1.328125,-0.43237304687,0.04237303362955135,0.6269165039033999,0.27124023437,0.87768554687,0.023582557385628568,-0.0357104492184,-0.49621582031,0.2373046875,0.0329811508052374,1.0524600998546,0.51114781393,1.50888861664,0.05291517434865521,982.7121087288486,982.64581270781,982.78507778851,0.0013345507758130686,0.00011649840128468325,Stairs Down
-0.7849096679648,-1.06433105468,-0.50756835937,0.02482833554673647,0.6617382812468,0.34753417968,0.88806152343,0.025802840464141944,-0.07364501953,-0.41491699218,0.07604980468,0.017461422265431088,1.0442996853432,0.63240406607,1.34140517002,0.03662037184037618,982.6915577477862,982.65184931619,982.76853802927,0.001068317531335397,-5.2545753191576856e-05,Stairs Down
-0.7731323242153999,-1.041015625,-0.53308105468,0.018411457689265998,0.6636791992141999,0.32446289062,0.91430664062,0.02566900338195435,-0.0807275390592,-0.34936523437,0.06884765625,0.014612429334278604,1.0342762644790002,0.63633667417,1.33885446621,0.03343351113031644,982.6984623365244,982.65054344942,982.76763167301,0.0011995256004608457,-0.000321352699978056,Stairs Down
-0.7896118164029999,-1.16088867187,-0.52331542968,0.024917298043793164,0.6625488281219998,0.39343261718,0.93762207031,0.017962512945983135,-0.05918457031139999,-0.39672851562,0.09655761718,0.01655357736450354,1.0460907543308,0.69741883718,1.32575198395,0.030801789681494468,982.6963847251711,982.64942290749,982.74303466267,0.000753056753219618,-0.0001187273442498004,Stairs Down
-0.7878393554650001,-1.25048828125,-0.3935546875,0.0428978171555129,0.6859619140582001,0.34838867187,1.20190429687,0.03125104699492443,-0.20919921874659997,-0.42565917968,0.05603027343,0.01756056424303708,1.081840644215,0.55043306911,1.58358101465,0.0559717831483385,982.7293042086243,982.65417724926,982.82887716387,0.0018322824569359834,0.0006448254498857785,Stairs Down
-0.7044433593718,-0.94982910156,-0.51843261718,0.012930057265694706,0.6209448242154,0.49011230468,0.82482910156,0.007732074844781475,-0.1321972656232,-0.36682128906,0.09997558593,0.018355243711225887,0.9615004299202,0.74288767864,1.18644371863,0.013568852169063008,982.821140035962,982.74731290693,982.93842970528,0.002805717348025481,0.0009219105277076875,Stairs Down
-0.7048046874969998,-0.99426269531,-0.47644042968,0.01827953834745728,0.7463867187475999,0.58410644531,1.01708984375,0.012187981846247082,-0.25388427733900004,-0.41564941406,-0.11267089843,0.009341004936620762,1.0648156585528,0.85907493034,1.43723332999,0.024119253434750427,982.9005103960276,982.82994801204,982.98806255777,0.001891868654704907,0.0011618577953713923,Stairs Down
-0.7603540039038,-1.04541015625,-0.54626464843,0.01912174302552331,0.7762304687466001,0.57604980468,1.01794433593,0.015966241190999517,-0.15650634765300003,-0.33630371093,0.01098632812,0.009148439523940058,1.1042596454216,0.83472671346,1.42383092976,0.02986957950924757,983.0165765017206,982.95661308453,983.12324817249,0.001990203651686716,0.0007272011907422981,Stairs Down
-0.7778710937458,-1.25756835937,-0.4404296875,0.032078897976979756,0.6470507812463998,0.49523925781,0.93273925781,0.015100328464805256,-0.09073974609139998,-0.28601074218,0.11437988281,0.012511396413341386,1.0265276083776003,0.76282399516,1.57072174376,0.037703676148321215,983.088557098511,983.03074354149,983.14123086264,0.0011335237905433961,4.572662815825039e-05,Stairs Down
-0.7289135742151999,-1.34375,-0.43273925781,0.04144081311431229,0.7435913085909999,0.53344726562,0.99047851562,0.023424219151694747,-0.14747314452899998,-0.37084960937,0.05529785156,0.013482098175754019,1.0634756948552,0.7484384911,1.63764466745,0.05310552205309979,983.1379583072284,983.0795933322,983.23723984287,0.0017007372781702695,0.0009323613187734308,Stairs Down
-0.7598876953089999,-1.16638183593,-0.47106933593,0.026837577723419204,0.6561596679636,0.32995605468,0.92468261718,0.02195541594377333,-0.052529296874,-0.50512695312,0.134765625,0.022726712467023544,1.0207983232466002,0.59251248493,1.38696364805,0.03990852394525388,983.1615270939594,983.10880510235,983.23356596528,0.0013491848915162844,0.00015734896372639429,Stairs Down
-0.8097045898404,-1.08569335937,-0.48889160156,0.029696418931859217,0.6224145507772,0.35791015625,0.84655761718,0.014855914459051017,-0.067268066405,-0.45922851562,0.107421875,0.024110989383307437,1.0391256938174,0.61645209283,1.31094177595,0.036101889475302185,983.1590188202254,983.09380304261,983.23694408968,0.0014611971614587882,0.00015728581762166924,Stairs Down
-0.7574682617145999,-1.03149414062,-0.53271484375,0.020972456408295977,0.6777099609335999,0.38391113281,0.90197753906,0.020102087295348032,-0.051069335937200006,-0.42211914062,0.107421875,0.017334252149713954,1.0301122234052003,0.67134838757,1.32812344046,0.032677324056454626,983.1517529190589,983.09859243324,983.21525189145,0.0008919059650042918,0.00011789042446292679,Stairs Down
-0.7418041992151998,-1.0947265625,-0.51147460937,0.02396276985180059,0.6260375976525999,0.3408203125,0.87768554687,0.015177228384420954,-0.09577148437360002,-0.35607910156,0.06604003906,0.01592548155976549,0.9885194747222,0.63568166512,1.27332348108,0.029002822182398507,983.1619165130975,983.10214965426,983.24961252299,0.001198124050798206,0.00019379420764406187,Stairs Down
-0.7482617187457999,-1.09802246093,-0.51831054687,0.024993426004932085,0.7282397460905997,0.45471191406,1.08996582031,0.021557581430467945,-0.096184082029,-0.29699707031,0.13037109375,0.01303080742406918,1.0609294187586,0.81598343007,1.5112617551,0.03322714170433031,983.2258458136622,983.16803065529,983.2848607095,0.0010896580879338077,0.0005451837845174204,Stairs Down
-0.7201123046836,-1.0068359375,-0.52307128906,0.015830080533327615,0.64325927734,0.50158691406,0.86889648437,0.0075756606969685355,-0.20293945312219996,-0.48413085937,0.00500488281,0.018967427532814267,0.9984946258484001,0.78540173768,1.27954142322,0.018673303135673485,983.2850331974201,983.21928689212,983.38318313981,0.0021232666433383127,0.0009244913034684732,Stairs Down
-0.6990820312463998,-0.87731933593,-0.51953125,0.009297583825566731,0.6377368164031999,0.43798828125,0.81005859375,0.008371626253065877,-0.19362304687100007,-0.37683105468,-0.10034179687,0.0055487374826281854,0.9718608625894001,0.72164847754,1.16415964271,0.011501060143167902,983.39607731727,983.32225873253,983.50871064359,0.0022663124404453555,0.0009466712777126836,Stairs Down
-0.763798828121,-1.30310058593,-0.52465820312,0.0389097417001085,0.7023364257775999,0.44653320312,0.935546875,0.013223060580447539,-0.14891113280920001,-0.36022949218,-0.01904296875,0.008332579810209554,1.0586338201877998,0.73953416262,1.51495288418,0.03837857910472948,983.4838007415683,983.40132916158,983.59772173847,0.0019980966850702323,0.001004391760621955,Stairs Down
-0.7395898437462001,-1.02478027343,-0.34008789062,0.03966877619428227,0.6137646484329999,0.3388671875,0.8076171875,0.012750946488102982,-0.17144531249779998,-0.38049316406,0.13916015625,0.024145801404068006,0.9933068841157998,0.54506023933,1.2818734234,0.04266159457721883,983.5603844682689,983.48531067644,983.67208421193,0.0020186883527115286,0.00015374361727182482,Stairs Down
-0.8362963867150001,-1.361328125,-0.44970703125,0.04447747204647224,0.6654174804648,0.34118652343,0.87951660156,0.022030386208359436,0.000224609375,-0.34851074218,0.25317382812,0.026124009795852225,1.0887525336947999,0.61578206706,1.56358025878,0.04898544438089122,983.6243286128426,983.5565369274,983.6973163054,0.0012323227210100749,-6.043944320401864e-05,Null
-0.8016308593716,-0.97436523437,-0.63720703125,0.00724284754852987,0.6061132812468,0.42993164062,0.7841796875,0.010115643366639246,-0.1014331054666,-0.26452636718,0.05749511718,0.009761169347467565,1.0185155879614,0.88711183716,1.21814429686,0.00984694952002765,983.6332012450636,983.59760023076,983.65379148712,0.00019222588250555943,0.0002075903034402348,Null
-0.76466552734,-0.80139160156,-0.71350097656,0.00025028051149316344,0.6754418945269998,0.64880371093,0.71508789062,0.0003394468204112777,-0.026462402341400005,-0.06091308593,0.04113769531,0.000726716861439664,1.0212076167562003,1.00992258353,1.05001478355,7.440763198050601e-05,983.6378632550291,983.61940732433,983.65130655234,8.181181451175521e-05,0.0002047783025022932,Null
-0.7791406249962001,-0.79309082031,-0.76782226562,4.7348388523944524e-05,0.6521655273403999,0.64501953125,0.65856933593,1.0275003883851081e-05,-0.0695092773414,-0.08276367187,-0.05078125,7.304765357896582e-05,1.0184892613504,1.0129776196,1.03040722886,2.072429665125417e-05,983.6446555340459,983.63989699284,983.64982763091,9.379131348411449e-06,7.170125547499883e-05,Null
