avg_accX,min_accX,max_accX,var_accX,avg_accY,min_accY,max_accY,var_accY,avg_accZ,min_accZ,max_accZ,var_accZ,avg_magnitude,min_magnitude,max_magnitude,var_magnitude,avg_pressure,min_pressure,max_pressure,var_pressure,slope_pressure,Label
-0.6422475178999999,-0.65405273437,-0.62939453125,4.131477651526789e-05,0.7933095296183333,0.7822265625,0.80603027343,3.349652937991547e-05,0.10485839843458333,0.0966796875,0.11474609375,2.342023348159951e-05,1.0261066561833332,1.01750376863,1.03567588287,1.971151627743037e-05,984.0315037132337,984.02742111889,984.03413222142,4.655759464302121e-06,2.3138158890777456e-05,Null
-0.6422021484327998,-0.64733886718,-0.63513183593,1.1887116867114507e-05,0.7918896484343999,0.77893066406,0.8046875,4.675735126257596e-05,0.0986914062456,0.08703613281,0.1123046875,3.639991837686238e-05,1.0243632880044005,1.01440318781,1.03262770986,2.7026818224421165e-05,984.0348155306962,984.0313546955,984.03827819377,4.658442556018334e-06,2.382784581608108e-05,Null
-0.63952148437,-0.64965820312,-0.63110351562,3.273737550556838e-05,0.7951220703088001,0.78747558593,0.806640625,2.129617364732975e-05,0.10251953124639998,0.09362792968,0.10888671875,2.2640950753512662e-05,1.0255639791780002,1.01904638314,1.0337337869,1.163870716381982e-05,984.0380340590392,984.03345515938,984.04147157709,5.025238680235959e-06,2.099285716132154e-05,Null
-0.6380517578079998,-0.64672851562,-0.61987304687,3.356634968553701e-05,0.7903369140583999,0.78186035156,0.79895019531,2.492928746207287e-05,0.09983398437120002,0.08361816406,0.11853027343,7.845498092001361e-05,1.0206982720316,1.01040172647,1.02646542123,2.012766373573039e-05,984.0392946114877,984.03358560495,984.04504498012,7.452840692951796e-06,4.1705293707372355e-05,Null
-0.6370605468703999,-0.64587402343,-0.63098144531,1.6822959436005564e-05,0.7942919921839998,0.78637695312,0.80261230468,1.9063467928760254e-05,0.0968359374956,0.09020996093,0.10461425781,1.3706082047361307e-05,1.0228171683148,1.01482219511,1.03310849598,1.7418994879753512e-05,984.0391788314255,984.03610859214,984.04432159453,7.101291788482172e-06,-6.0534175072898283e-05,Null
-0.6343017578091998,-0.70520019531,-0.6015625,0.0005185110400183623,0.7998632812451999,0.62194824218,0.90466308593,0.002362618687184616,0.10665527343440001,0.04125976562,0.248046875,0.0024905740854457496,1.0281657229644,0.95323872278,1.16358009045,0.001705625147978127,984.0409709462105,984.03273646476,984.05783022606,3.978933787150173e-05,6.337341698954377e-05,Null
-0.8392871093704,-1.14453125,-0.59594726562,0.026063383324277878,0.5449218749963999,0.27258300781,0.86047363281,0.03226563906388928,0.04199707030920001,-0.31079101562,0.27465820312,0.026939120532337598,1.0360637870963998,0.84492277832,1.22862486361,0.014236107354155182,984.0463133099754,984.02693358397,984.11218411441,0.00034855078377878893,0.0003038041000512157,Null
-0.6476171874971999,-1.86376953125,0.07043457031,0.3200881920924919,0.30811523437079996,0.07800292968,0.60180664062,0.019622129527222625,-0.573886718746,-1.18225097656,-0.12573242187,0.0881263589858413,1.0738441628572,0.43282776265,1.96420356529,0.11525859883100649,984.0148609099564,983.90144248133,984.08815707869,0.003254815745370764,-0.0011699105113758075,Null
-0.9779248046827999,-1.06372070312,-0.87438964843,0.0029278014404885166,0.33735351562079996,0.18481445312,0.47094726562,0.008285428538370351,-0.1308447265588,-0.55688476562,0.052734375,0.020729415729437522,1.0551795682996,0.92254121597,1.24016570254,0.005539352000202775,984.0101055107589,983.93716007773,984.05148394761,0.0009037801742092133,0.0008527739637878155,Null
-0.9843408203096,-1.15844726562,-0.89111328125,0.0036014011651484303,0.2977392578096001,-0.03771972656,0.59936523437,0.02236450792532464,-0.1374511718724,-0.62683105468,0.13366699218,0.024285629541208064,1.0577316030448,0.94450477108,1.2496799238,0.007496181800198807,984.0346752796798,983.98592176171,984.05621352235,0.0003515640618056919,-7.402693244394667e-05,Null
-0.9658544921836,-1.11486816406,-0.84289550781,0.005494180978035653,0.3917675781208,0.1875,1.00476074218,0.04918170442485062,-0.10034179687199998,-0.42333984375,0.2421875,0.022619712231946473,1.0744043592284,0.89456946278,1.45254407571,0.018791036432190437,984.0339875744149,983.98862431015,984.07254446649,0.0005815063798321647,-0.000109132476035446,Null
-0.6646093749967998,-0.96276855468,-0.52551269531,0.011779958695923303,0.6580029296831998,0.19909667968,0.83447265625,0.018962304857253014,-0.341870117184,-0.46057128906,0.04931640625,0.020080289455172574,1.0168005135844,0.75389674284,1.2576171593,0.0080602998827295,984.0403140884015,983.9728145458,984.1534647808,0.0026787866062194065,-0.0009528322389068123,Null
-0.5267529296832,-0.59704589843,-0.4462890625,0.001331104991356457,0.7774462890587999,0.68090820312,0.8447265625,0.0015002412989113074,-0.40770996093359996,-0.49084472656,-0.37084960937,0.0007783264584370916,1.0252024043896002,0.96902401186,1.07162529425,0.0006589894978966356,984.0217916017538,983.98719304017,984.0418487308,0.00020364821793595676,-0.0001565422289427115,Null
-0.8442529296839999,-1.35754394531,-0.60791015625,0.034142547568745435,0.5378613281211999,0.26770019531,0.69860839843,0.017021500317522666,-0.1876708984348,-0.47595214843,0.18994140625,0.04460346819045012,1.0586088519736003,0.85798319037,1.41226664468,0.011550831443784337,984.0082413518367,983.97502336156,984.03936638902,0.0003610426506654435,0.00020225846008214735,Null
-1.0193359374959998,-1.41979980468,-0.49304199218,0.04825703905074443,0.2731835937456,-0.11389160156,0.62084960937,0.01856881551044965,-0.11291015624880002,-0.33813476562,0.28747558593,0.03325359565921189,1.0854246483084002,0.56649587514,1.46389582671,0.04783406192983003,984.0174299220661,983.95155126563,984.09593499504,0.0018259461190021744,-0.0008965897186241375,Null
-1.095649414058,-1.47143554687,-0.44323730468,0.05209944595007723,0.21163574218440004,-0.14379882812,0.39172363281,0.016439638378161137,-0.16830566406039998,-0.39599609375,0.173828125,0.025377394309615938,1.1476338727244002,0.55377996105,1.50897842749,0.04997770755238971,984.0293284253422,983.95247555978,984.14060166185,0.0023184534814070534,-0.00014813043191868713,Null
-1.0087695312456,-1.21313476562,-0.86865234375,0.006992293945431831,0.23698730468280005,0.12927246093,0.34265136718,0.003311178900954733,-0.1924121093712,-0.38696289062,0.00109863281,0.01734988289640623,1.0631152270732003,0.88528310198,1.24135920061,0.008044652256252931,984.0040495787129,983.92211919121,984.05546899827,0.001011458034955935,0.0005794358810512088,Null
-0.7642089843716,-1.10571289062,-0.41064453125,0.05536988648479469,0.5718066406208,0.23693847656,0.90075683593,0.04582664614960275,0.00047851562680000014,-0.31640625,0.49560546875,0.05944371936176265,1.0325464168955996,0.93205861245,1.14489350428,0.003899173194852073,984.0060212528246,983.95740809708,984.04045498598,0.0005486199070808018,-7.889540673732977e-05,Lift Down
-0.9550634765584001,-1.25170898437,-0.5517578125,0.02817228625494886,0.314038085934,0.0126953125,0.66821289062,0.022400292483004652,-0.10571777343600001,-0.59167480468,0.51257324218,0.07275685936403867,1.0632351739448,0.85604763911,1.28729890924,0.013706585756473813,984.0342925557466,983.99777702328,984.10633719373,0.0009931784497481454,-0.0002645198970755723,Lift Down
-0.8244628906207998,-1.12097167968,-0.62927246093,0.02086072377490493,0.4545800781208,0.21643066406,0.6748046875,0.010998701712109538,-0.3772216796831999,-0.61755371093,0.03637695312,0.046191764599893395,1.046660349752,0.92381223701,1.3011486577,0.010556658085793586,984.0514996242794,984.01880007299,984.12576244762,0.000906015183773001,-0.00037030552652769295,Lift Down
-0.5472314453088,-0.74963378906,-0.10571289062,0.04646795557022924,0.5481201171827998,0.42358398437,0.74731445312,0.004219262286840338,-0.17791015624880002,-0.58471679687,0.82751464843,0.3260956618243602,1.0012912816036,0.89475995267,1.06318217004,0.0020007692557960947,984.0039042226113,983.88866321997,984.03832246542,0.0020526812542491536,-0.0005038960767419863,Lift Down
0.3964355468716,0.01135253906,0.58508300781,0.018752743499414616,0.541093749996,0.4208984375,0.69226074218,0.005172226019441649,0.7337988281199997,0.59729003906,0.88110351562,0.006202260075164613,1.0064104038696002,0.8362216021,1.15541898015,0.005422591458875221,984.0113050835392,983.98469345134,984.03447029221,0.00022979377299885655,5.4660877257698154e-05,Lift Down
0.16411182133828278,-0.09948730468,0.51086425781,0.037457342633109784,0.2947985716526262,-0.17810058593,0.97045898437,0.15541333887287836,-0.6558800899599999,-1.14050292968,0.69287109375,0.2735261124758016,0.9987836081621212,0.84736140348,1.1444153906,0.008217605594757363,984.0382544986302,983.90524004554,984.10482457688,0.0026269359262711734,-0.0007607002965712001,Lift Down
-0.6984094238240999,-0.89392089843,-0.05126953125,0.04323022042114309,0.6487902831997999,0.10412597656,0.82934570312,0.016075182411051905,-0.216564941402,-0.87548828125,-0.056640625,0.05345525028146333,1.0271131033799998,0.78163965998,1.33240797359,0.012285335367404587,983.9830905722603,983.88880721599,984.03235961408,0.0019758583082106437,0.0014058032958579468,Lift Down
-0.7579003906208,-0.76342773437,-0.75244140625,9.168904230173808e-06,0.6859912109340001,0.67822265625,0.69738769531,1.9683837887231695e-05,-0.06918457031,-0.07873535156,-0.05810546875,2.5260665200713182e-05,1.0246090676176003,1.0189440633,1.03575455271,1.3413315118468339e-05,984.0307094221762,984.02729217672,984.0356625619,6.919937848432904e-06,3.648760669525562e-05,Lift Down
-0.7603955078079998,-0.76501464843,-0.75366210937,8.562213242488358e-06,0.6800976562459999,0.67175292968,0.68688964843,1.143792663249685e-05,-0.06899414062159999,-0.08056640625,-0.05676269531,4.163896195699179e-05,1.0225183439804,1.01518810118,1.02924642131,1.1717879778534192e-05,984.0315998506479,984.02547378893,984.03668694314,5.622322737648013e-06,1.6972920928368574e-05,Lift Down
-0.7607861328091999,-0.77233886718,-0.74694824218,2.9844322588306898e-05,0.6837011718712,0.67248535156,0.69360351562,2.988218057926531e-05,-0.0664794921844,-0.07592773437,-0.05603027343,2.0662943521089813e-05,1.0250414117008004,1.00796563071,1.03593230037,3.2368712949576274e-05,984.0334797943549,984.02444883509,984.04155549989,1.688624265226696e-05,9.792443480210916e-05,Lift Down
-0.7338671874964001,-0.81005859375,-0.71130371093,0.0005126344796804283,0.642485351558,0.6123046875,0.66247558593,0.00013054655053037204,-0.06530273437119999,-0.08569335937,-0.03540039062,0.00016146173380937007,0.9778665168120003,0.95894855036,1.02048424506,0.00018847939710640613,984.0602544574929,984.03496900173,984.12763209101,0.000659526861260063,0.0008195266175063713,Lift Down
-0.8114599609344001,-0.98815917968,0.22436523437,0.09490349812837627,0.4450976562472001,-0.06323242187,1.05773925781,0.0700242715407951,-0.2512499999976,-0.65771484375,0.01159667968,0.03574715151919932,1.0410772485612003,0.60928363604,1.49198036353,0.034880897777332664,984.2273144421342,984.12763209101,984.39273297283,0.004539496145344906,0.0018404790428664197,Lift Down
0.1340234374964,-0.17126464843,0.25695800781,0.008949785424573253,0.9280957031216,0.13049316406,1.11975097656,0.05330753263811872,-0.32234863280880005,-0.67565917968,-0.20129394531,0.01264435199762439,1.0168425970244002,0.58751336853,1.19088912121,0.023652871981782782,984.3850488116359,984.22656770749,984.48977378002,0.004678562872759998,0.0022723034859286973,Lift Down
0.1014404296856,-0.03833007812,0.220703125,0.007761024465030999,1.0231152343712,0.96765136718,1.05981445312,0.0006973994861880447,-0.20384765624719997,-0.24645996093,-0.11401367187,0.0014620633077787831,1.0524306685748,0.99625334115,1.09491695412,0.0008280613757139729,984.5433126163662,984.48977378002,984.57590405305,0.0006292395680209954,0.0008291183807323573,Lift Down
0.145346679684,0.04064941406,0.26794433593,0.006488346957179404,0.9790478515588,0.93395996093,1.03759765625,0.000673257798900364,-0.21714843749799997,-0.25830078125,-0.14990234375,0.0005949679287965003,1.0168756512240003,0.96721685515,1.06272819817,0.0004613270187672363,984.5786275263723,984.57257948816,984.58424235249,1.3625004833816043e-05,6.093771142792336e-05,Lift Down
0.40662597656079996,-0.18859863281,1.08325195312,0.19843187466854065,0.5088427734360002,-0.31323242187,1.63195800781,0.39377298388504645,0.05718749999839999,-0.50073242187,0.62048339843,0.08854835577465817,1.0065934754476002,0.46701458119,1.73837522617,0.08914274789804541,984.5856698888562,984.51646414,984.6482680877,0.0015819386355674723,0.00030861969563285654,Lift Down
0.20626953124679998,0.03967285156,0.6708984375,0.02065755897101467,0.8895947265591999,0.12890625,1.10302734375,0.05834823675805967,-0.20783203124600008,-0.69677734375,0.03393554687,0.0393422265007474,0.9908213904383999,0.64377020785,1.1254768222,0.012684408597088533,984.5944602702352,984.51608906664,984.62403156127,0.000863505766552639,0.0006489360428973981,Lift Down
-0.5255517578099999,-1.39782714843,0.25341796875,0.33867166345424216,0.6152441406207998,0.20776367187,1.22216796875,0.09549418593930209,0.0096240234392,-0.35083007812,0.56762695312,0.06310354179661513,1.0488190183116002,0.46223374125,1.50090715177,0.04757372590079971,984.6046180271717,984.53374197203,984.76762834566,0.002141094603308238,0.00045256728582552006,Lift Down
-1.0229101562464,-1.23974609375,-0.83581542968,0.015498254901406881,0.290839843746,0.11706542968,0.43957519531,0.005909627230652903,-0.095205078122,-0.25573730468,0.24279785156,0.01764771061668537,1.0775121996672,0.86636614349,1.29470478154,0.01780758156866974,984.6131589841377,984.57608721428,984.66839384047,0.00046967832260438424,-0.0002561608415847657,Null
-1.0017089843712,-1.23950195312,-0.84838867187,0.007078911318959742,0.2932714843712,0.13854980468,0.41333007812,0.006102623506097009,-0.14440429687120002,-0.27673339843,0.12609863281,0.010346715473891292,1.0616818939228003,0.93596428019,1.2837624804,0.0064708866511902245,984.6174303027824,984.57608721428,984.6473904871,0.00024876801205995705,-7.3330013275563475e-06,Null
-1.007910156246,-2.08679199218,-0.18334960937,0.17311816022807683,0.5024169921839999,-0.2861328125,2.01049804687,0.2680238437166513,-0.18180175780959998,-1.11840820312,0.47937011718,0.08475575389115275,1.2097495298964,0.32064915619,3.10606505468,0.36212368829969727,984.6038155947389,984.54622923789,984.83311481449,0.003067090443630811,-0.00017470875096451928,Null
-0.8915234374955999,-1.13928222656,-0.69958496093,0.0126343759381844,0.3984863281215999,0.12573242187,0.72961425781,0.023507509568946216,-0.03854980468679999,-0.40637207031,0.37145996093,0.06220387449049018,1.016408999736,0.73893625983,1.26462377575,0.019562149899281876,984.6049487711217,984.54385472172,984.69299456379,0.0023918182170273804,0.001081307261452266,Null
-0.3368505859356,-1.02941894531,0.07299804687,0.14971751410426773,0.8361669921839998,0.40661621093,1.07104492187,0.053440405046295845,-0.1611572265592001,-0.42834472656,0.14562988281,0.02621316066830829,1.0308050635744,0.92676221004,1.12898756348,0.0031651491573453103,984.5900986858655,984.5566509121,984.66162558601,0.0006528621845301509,-0.0006597408390183905,Lift Up
-0.49296874999639995,-1.18090820312,-0.04663085937,0.15106869466410966,0.7033984374964,0.1591796875,1.01000976562,0.07509678816557626,-0.1309570312496,-0.76196289062,0.60607910156,0.1693418447386701,1.0549406556404,0.76915918834,1.48036952931,0.033929052270629596,984.6207586317624,984.56828262956,984.74099739321,0.0027964882309695002,0.0008637429925172692,Lift Up
-0.5074072265596001,-0.80737304687,0.14050292968,0.05569830773956591,0.6413525390588001,0.39074707031,1.05639648437,0.03475849132385346,-0.5240185546835998,-0.78771972656,-0.12243652343,0.029868428490616578,1.0246624041112,0.77194468612,1.25012907911,0.0127066176322718,984.5880030193428,984.49931019985,984.63452146251,0.0015874285275299166,-0.0009768827280172915,Lift Up
0.152631835934,0.10314941406,0.28186035156,0.002619247099319184,0.9841601562455999,0.93603515625,1.01916503906,0.0004062607794127692,-0.24209472655799996,-0.27758789062,-0.21044921875,0.0003887671171862621,1.0264434575739998,0.97984778357,1.06376828202,0.00027425026310198635,984.5882853346126,984.58130183407,984.60035703574,4.221467830947659e-05,0.00017422957985013324,Lift Up
0.13377441405999999,0.08410644531,0.26708984375,0.0030596994632083774,0.9794628906212001,0.93518066406,1.00024414062,0.00043294439411832895,-0.24145507812119998,-0.29992675781,-0.19116210937,0.0007033769530574546,1.019552191946,0.98242382405,1.04729581317,0.00021322344599089598,984.6137812769032,984.60402763741,984.62200288603,2.8389903160587444e-05,0.0001637962236992739,Lift Up
0.15204101562080002,0.11950683593,0.20153808593,0.00045699076216892666,1.0112353515583998,0.94201660156,1.07507324218,0.0006758871463279185,-0.1441308593712,-0.26037597656,-0.09936523437,0.0017936970489100818,1.03382344061,0.98078656459,1.09048635754,0.0005995092406586435,984.6308542031868,984.61832338334,984.63929703539,3.3863049116262e-05,0.00015655166244880547,Lift Up
0.5596630859339998,0.08349609375,0.88488769531,0.10599560361930159,0.7410009765587999,0.51696777343,1.25073242187,0.05864238922051169,-0.10704101562359998,-0.44067382812,0.076171875,0.020427583828290626,1.0241317583028,0.90227010352,1.28972682596,0.008214200590320051,984.6058961751295,984.55463257308,984.67163724538,0.0007958415231753433,-0.0006069472904719259,Lift Up
0.8099707031215999,0.75036621093,0.85388183593,0.0010286828725021336,0.22071289062159993,-0.11218261718,0.63806152343,0.0537821715764887,-0.41541015624759986,-0.70178222656,0.04479980468,0.08010856247798,1.0049008900212,0.89034913626,1.04518606821,0.001087618090347718,984.5899329692963,984.54128386938,984.66043520925,0.0012415302391469284,-0.0005434636587234496,Lift Up
0.7532519531211997,0.66284179687,0.83618164062,0.0035279156944947347,0.31479003905919994,-0.11743164062,0.9267578125,0.06630925611957558,-0.5488574218719998,-0.62963867187,-0.09265136718,0.014484449203663102,1.0239985522575998,0.91031695244,1.16192464562,0.0026576897963479945,984.5854929586083,984.56339070493,984.64853317547,0.00027590036810646885,-0.00011020684771078732,Lift Up
0.34803710937239996,0.06066894531,0.73107910156,0.08863808689679967,0.8847949218723999,0.54553222656,1.21337890625,0.03526665018057123,-0.13315429687359998,-0.88671875,0.42370605468,0.10454651683082958,1.0644327976596,0.77003726684,1.50669313793,0.015021727961238506,984.5835203293996,984.53642638217,984.62768705873,0.0005257989297034461,9.629663035208656e-05,Lift Up
0.10193359374760004,0.05078125,0.19653320312,0.0014101465301725737,0.9808593749956,0.8408203125,1.0771484375,0.0036390056513223978,-0.0044970703116,-0.27661132812,0.65979003906,0.11210719223992999,1.0426010778176,0.9697403998,1.12733860794,0.0014783517223486997,984.517159474933,984.42556868113,984.61608504965,0.0027499071763790995,-0.001519255500430014,Lift Up
0.016132812496,0.00256347656,0.03979492187,0.00010534570673639222,0.9813134765584001,0.96472167968,1.00219726562,0.00010412018708332644,-0.2901025390588,-0.31079101562,-0.2802734375,5.995398819605331e-05,1.0235051677943998,1.00663219503,1.04232243003,0.00010079521826614505,984.3039261796315,984.2027275834,984.40772012777,0.003898196813313146,-0.002144097620182276,Lift Up
0.010639648433999999,0.00341796875,0.02392578125,3.577564702046342e-05,0.987397460934,0.97875976562,0.99877929687,2.5593006244194872e-05,-0.27854003905880004,-0.29345703125,-0.26049804687,5.199451638735007e-05,1.0260327516204004,1.01760706796,1.03274349957,2.073078324186441e-05,984.0893954908737,983.98618541388,984.18422997136,0.003793456549750316,-0.002116474703619768,Lift Up
0.024423828122,-0.00073242187,0.04907226562,0.0002034781195543669,0.9819726562459999,0.97302246093,0.99768066406,3.5326553117448904e-05,-0.27720214843480007,-0.28662109375,-0.26867675781,1.8144713511844024e-05,1.0207484532247997,1.0114234508,1.036054646,3.517901209191164e-05,983.8763907286166,983.77356137266,983.9775957237,0.003892817297833037,-0.0021423400794522082,Lift Up
0.06200683593320001,0.01794433593,0.13244628906,0.0016024527887113632,0.9861523437468,0.95483398437,1.03686523437,0.0003286697407400401,-0.2758056640584,-0.30395507812,-0.22595214843,0.00044770433444938637,1.0268504510167997,0.99544499531,1.0783677657,0.00034671408816624576,983.6604098775986,983.56909916466,983.76047633342,0.003921721412323287,-0.0021420329914940924,Lift Up
0.16161132812120002,0.04504394531,0.20080566406,0.0013112840266810183,0.9765576171840001,0.9306640625,1.03430175781,0.0004593031334435072,-0.2689404296836,-0.29602050781,-0.21960449218,0.0004273023027517172,1.0265432192427997,0.96708983789,1.08700069003,0.0005019044136551626,983.4364617960721,983.33184182368,983.56376985625,0.004610075044365961,-0.0023211256434599865,Lift Up
0.11700195312240001,-0.08642578125,0.31066894531,0.010221202108152066,0.8761865234332,0.49255371093,1.04528808593,0.027829955948929928,-0.3711230468715999,-0.86401367187,0.00708007812,0.0529827593309909,1.0028231266992,0.86786382952,1.08869384617,0.003630254112323458,983.2066242646986,983.05718423287,983.31977021529,0.005534252896152874,-0.0024477183611594506,Lift Up
-0.5336962890607999,-1.15051269531,0.27478027343,0.2511680854420309,0.6555224609344,0.32971191406,1.08996582031,0.05672901986838013,-0.168994140622,-0.71325683593,0.08544921875,0.04410019065335114,1.0352487250748001,0.79584340098,1.30426208618,0.020038227823244718,983.1411452686717,983.09089918982,983.210826812,0.001021241178351947,2.6753470325044704e-05,Lift Up
-0.9642724609339999,-1.08813476562,-0.8701171875,0.0038926164548273787,0.3019433593716,0.12805175781,0.48120117187,0.009067557219090973,-0.11710449218439997,-0.26843261718,-0.00268554687,0.0074834133877865056,1.0245216390692,0.92071642244,1.19118665954,0.005352722769812227,983.1356152139929,983.10280938681,983.1737771283,0.00022015939498504103,-0.00011211289063045128,Lift Up
-0.9465670443963365,-1.05554199218,-0.79370117187,0.0025441539641515355,0.3434828956482178,0.23181152343,0.61364746093,0.009506350371981302,-0.14803503055227724,-0.39440917968,0.05883789062,0.011606164438335752,1.02795663206,0.88563678286,1.13387179339,0.0026377628102894307,983.1493034835312,983.08213147752,983.24640627217,0.0019333386820780036,0.0005904554757634727,Lift Up
-0.8405004882777999,-1.06518554687,-0.62976074218,0.02437265737512898,0.519948730465,0.23181152343,0.71081542968,0.017564204961379486,-0.21681396484109997,-0.51416015625,0.04467773437,0.041888107861291594,1.0484787645214,0.88127654996,1.21969030859,0.007550554851126001,983.1190213697249,983.05813428628,983.20259843898,0.001296967838110659,-0.0007592268850917094,Lift Up
-1.0029626464801,-1.42333984375,-0.72192382812,0.026319131964361264,0.2801586914027,0.20471191406,0.54663085937,0.006115742951997355,-0.1355249023414,-0.27062988281,0.03552246093,0.009758214028971712,1.0570358275815999,0.75059883727,1.44622950975,0.027511493964109405,983.1411345101535,983.06617348137,983.20996916426,0.0010423103787034762,-0.000192116036744413,Lift Up
-1.0840356445271002,-1.43005371093,-0.86303710937,0.023425574007734536,0.3181506347602,0.23950195312,0.6376953125,0.004347343425183289,-0.1556079101531,-0.28527832031,0.14294433593,0.019430767591766658,1.1511204622164999,0.90780264115,1.50045818543,0.022444703383147566,983.1321305900495,983.05948846363,983.20039135472,0.0011892892856626806,0.00043184663157458045,Null
0.4516308593726998,-0.87219238281,0.77355957031,0.12161075018802335,0.7478344726523,0.36853027343,1.07958984375,0.031581157572524554,-0.053552246093100005,-0.25073242187,0.1064453125,0.008032407272664929,0.9425849291407996,0.52901208965,1.22507859021,0.03761656356165082,983.0675344509365,983.01001424779,983.13854985771,0.0008479692021469799,0.0005781159281834684,Null
-0.9866906738253999,-1.5869140625,0.16491699218,0.09787428272285281,0.33963989257459987,0.23303222656,0.57629394531,0.008874797175298812,-0.16839965820050004,-0.44006347656,0.01599121093,0.01667391725689279,1.0869378451066998,0.52901208965,1.70880022201,0.05861320745629637,983.1329731203726,983.07868101166,983.25629743465,0.0017878680435401656,-0.00021822548943501477,Null
-0.9673034667927998,-0.98156738281,-0.93676757812,6.734222324187505e-05,0.29088378905879997,0.25793457031,0.31640625,0.00024288100426518705,-0.128304443356,-0.18334960937,-0.09814453125,0.0005068343260724204,1.0185683685646003,0.98850773112,1.03620746426,7.956700026578501e-05,983.1353355686142,983.12760206978,983.14115829582,1.603103941869117e-05,5.855825585328851e-05,Null
-0.9723181152321999,-1.025390625,-0.94763183593,0.0002851028198900497,0.3054809570273,0.23156738281,0.38098144531,0.0015785788947992165,-0.1148168945278,-0.158203125,-0.07421875,0.00046324163372343764,1.0264299144421,0.98413169215,1.0960980144,0.0006558953879945519,983.1338546463389,983.11990474496,983.14030827077,3.418241718179235e-05,-0.00012594656069439008,Null
-0.39383544921759994,-1.62329101562,0.45532226562,0.3403867891009898,0.7941259765587,0.32177734375,1.40112304687,0.09106002024916046,0.11326171874970001,-0.14379882812,0.67907714843,0.05187133307285478,1.101226374236,0.69257450005,1.81072061439,0.06500613972183188,983.0884672943504,982.99860149908,983.22216003839,0.0025398409731772244,-0.0008824832695183635,Null
-1.0262976074174,-1.62329101562,-0.54748535156,0.039280169014790436,0.4086352539019999,0.21337890625,0.79113769531,0.03527153183105106,-0.10262817382579997,-0.49548339843,0.18688964843,0.030667130047732957,1.1382375533851001,0.87256001118,1.81072061439,0.03978182468274938,983.1274419158824,983.06144565362,983.17307951569,0.0008302724482843002,0.00019157546400782636,Null
-0.7011511230438999,-1.27221679687,-0.26806640625,0.10208342956038235,0.33224731445030004,-0.1103515625,0.7099609375,0.04153877943898784,-0.40628784179359995,-1.02001953125,-0.03125,0.11901700487496197,1.0012475280195,0.68336248573,1.32336513609,0.024835550569157545,983.195921678188,982.83323638616,983.44326360196,0.015932813835124054,0.0021534202610112765,Null
-1.0292736816361,-1.37329101562,-0.47607421875,0.02499501653823124,0.31555541991779995,-0.1103515625,0.50439453125,0.013965559564000495,-0.11505737304440002,-0.47766113281,0.20043945312,0.017302319369321712,1.0982618940423998,0.68336248573,1.46341902557,0.02195839641963201,983.0351205510815,982.83323638616,983.11230186041,0.008052186074827425,0.002677248409377903,Null
-1.0345104980425,-1.49768066406,-0.67663574218,0.03804797364454206,0.21055664062119997,0.0126953125,0.48620605468,0.01668342354302217,-0.1664746093735,-0.52307128906,0.19873046875,0.04845836762120742,1.09750206578,0.72043235468,1.55487942589,0.040310048289943855,983.128440705439,983.07368484831,983.19928450768,0.0011760622722312417,0.00040101161980287347,Null
-1.0362780761691,-1.24768066406,-0.82250976562,0.013683941537555123,0.264110107419,0.12561035156,0.37548828125,0.0036573876922003767,-0.11110229491930002,-0.30310058593,0.06811523437,0.013976296804530327,1.0830873204929998,0.85729003622,1.28514486383,0.014036793821650953,983.1173690208794,983.04638137722,983.17111855101,0.0011864971689580263,0.0006381807470495875,Null
-1.0577758789018998,-1.34753417968,-0.82836914062,0.019786911630920678,0.2612573242151,0.18188476562,0.35607910156,0.0024533083884740324,-0.1530529785129,-0.34558105468,0.09997558593,0.020798298955160617,1.1095662566470004,0.84959639616,1.38587664972,0.022263908659380237,983.1267562489711,983.07326507601,983.16695348222,0.0008164469144484756,-0.00042967796083556785,Null
-1.0198034667929,-1.31103515625,-0.74890136718,0.021844723867642198,0.30126708983989997,0.05786132812,0.75390625,0.030034749790889412,-0.1455822753886,-0.53662109375,0.22985839843,0.05034046398587729,1.1093014724136,0.84589877079,1.3849459263,0.0228314654347305,983.125677708302,983.05269717595,983.18503942255,0.0021559969323286,-0.00022599816780287973,Null
-1.0636218261664998,-1.29174804687,-0.82849121093,0.016089450137357984,0.25471801757519996,0.05786132812,0.46630859375,0.008263168122864832,-0.18500854491869997,-0.39794921875,-0.02490234375,0.008658642448445391,1.1151244475748,0.88431287385,1.35618903071,0.019777205852578035,983.1388863636058,983.08274221608,983.18194856368,0.0006315826531874607,-1.971959437993736e-05,Null
-1.1144006347620001,-1.45874023437,-0.87902832031,0.023999517931856444,0.25533325194900003,0.16040039062,0.40173339843,0.004730031554922805,-0.18708374023219998,-0.46325683593,0.06652832031,0.03071575486689388,1.1706237523338,0.89729407152,1.525474463,0.030883890856973045,983.1249395741432,983.06613733007,983.18250712277,0.0012032716500247486,0.0003139413221343651,Null
-1.0183728027313002,-1.31970214843,-0.69140625,0.020042527051404517,0.26672119140260003,0.09594726562,0.3994140625,0.006257497295095381,-0.18703491210689996,-0.38586425781,0.06201171875,0.017323460751492263,1.0785071909247999,0.71235266467,1.37975405708,0.02344940101374028,983.1030935773176,983.05880542115,983.19079181541,0.0009660282936984452,4.318530103335843e-05,Null
-1.0687756347619,-1.30383300781,-0.9111328125,0.018167014704354053,0.26364135741859995,0.18273925781,0.37878417968,0.002728685397920305,-0.14435058593470002,-0.36779785156,0.04138183593,0.016955536567199662,1.1174062454848999,0.95424328535,1.38288815609,0.021718405372957706,983.0964368867499,983.06236413853,983.13337065378,0.0005879418944195277,3.726160220482285e-05,Null
-1.0491223144502002,-1.33166503906,-0.82775878906,0.021347590195657483,0.27919189452689996,0.17224121093,0.404296875,0.004439516808106837,-0.1778247070282,-0.35717773437,0.01257324218,0.012417115532935038,1.1063143355887,0.84682141342,1.41989682475,0.024361759855130578,983.0929460122452,983.05607758504,983.12750362253,0.0005025520373441359,-0.00021348661866164137,Null
-1.091330566403,-1.36645507812,-0.89709472656,0.021518676684140182,0.2823718261674,0.16613769531,0.78686523437,0.0071544372358011065,-0.183416748045,-0.416015625,0.04699707031,0.019107941838759704,1.1511557231847,0.92193747163,1.42478690812,0.026789599013400365,983.1009765622911,983.05547600939,983.13121600846,0.0005989645752828849,-0.00014782485514411932,Null
-0.18632690429550003,-1.14489746093,0.23571777343,0.11241743055517465,0.596619873043,0.21337890625,0.97619628906,0.04534494289680767,-0.6544970703087999,-1.10266113281,0.04699707031,0.07871523454957195,1.006389087204,0.68569168778,1.39980286802,0.04074064676498766,983.0989604289819,983.0590136792,983.27461361474,0.0017485810043604386,0.0003787780146980971,Null
-0.970334472652,-1.28991699218,-0.21801757812,0.05978379465673297,0.31513549804290003,0.16564941406,0.45666503906,0.006360275906509816,-0.2735461425750001,-0.51208496093,-0.04675292968,0.018173827033796355,1.0800255891978,0.68569168778,1.37539817181,0.03303667511239371,983.0971229796799,983.03657091718,983.17376684074,0.0011020245634096601,0.00013199237208517427,Null
-1.0401550292925001,-1.287109375,-0.85632324218,0.01480122448680573,0.271284179684,0.16613769531,0.3984375,0.004014025890430073,-0.1932470703094,-0.47448730468,0.03918457031,0.02215846731183459,1.1022111729987,0.90248873813,1.33409955936,0.0187439716401314,983.0980111103511,983.0494663805,983.14306371059,0.0005668630214464071,-0.0001236451556269825,Null
-1.069598388669,-1.27258300781,-0.86059570312,0.0175640885201884,0.259130859371,0.08581542968,0.40002441406,0.0047649650864617105,-0.1407519531238,-0.36279296875,0.08654785156,0.020890802421298003,1.1185925511384,0.88534484833,1.36319532369,0.02276665619582872,983.0888612463169,983.05209783987,983.12396219547,0.0005280098973960278,-9.321809214947661e-05,Null
-1.1209912109337998,-1.39074707031,-0.91284179687,0.024413787571863556,0.2874218749962,0.14770507812,0.43078613281,0.006754353889342651,-0.15231079101300002,-0.32592773437,0.06164550781,0.013798915031336836,1.1733345840120997,0.9271049613,1.46351409073,0.03053994562088812,983.0882079083334,983.0467170579,983.13550590485,0.0007054715390926642,-0.00014572850305826177,Null
-1.1778051757783001,-1.51708984375,-0.77819824218,0.03404699166016583,0.2796032714817,0.0986328125,0.53503417968,0.011271554561113936,-0.18307861327830008,-0.45764160156,0.1396484375,0.03358799627851152,1.2377345525930998,0.80047457335,1.54863278863,0.04069215896355802,983.0936953420313,983.0336975351,983.15012481271,0.001402735192160859,-0.00028411030446728376,Null
-1.0617944335896,-1.29235839843,-0.87512207031,0.014834287967173525,0.266311035153,0.15649414062,0.37805175781,0.00252050094542713,-0.18463623046619998,-0.3837890625,0.03283691406,0.017662449442569454,1.1178844674696,0.90882961855,1.37867158292,0.01759687637349867,983.097295476418,983.05097918172,983.12167945605,0.00045667378402863243,1.4136978380201542e-05,Null
-1.0663061523412,-1.345703125,-0.91284179687,0.012483464762449069,0.2627941894504,0.1787109375,0.47399902343,0.006166731075343636,-0.1674987792948,-0.42944335937,0.04931640625,0.018853575404574132,1.1200235212834,0.9446797184,1.38792972611,0.01697119484269106,983.0894405857933,983.0517433589,983.13228481279,0.0006832178733978382,0.000268891015299624,Null
-0.9969104003871999,-1.28881835937,-0.49841308593,0.015371237347553206,0.3095532226519,0.16064453125,0.64111328125,0.010772675282090478,-0.23365356444979998,-0.59985351562,0.01782226562,0.022654491570760108,1.0864031077026,0.91516485336,1.33450705368,0.012410343401327267,983.0869301657698,983.04533458801,983.1303433255,0.0005175744280082402,0.0003038632068238718,Null
-0.8104809570272999,-1.44616699218,-0.09631347656,0.1495893836679243,0.3897802734334999,0.15698242187,0.85400390625,0.0403620382993602,-0.352365722653,-0.73095703125,-0.06457519531,0.03693397935594389,1.051126146724,0.51791355132,1.50173447087,0.053252542168494295,983.0864296875021,983.01346627925,983.22783335163,0.0028877303528764327,-0.0004167160511739839,Null
-1.0512304687462,-1.31982421875,-0.80725097656,0.02657028126031104,0.24894775390270005,0.150390625,0.35815429687,0.0031816395786249054,-0.20713500976190002,-0.37280273437,-0.01672363281,0.012440393180233574,1.1061626494024,0.86539884773,1.40467918402,0.028424221021751902,983.0897561047121,983.05329053562,983.12985218399,0.00042906228386200445,-0.00012660675155107756,Null
-0.6192639160125,-1.40441894531,0.05346679687,0.24423499796578876,0.4241650390599,-0.08374023437,0.90832519531,0.05613029939908714,-0.4673107910113999,-0.91809082031,-0.08605957031,0.07588472730505957,1.0478797171363003,0.56977654448,1.52304997039,0.056786642697157746,983.0887987958029,983.01626908757,983.18026757648,0.0014556125124370665,-0.0007003587482536658,Null
-0.0094445800781,-0.18029785156,0.09973144531,0.0044887528437878126,0.7102722167924999,0.48706054687,0.98327636718,0.014656704897400634,-0.7147253417937999,-1.02868652343,-0.51953125,0.015101374536750957,1.015945768349,0.79769041378,1.26363146922,0.020467603977084532,983.0841544677087,983.03905277855,983.12326186706,0.0005952316776287966,0.00034196206960944724,Null
-0.04317138671680001,-0.15734863281,0.13659667968,0.004936823104126643,0.6108642578092001,0.37268066406,0.99365234375,0.026769778343081377,-0.8030322265583999,-1.02868652343,-0.53503417968,0.01893694302037924,1.0234227010762,0.78967897486,1.32098918706,0.02285126357252443,983.094479201262,983.05811355208,983.18357420985,0.0007879386964474548,-9.415615717432747e-05,Null
-0.1131762695266,-0.27563476562,-0.00183105468,0.005623946894306213,0.6520678710893998,0.37268066406,0.83935546875,0.010488493761803084,-0.7945312499957998,-0.98425292968,-0.54663085937,0.015560071877749873,1.0395240014892,0.79645403794,1.26668916515,0.02022921358240935,983.0912866210015,982.99931205465,983.18357420985,0.002615386716223832,-0.0013743470644457007,Null
-0.133862304685,-0.39770507812,0.07543945312,0.015483954337614984,0.5628979492153999,0.42272949218,0.74963378906,0.0074350056082642425,-0.8448168945283999,-1.14013671875,-0.58984375,0.017877978393585015,1.0340727305561999,0.72664376286,1.3009726982,0.019769050506630963,983.0836138622996,983.03532795383,983.16266527767,0.0016744377532745324,0.000489373322426848,Null
0.06276123046879999,-0.36596679687,0.80053710937,0.1196808899326326,0.5151489257777999,-0.01635742187,0.74963378906,0.0437161123210636,-0.7376562499964001,-1.12866210937,-0.20202636718,0.053893618896609506,0.9916891221199999,0.49068082564,1.31104295326,0.045580334292677785,983.0988120766197,982.95005407739,983.20089830276,0.002684783850717905,0.0006527877389699723,Null
-0.979663085933,-1.4814453125,0.18518066406,0.13278817739179857,0.3111083984331,-0.01635742187,0.43566894531,0.009674171907693502,-0.29783569335540006,-0.50305175781,-0.00354003906,0.021292549689299473,1.1084437961433,0.49068082564,1.5366540741,0.07949898843232166,983.0589054448943,982.95005407739,983.14591853846,0.00318353102187704,0.0009181721138460223,Null
-0.3920678710908,-1.4814453125,0.08361816406,0.18017601707406977,0.5446752929646999,0.25183105468,0.89245605468,0.03553616157086313,-0.6108520507781,-0.95751953125,0.009765625,0.09475515752733889,1.0499486397571003,0.81464326134,1.51249466434,0.02809427091984694,983.0909359952255,983.0201395974,983.27390890437,0.0030538867366973607,0.0009972914113184044,Null
0.26189697265379996,-0.11279296875,0.43872070312,0.021498022181386866,0.4034472656209999,-0.04235839843,0.51806640625,0.012385658519295718,-0.8830639648395998,-1.03735351562,-0.70910644531,0.0045407344656192075,1.023040505552,0.71926937825,1.09015898435,0.002616142866193563,983.0791584504544,982.9288328434,983.27390890437,0.005646469320730058,-0.0015248907567612332,Null
-0.9545141601526,-1.85998535156,-0.11279296875,0.13256194428346613,0.15460693359219999,-0.12353515625,0.45031738281,0.023408048206421485,-0.354233398433,-0.70910644531,-0.20629882812,0.010822303150652184,1.0675990607867998,0.57743819139,1.90993499254,0.0867055601046212,983.0432708844132,982.9288328434,983.14016731101,0.002828643214139282,0.001043843260276432,Null
-1.0483813476525998,-1.37963867187,-0.81079101562,0.03163886829477883,0.19740722656000004,-0.04809570312,0.3359375,0.012474626218099142,-0.09860595702859999,-0.36096191406,0.13000488281,0.01710448077768563,1.0832297173268,0.83471602924,1.44294642527,0.03536906363770392,983.0928415224489,983.01564411716,983.21284660271,0.0024453635777944988,0.0003123962390716878,Null
-1.1341528320276,-1.41479492187,-0.86022949218,0.02400984336020749,0.2865185546848,0.18798828125,0.42932128906,0.0036529611818725675,-0.15645019531060003,-0.44470214843,0.14672851562,0.028975031447268967,1.1932753401274,0.89448504765,1.4655340018,0.02529051763554008,983.0749576014007,983.02651075192,983.12545685823,0.0009805695788829285,-0.00014261286270612835,Null
-0.9850097656214001,-1.25439453125,-0.68176269531,0.025062672417484482,0.2121874999962,0.0234375,0.32958984375,0.0058889898144640785,-0.2510546874974,-0.53332519531,0.14672851562,0.036025931593970544,1.0605048715242,0.79443965222,1.30499065326,0.02013481313161725,983.092435925474,983.02725337982,983.15655804496,0.0006472309141952872,-5.217855442014537e-05,Null
-1.0189184570276,-1.27551269531,-0.79248046875,0.012696568105000552,0.27036865234199997,-0.03356933593,0.412109375,0.016818455981327245,-0.09016601562380001,-0.35229492187,0.22912597656,0.03226867815366514,1.0807454481814,0.82357793005,1.33822067533,0.012706143499986276,983.0911935848671,983.03748688979,983.18016665298,0.0015117936408477434,0.00010240902342886042,Null
-1.0002929687457998,-1.15258789062,-0.88159179687,0.005648570229342899,0.3143090820276,-0.0146484375,0.5107421875,0.017969206541403753,-0.19611572265280003,-0.39135742187,-0.03979492187,0.009983754573346543,1.0797607417304,0.93516130406,1.19691004614,0.005272581501976135,983.1139240396171,983.05242060125,983.2081134861,0.0014114124601605272,-0.0001214798762206614,Null
-0.7527539062462,-0.99072265625,-0.72424316406,0.002411337910239955,0.3137377929646,0.02478027343,0.37072753906,0.008647069792534476,-0.5765893554652,-0.62719726562,-0.12976074218,0.012579869194391453,1.009883197303,0.91665628636,1.03343426691,0.0010736897709155823,983.1210519251117,983.09440193663,983.22058674408,0.0013032832196334969,-0.0009218894439056831,Null
-0.7316992187463999,-0.73876953125,-0.71606445312,1.6202131912074354e-05,0.3433593749965999,0.33508300781,0.35803222656,3.493915904447798e-05,-0.6274121093717999,-0.64306640625,-0.62036132812,2.5313045041573447e-05,1.023221187171,1.01486968784,1.03175244229,1.9650522944117334e-05,983.1065409138431,983.09586661303,983.11528261193,3.405483617026677e-05,0.00015533973890724358,Null
-0.7125268554643998,-0.79406738281,-0.58679199218,0.0017068954971344173,0.31391845702779997,0.21899414062,0.42065429687,0.0018207339868024364,-0.6570190429657999,-0.72509765625,-0.62573242187,0.0005747870062674713,1.020232386174,0.94933790863,1.11023465281,0.001111728051052401,983.1046085044659,983.09249984575,983.13709584411,0.000159924510647086,0.00013236549429801483,Null
-0.7592163085905997,-1.09716796875,-0.63928222656,0.01750403296463973,0.3948925781205999,0.19897460937,0.53393554687,0.007101039669793067,-0.5397827148395999,-0.70263671875,-0.115234375,0.04054430894768246,1.0406161817556001,0.8410507046,1.22276242316,0.005384627031624658,983.0837588018659,983.00817212225,983.12025097236,0.001363815819967785,-0.000965595771549663,Null
-0.8545922851533999,-1.03735351562,-0.71154785156,0.013539239427153358,0.3777783203091999,0.17785644531,0.57958984375,0.011077135235308372,-0.3419946289021999,-0.56127929687,-0.08813476562,0.03641260085099133,1.0236123414446001,0.89385435988,1.11428158974,0.002667898522175981,983.1152733471582,983.03420594981,983.19949441566,0.0017166945001356165,0.00033911351813937075,Null
-0.7223510742155999,-1.02685546875,-0.38781738281,0.0229416153949619,0.6512524414033999,0.39721679687,0.88830566406,0.014581211534369521,-0.26191162109079996,-0.55700683593,0.13745117187,0.023111239279829894,1.0333698523502002,0.86529215324,1.20990373108,0.006760593856061207,983.0922019090717,983.07196478162,983.13755831804,0.00035872445579345456,-0.0002856358987093442,Lift Down
-0.37631103515259995,-0.6806640625,-0.13610839843,0.02329415252143058,0.8934960937464002,0.74084472656,1.06286621093,0.00798876974312127,0.2724340820276,0.13745117187,0.4091796875,0.005230685249752705,1.0218876799310002,0.89645991572,1.19147735758,0.006120843247313439,983.1167456162125,983.06498613248,983.15966063472,0.0007037071821006089,0.00033191110233665505,Lift Down
-0.5027343749964,-1.06945800781,-0.16455078125,0.07587631423041995,0.858046874996,0.42346191406,1.00842285156,0.01533406951208488,0.16625976562299996,-0.43493652343,0.35595703125,0.06074443670039127,1.0719672240318,0.90235000872,1.4352357021,0.018131458583561483,983.1109849949216,983.0726940737,983.20490078375,0.0012559706253751498,0.0005572594138868909,Lift Down
-0.7200610351523999,-0.89978027343,-0.62512207031,0.003776073943465209,0.49766601562139995,0.21606445312,0.72937011718,0.01240463608440017,-0.5187426757783999,-0.6357421875,-0.40795898437,0.004326134143550879,1.0256408793143998,0.89872872152,1.13919642881,0.003652407608900411,983.1454484635562,983.10199482921,983.18690945467,0.0006226206057768129,-0.0005350441581822594,Lift Down
-0.6919921874966,-0.82739257812,-0.59985351562,0.002773062147357565,0.43131103515239994,0.36242675781,0.48742675781,0.0011768481045145713,-0.6022412109331998,-0.66442871093,-0.48095703125,0.0026082000106148547,1.0166760758846,0.98528806029,1.05865454411,0.0004435945801291386,983.115982955418,983.1072408629,983.12970977687,3.8306613161375666e-05,9.49899120360708e-05,Lift Down
-0.71148193359,-0.82739257812,-0.5966796875,0.002610460200660619,0.41129394530979996,0.34997558593,0.45471191406,0.000594908805822782,-0.6049877929651999,-0.69396972656,-0.53930664062,0.0019291659858967293,1.0228299629272002,0.98248383343,1.05496898709,0.0002843813053124595,983.1255261009378,983.10583816539,983.14552158851,7.549098971770018e-05,-7.91253337340433e-05,Lift Down
-0.264458007812,-0.78662109375,0.13854980468,0.14134334082425692,0.6357812499958,0.39282226562,0.85034179687,0.028950319410708417,-0.04878662109320004,-0.86499023437,0.6689453125,0.3763765184582365,1.0036819828114003,0.80787157436,1.20448209344,0.010466590329623238,983.0934930249564,982.97743245963,983.19809960509,0.0025079785469407268,-0.0007072662433844526,Lift Down
-0.47889648437160004,-0.63098144531,0.07019042968,0.04786222188096793,0.44611816405899984,0.05432128906,0.87329101562,0.05197387090816361,-0.5377075195285999,-0.95190429687,0.56665039062,0.13770149648008806,0.9741409391656001,0.81619925361,1.11786828939,0.0037416965919170545,983.1333741559632,983.0893574671,983.21145346147,0.0015358950374281437,-0.0003726885353801044,Lift Down
-0.6117797851518,-0.63134765625,-0.59802246093,6.626245348777756e-05,0.4354711914025999,0.419921875,0.44934082031,6.23361570795478e-05,-0.6390234374971998,-0.65063476562,-0.62609863281,5.229774147192482e-05,0.9860535078695998,0.9672981735,1.00532021007,0.00013958054759761828,983.1905099706881,983.1276402314,983.27182003137,0.0018863973054106425,0.0014844043010116235,Lift Down
-0.6450927734337999,-0.69274902343,-0.61462402343,0.0006170471509435837,0.45931396484059994,0.43896484375,0.49548339843,0.0002851409442301599,-0.6659667968711999,-0.70825195312,-0.642578125,0.000317212909137032,1.0347423388834,0.99365241873,1.10771198274,0.0011528063521125936,983.3952403929678,983.27182003137,983.51492152996,0.0051237449815656755,0.002459355084587058,Lift Down
-0.6656933593712,-0.69787597656,-0.638671875,0.0002775251022622139,0.45150146484039977,0.37878417968,0.4931640625,0.001272243833348785,-0.6746435546849999,-0.705078125,-0.64892578125,0.00020329665656034223,1.0502267191932,1.00633070189,1.10635314315,0.0009136571450865637,983.569840661002,983.51492152996,983.59198257719,0.0004493037455992568,0.0006636438723506847,Lift Down
-0.6745947265587999,-0.74060058593,-0.62609863281,0.0005012437791102395,0.38588378905879994,0.30725097656,0.55236816406,0.003181007992143972,-0.6624633789018,-0.69360351562,-0.62023925781,0.00035789112249890684,1.0228559328905997,0.98782617849,1.09973383685,0.0006136910740043808,983.597118987505,983.58094165266,983.64734331634,0.00027932990495597955,7.526272246470726e-06,Lift Down
-0.9070092773401999,-1.19079589843,-0.6630859375,0.021032608693031408,0.2977026367144,-0.00549316406,0.52722167968,0.03234410785012389,-0.12832031249860004,-0.65771484375,0.25219726562,0.09204533786318046,1.0328144241175996,0.91495243993,1.24487436956,0.005071707965688757,983.5650143461471,983.53351432223,983.60097867343,0.00036370739739991924,0.00013140119961412442,Lift Down
-1.0178881835902,-1.380859375,-0.82373046875,0.022024120471575037,0.2551416015588,0.06433105468,0.43493652343,0.010951781296899905,-0.1008178710906,-0.40454101562,0.25219726562,0.0163739120412001,1.0663160855076002,0.87271461735,1.42197129164,0.023418339121187157,983.5857863654013,983.56057463561,983.63725466456,0.0006239454888539155,0.0001284166490936454,Null
-1.0245947265594,-1.51916503906,-0.67626953125,0.06604136134633563,0.4179809570274,0.06140136718,0.69116210937,0.038799939884002724,-0.1957348632784,-0.5673828125,0.20031738281,0.05203622832985216,1.1723666709565999,0.80411229361,1.61041211996,0.04412092316043728,983.5950331622572,983.53945536855,983.68427566618,0.0015437144359395254,0.0006217282343413753,Null
-0.6734216308552999,-0.68469238281,-0.65173339843,8.385893523415974e-05,0.4967309570280999,0.48156738281,0.58117675781,0.00041223252058523606,-0.5828564453099,-0.591796875,-0.52612304687,0.00012327689113594462,1.0200661658445,1.00854203337,1.03533200625,3.854987674896979e-05,983.589926171365,983.58435270331,983.60216808472,2.5750474121510667e-05,-0.00010611940758086419,Null
-0.7080859374958,-1.03271484375,-0.62072753906,0.007434353539609718,0.4841552734338,0.1943359375,0.57177734375,0.004718837713894977,-0.5245556640581999,-0.60437011718,-0.10925292968,0.012015126787242689,1.017219940306,0.99222502299,1.0565049019,0.00014231947098300633,983.5887008173314,983.54050657936,983.61071184274,0.00019453071734270685,-8.692522111203226e-05,Null
-0.7597143554651998,-1.251953125,0.06994628906,0.17226194016211818,0.5069091796841999,0.1943359375,0.88171386718,0.056187078808398794,-0.23234863280939996,-0.59460449218,0.03991699218,0.0494371983730409,1.0724674989253997,0.79536682348,1.29480749807,0.013161135795018012,983.5598272654553,983.52399082944,983.6109012406,0.0007092900866026963,0.00012319560655292701,Null
-0.37842041015519995,-1.27392578125,0.3916015625,0.29481644972726717,0.8515258789042,0.44787597656,1.29345703125,0.06535858593236073,-0.23037353515439998,-0.69409179687,0.22900390625,0.0670193640194806,1.0814690778548,0.48148740387,1.81053139392,0.1764822063526371,983.5668476907767,983.47403379779,983.68017399873,0.002647615562603692,-0.000273490452641668,Null
-0.9467626953096001,-0.98193359375,-0.83178710937,0.0011011998100199755,0.3470068359336,0.25708007812,0.61999511718,0.00446845331582273,-0.1139892578084,-0.21520996093,0.00219726562,0.0027359784250895387,1.0186185860362,0.95607773905,1.04804695063,0.00040974517673666755,983.5613145522201,983.49343967797,983.58687496342,0.0009587333973569395,0.0008793701328672519,Null
-0.8976391601516,-1.08581542968,-0.50427246093,0.03126816750173548,0.3737988281196,0.16101074218,0.84240722656,0.025120788969290257,-0.1676928710898,-0.36499023437,-0.04577636718,0.009415105623392811,1.0158292245148,0.86436071268,1.15794560752,0.006908619043989191,983.5783548635856,983.53847702132,983.62503564881,0.0005368540619458871,-0.00035607539040156174,Null
-0.6940722656216,-0.8095703125,-0.60009765625,0.003198964643970197,0.7407763671836,0.61901855468,0.84240722656,0.0033795172277033803,0.0750195312474,-0.0654296875,0.18908691406,0.005228361794108605,1.022924876812,0.92748726213,1.07815682322,0.00144175533094875,983.5746549884352,983.53847702132,983.59521872115,0.00025021374299524893,0.0005108183494972389,Null
-0.9216870117159999,-1.02624511718,-0.69274902343,0.0082716943097369,0.42521240233979996,0.29077148437,0.65625,0.013201903580323379,-0.0222119140624,-0.10522460937,0.07348632812,0.004521676963745573,1.0269553395492002,0.9416000594,1.11677248121,0.0019231883535029866,983.605695357188,983.58410398111,983.62594484734,0.00013830604639326877,0.00028667890120460547,Null
-0.9833911132771999,-1.18249511718,-0.85424804687,0.007977296252495615,0.2767016601526,0.15930175781,0.42248535156,0.003214811321506203,-0.1180688476528,-0.24670410156,0.03442382812,0.008302651444787788,1.0336718930563997,0.90288383042,1.2328388337,0.008469062751221274,983.6022185317307,983.573419484,983.64362794485,0.000337706080638651,-0.00031645167596785166,Null
-0.9843676757763998,-1.09265136718,-0.83520507812,0.005048721372401893,0.2511157226526,0.13916015625,0.32495117187,0.0029683052951298325,-0.11511962890420001,-0.23388671875,0.01306152343,0.00711468217935612,1.0273765343111998,0.87403180848,1.14338333579,0.0048173785287852,983.5919813790888,983.57444334587,983.63631662395,0.0002574207574299383,8.453056011540899e-05,Null
-0.5521606445282,-1.10974121093,0.42138671875,0.2943585561642623,0.5580664062466,0.24914550781,1.07202148437,0.07123798098243025,-0.2691198730429,-0.76086425781,-0.03100585937,0.054175971931442066,1.0399368480552003,0.76506793912,1.34354751192,0.023081952787723042,983.5895133252047,983.52217758836,983.73415124094,0.0017900047171111634,9.317448029566237e-05,Null
0.3515112304657999,0.28210449218,0.42138671875,0.0013749515710032884,0.9150024414026001,0.83190917968,0.98706054687,0.003437284417711075,-0.19274658202980002,-0.43994140625,0.04638671875,0.042367899350652063,1.0220095230275998,0.98987992844,1.03611973242,0.00014719861438393345,983.5524887811137,983.50339658233,983.61100371164,0.0010566909816557572,-0.0009814529392437206,Null
0.33048828124619994,0.28210449218,0.3681640625,0.0005776128142853137,0.972814941403,0.95910644531,0.98718261718,8.306193229834663e-05,-0.0178173828104,-0.05236816406,0.02746582031,0.00044798607768867043,1.0280919307602,1.0205453163,1.03881764215,3.376717963499818e-05,983.5599518624668,983.54162114768,983.57420170347,4.4420752750139455e-05,0.00010644028429683288,Null
-0.7980175781221999,-1.19702148437,0.32531738281,0.2348767740301317,0.5075415039036,0.13879394531,1.18676757812,0.07953896804896651,0.05393066406220001,-0.212890625,0.54516601562,0.043644841872137394,1.093494510893,0.63580272755,1.60697135776,0.05665523480835092,983.5597191716657,983.44315874182,983.63493711435,0.002331450738964914,0.0002470908319560839,Null
-0.9749780273404,-1.19934082031,-0.72155761718,0.012370295289996041,0.21938476562079995,0.07299804687,0.3369140625,0.0057220302447193476,-0.24828613280880002,-0.42443847656,-0.05114746093,0.009474157661037808,1.0365769385512,0.76876628439,1.24169769467,0.013289799755251432,983.5868853996243,983.55536835359,983.60775491958,0.0002949711364252944,7.586735527865583e-05,Null
-0.6909887695277999,-1.06787109375,-0.12512207031,0.10830986083722208,0.5650292968717998,0.17822265625,1.12170410156,0.10983327184074841,-0.2981420898394,-0.43884277343,0.00268554687,0.008560750153181428,1.0484433836154,0.82995124295,1.22292947001,0.0109248555850417,983.5806269057252,983.5505091094,983.62638293879,0.00036779610344271846,-0.00019530259936124993,Null
0.2115478515588,-0.12512207031,0.41442871093,0.014615638689250919,0.9555517578092,0.79724121093,1.09167480468,0.0054613686811944276,-0.20078369140459998,-0.78991699218,0.09619140625,0.07164243958683504,1.0411460511726003,0.95343992627,1.18573532617,0.00501302898990848,983.6340957317475,983.56185746903,983.8715646168,0.004358138483435767,0.0016684804604008882,Null
-0.3607324218739999,-1.56677246093,0.361328125,0.4359602775424363,0.38690673827820005,-0.04760742187,0.9970703125,0.05489844156661403,-0.6137866210899999,-1.04479980468,0.03332519531,0.12279079237982236,1.1034023632377998,0.65798473413,1.61326343258,0.04704541587988417,983.5147529573459,983.34645871376,983.61127009558,0.005837606650996537,-0.0020305756423834222,Null
-0.9993334960908001,-1.08349609375,-0.92822265625,0.001983084588339549,0.24608886718339995,-0.04760742187,0.36596679687,0.009701649323601095,-0.0771508789056,-0.36352539062,0.16540527343,0.026672624872377076,1.0495667958547998,0.97739702806,1.12893983599,0.001578536676389808,983.5624418488183,983.5080855906,983.61200916664,0.0010020815964433202,0.0009363275310591274,Null
-0.9798095703094001,-1.154296875,-0.7236328125,0.011351714230527459,0.26759521484,0.08166503906,0.45202636718,0.007834861380801148,-0.09488037109159998,-0.24584960937,0.04895019531,0.008998501065556462,1.0272637141676,0.76186253095,1.22202919306,0.013402793289348456,983.5838479138348,983.55322163606,983.61800602641,0.00027857194492509355,4.762226341735566e-08,Lift Up
-0.9993920898395001,-1.11682128906,-0.7236328125,0.004550719796912817,0.2537219238251,0.08166503906,0.38159179687,0.00416775499178129,-0.11419189452780001,-0.24938964843,-0.02001953125,0.004814079741022796,1.0409911137918,0.76186253095,1.19358582541,0.005993820840068058,983.5949981673646,983.57814757491,983.62555964492,0.0001259369681205829,-1.598406753187703e-05,Lift Up
-0.78800537109,-0.93566894531,-0.69897460937,0.0033800888603878238,0.35990722655819996,0.2412109375,0.69921875,0.01223516811028484,-0.47378662108979996,-0.65905761718,-0.02001953125,0.038811139873548714,1.0136344503112,0.91041486774,1.10043581029,0.0014007807485804256,983.6258412554339,983.59583503975,983.74880184042,0.0015119913089504185,-0.0007202414174169697,Lift Up
-0.719885253902,-0.74243164062,-0.69897460937,0.00018938698553518278,0.3737646484324,0.30200195312,0.41235351562,0.001208323204090869,-0.6179541015581999,-0.65905761718,-0.59729003906,0.0001855059344341126,1.0204417162756,1.00429588208,1.03392403155,6.883887475037106e-05,983.5855936319952,983.57935024404,983.59583503975,1.8595395044652502e-05,1.0939894435104218e-06,Lift Up
-0.7228515624957998,-0.73095703125,-0.71362304687,2.316272620514717e-05,0.38369873046539993,0.36767578125,0.3974609375,6.591961240114365e-05,-0.612248535152,-0.62048339843,-0.60485839843,1.500243490020012e-05,1.022095258681,1.01484968229,1.02852149002,1.1810170171283664e-05,983.5814646572252,983.57729197609,983.5904638915,6.726641420592478e-06,-5.04790499459553e-05,Lift Up
-0.7355029296832001,-0.74682617187,-0.72497558593,3.998481865568084e-05,0.3601904296831999,0.28796386718,0.38220214843,0.0008879517305021834,-0.6011328124969999,-0.6435546875,-0.58654785156,0.00014722843363445,1.0164005545099999,0.99401372762,1.02540017259,5.7262218444652695e-05,983.5767998463905,983.56904274648,983.58179824081,1.4410692792919287e-05,-2.0155464160724897e-05,Lift Up
-0.7364038085889999,-0.84130859375,-0.65368652343,0.0019673824853196163,0.34452148437139996,0.24829101562,0.42224121093,0.0017045594465529565,-0.6462426757772,-0.72521972656,-0.57336425781,0.0018302662745979556,1.040819905957,0.98933009705,1.09837547848,0.0007639676627406993,983.5708248029637,983.53238543775,983.59383000666,0.0003153799710237854,-3.460601485841581e-05,Lift Up
-0.7582666015592,-0.8046875,-0.70422363281,0.0006038251790314093,0.21962158202739995,0.05004882812,0.39489746093,0.0061427095983301655,-0.7000634765594,-0.76135253906,-0.6298828125,0.0010247602848150084,1.0585079379252,1.02824876179,1.11556386005,0.0005507848538628325,983.5125386286021,983.41499447024,983.65225940833,0.005347727116793375,-0.0023371046993232855,Lift Up
-0.719790039058,-0.7353515625,-0.71228027343,3.837530059629251e-05,0.24302734374640003,0.22912597656,0.25268554687,3.6072634669613125e-05,-0.6817944335892,-0.69055175781,-0.66748046875,3.860141893353592e-05,1.0208141012982,1.00654617861,1.03611728034,5.4676024942762356e-05,983.3019667756066,983.18671075545,983.41499447024,0.0050472927030655815,-0.002439530961111901,Lift Up
-0.7159045410114999,-0.720703125,-0.70983886718,8.926757359081076e-06,0.26023315429259997,0.23889160156,0.26843261718,5.2036677633974054e-05,-0.679816894528,-0.69592285156,-0.66174316406,6.795345532264354e-05,1.0210185965749,1.00974376219,1.03162946366,3.7231729120254274e-05,983.0611911905158,982.94273068226,983.18671075545,0.005393971436861542,-0.002522540051372503,Lift Up
-0.7182165527309,-0.72521972656,-0.70861816406,2.2723715421022007e-05,0.25388549804300004,0.24560546875,0.2607421875,1.2338479058939771e-05,-0.6789978027306001,-0.68957519531,-0.67016601562,3.0419855100009655e-05,1.0204817448038002,1.01458935386,1.03160543529,1.2843028825159049e-05,982.8105089968204,982.69517513281,982.94273068226,0.0051292801108079,-0.002460020428165724,Lift Up
-0.721701660153,-0.7265625,-0.71435546875,1.2312085943738535e-05,0.25130249023039997,0.24560546875,0.25891113281,1.2471535890752036e-05,-0.6756042480422999,-0.68957519531,-0.66943359375,2.3399150440251667e-05,1.0200319077179,1.01187955837,1.03340265982,3.023840426130397e-05,982.5661563263301,982.44722990958,982.69517513281,0.0051482167046007655,-0.0024661270643205322,Lift Up
-0.6817578124957998,-0.72570800781,-0.65283203125,0.0006836080551234343,0.24620849609060003,0.22399902343,0.26062011718,9.621538899470129e-05,-0.6521728515587999,-0.68505859375,-0.62219238281,0.0005482844632208856,0.9750803318068,0.93295875405,1.02763210354,0.001287818292381019,982.322973858123,982.23178386487,982.44722990958,0.004229148289983686,-0.00222642791280109,Lift Up
-0.7046948242139999,-0.7197265625,-0.67712402343,0.00019703008310988245,0.25820068359059994,0.23974609375,0.275390625,6.571363319106086e-05,-0.6725195312463998,-0.68884277343,-0.64135742187,0.00022577218335355703,1.0077678511002,0.96314337548,1.02662486318,0.0004368658810569676,982.2076047250163,982.19883408731,982.23178386487,5.7243015142036246e-05,-0.0002352616333517913,Lift Up
-0.7186840820263999,-0.74450683593,-0.70544433593,8.712706541417436e-05,0.24221923827800002,0.1943359375,0.27905273437,0.0007563376727813674,-0.6807812499966,-0.69250488281,-0.64123535156,0.00011038657390659871,1.0195646315668,0.98949612517,1.03200382799,7.3085209301849e-05,982.2030441975066,982.1919848666,982.22007359021,5.337218288555991e-05,0.00016361776234321044,Lift Up
-0.7282446289026001,-0.83972167968,-0.56579589843,0.0047166535890865715,0.38579345702839984,0.259765625,0.53173828125,0.006868545509430612,-0.6180102539029999,-0.71179199218,-0.49365234375,0.003114487673221329,1.0353077381925997,0.94328515528,1.20570581,0.003842507154571761,982.2019508005632,982.15809607846,982.25362484342,0.00028070157167059303,4.602218441369869e-05,Lift Up
-0.7126379394497999,-0.81311035156,-0.58471679687,0.0037442449534162586,0.3572106933552,0.17138671875,0.51879882812,0.007433096524064631,-0.6238513183565,-0.81201171875,-0.49584960937,0.006243012497874358,1.0180182775867004,0.90715758325,1.21628993512,0.00736405674452844,982.2052010733934,982.15809607846,982.26532991364,0.0007908888201085359,0.00016429633920416012,Null
-0.7098437499965999,-0.79406738281,-0.6337890625,0.002165779296853899,0.29803100585520004,0.16418457031,0.52746582031,0.010575627574698028,-0.6653979492155999,-0.73498535156,-0.60864257812,0.0011569273050789878,1.0240106388557004,0.99087487147,1.09723958832,0.0006228515433382577,982.2103918213714,982.19695317274,982.2494389388,0.00015210057437784423,-0.00015176773205573192,Null
-0.7108605956994998,-0.76965332031,-0.62548828125,0.0012261029611497823,0.34672241210519983,0.1416015625,0.45190429687,0.007168947860096824,-0.6286621093717,-0.70043945312,-0.56396484375,0.001325404403105284,1.0142214766136002,0.91077812789,1.10542545975,0.0017508205919065044,982.2206676718271,982.19145026899,982.27146004329,0.00035753988899045946,0.0003230267690983399,Null
-0.6320703124958998,-0.67517089843,-0.60290527343,0.0002490263033326976,0.3281652831991,0.27526855468,0.35424804687,0.00038902237407628535,-0.7289697265575,-0.74499511718,-0.62646484375,0.00018180141544442223,1.0194521551464002,0.93660287848,1.03848156428,0.00013247498689014582,982.2252169878202,982.21408966383,982.27146004329,0.00014104689938222137,-0.0002898003138629813,Null
-0.6958239746049,-1.05529785156,-0.49267578125,0.02274388908582526,0.3623901367146999,0.2421875,0.47839355468,0.004452631178385225,-0.6200231933561,-0.81176757812,-0.0986328125,0.03205892439309946,1.0263172654204,0.8537514664,1.14715921533,0.0053152889255747805,982.2089305706634,982.16372484167,982.24028690259,0.00033584542091237996,-0.0001131458570512339,Null
-1.057446289059,-1.42663574218,-0.71496582031,0.032463112262317906,0.2502978515584,0.02429199218,0.4501953125,0.010146535502576633,-0.1509912109354,-0.42993164062,0.17395019531,0.03547870982693256,1.1165965722744002,0.74113849994,1.4558852754,0.03450462961512481,982.2150863542306,982.15274538793,982.32633839788,0.00222338798630917,0.00010072580597616203,Null
-0.9820764160121999,-1.74072265625,-0.26904296875,0.11337788841239096,0.34789672851119996,0.02014160156,1.00085449218,0.05997404951508841,-0.24916625976289994,-0.52111816406,0.06018066406,0.02194072533560784,1.0931272115242001,0.28220884802,2.04197520646,0.14646864128513792,982.1958102646021,982.0697245898,982.32051452651,0.0044154369785822925,-0.0007351718517625073,Null
-1.1045886230435,-1.31994628906,-0.48376464843,0.022944268341846926,0.301903076168,0.15026855468,0.52941894531,0.0113411650197676,-0.2881384277308,-0.59216308593,-0.00415039062,0.033267872879864484,1.1962303875520002,0.85666163984,1.4828594753,0.03050088906053506,982.1937724805096,982.13311779668,982.36367479991,0.003799742495147112,-0.0006026834158093566,Null
-0.9811242675747,-1.33129882812,-0.6630859375,0.021910444550616772,0.30638061523,0.13952636718,0.55541992187,0.013133212669535902,-0.20952514648230003,-0.50390625,0.02514648437,0.025449942535320513,1.0669971351714,0.68220422393,1.35436485808,0.022000478903701094,982.2026942576508,982.14098472157,982.26708023725,0.0012251611131404714,0.0002466902119484243,Null
-1.0034680175743,-1.20715332031,-0.82849121093,0.010150530752328874,0.2672973632786,0.08728027343,0.43896484375,0.005209336226740216,-0.18050781249720005,-0.38244628906,0.10925292968,0.021799096578835633,1.0680280516041,0.89785952013,1.21958183975,0.007154008073862737,982.2144597863605,982.17061179335,982.29151951495,0.0008118920604139008,0.0004010994608292858,Null
-0.49677001953039995,-1.3564453125,0.28991699218,0.3224839921575308,0.5501806640586,0.09936523437,1.01550292968,0.09110446038875326,0.13091064453100001,-0.29541015625,0.83361816406,0.14294952189475282,1.0374510821504999,0.65495943144,1.40201369734,0.04170167586149657,982.1655714779544,982.1221941884,982.22430559774,0.0009275473154784899,-0.0005923103200825569,Null
-1.0014904785124998,-1.38146972656,-0.0048828125,0.09402425641221346,0.3221166992151,0.15441894531,0.64965820312,0.010445978779803067,-0.1676184082012,-0.44958496093,0.39001464843,0.03717196127709039,1.1091199827442002,0.60158833534,1.42324016346,0.04537062183324097,982.208994358728,982.14428172057,982.34423627617,0.001730784583511067,-0.00027595562586717816,Null
-1.0369128417926001,-1.28356933593,-0.89514160156,0.014140863278499241,0.24962524413690002,0.16857910156,0.34753417968,0.0020204759171162027,-0.1473022460912,-0.38745117187,0.05163574218,0.01764430948519069,1.0842397326539999,0.91961423423,1.36359875105,0.017263383857266938,982.1994223678688,982.15395146403,982.23943232139,0.0007566380412724028,0.0002533136557263385,Null
-1.0436621093713,-1.26452636718,-0.85217285156,0.012072429777333535,0.2808105468705,0.17077636718,0.44262695312,0.003053709112038019,-0.1553344726539,-0.34313964843,0.12841796875,0.017678124584826416,1.1004956283960998,0.86913365564,1.31807635624,0.013736922107505073,982.2026258342905,982.15549920598,982.25234487307,0.0006274362297910437,-2.4019846993830414e-05,Null
-1.0626745605439998,-1.34887695312,-0.83740234375,0.020058526913088605,0.26665771483999995,0.1337890625,0.38818359375,0.004623931893183918,-0.1601513671851,-0.37072753906,0.03747558593,0.019466044902055408,1.1159492851146,0.84804361695,1.40284531424,0.02464265721760323,982.198810371137,982.15471483153,982.22888485714,0.0005712232663286315,-0.00028248941744425914,Null
-1.1134497070284,-1.42785644531,-0.81518554687,0.02336162352208064,0.28226440429390004,0.06323242187,0.45422363281,0.007496933050546972,-0.15296508788809998,-0.47607421875,0.13049316406,0.032761883883901964,1.1746926121556003,0.84151262763,1.45575314935,0.02618511628593363,982.1913711748689,982.12426081148,982.2892501456,0.0014080484346984637,-0.0001739501875626,Null
-1.0747680664019,-1.38916015625,-0.72741699218,0.030576000761771544,0.24747680663609997,0.02282714843,0.37182617187,0.0065086192119076,-0.1932080078095,-0.43017578125,0.07214355468,0.02042484437535756,1.1294414335744998,0.73568856672,1.41785283836,0.03535042272435071,982.1944258973782,982.14424289123,982.23269373969,0.0006954211961539603,-0.0002044660827734964,Null
-1.0149499511684,-1.26062011718,-0.67858886718,0.029095400299560464,0.29667724609010004,0.17907714843,0.58911132812,0.009660485651803233,-0.13185302734290003,-0.53479003906,0.1328125,0.03130680112415991,1.0843549685606,0.76956796316,1.3727415676,0.02935593425073828,982.1857001025301,982.10591863176,982.26658463119,0.0018499495938474801,0.00040971984236931114,Null
-1.1040405273403,-1.39624023437,-0.86840820312,0.02685614592504429,0.1962792968714,-0.32946777343,0.38891601562,0.0245684721485977,-0.16907104491980005,-0.53479003906,0.09338378906,0.031538916192321444,1.1556941679263,0.8906496697,1.43657792102,0.03284945026384415,982.2036558675331,982.12256542541,982.32667801307,0.0026721237751263127,0.0003294535419216665,Null
-1.0902136230426998,-1.31335449218,-0.83654785156,0.01838039522665579,0.24816528319930004,0.06274414062,0.41613769531,0.008097254704786535,-0.1599060058566,-0.42980957031,0.033203125,0.019452191174045848,1.1384996319358,0.85288112808,1.41371680612,0.0252634476169351,982.1809253166507,982.1416308552,982.27916257551,0.0011511986321554894,-0.00011988339258412052,Null
-1.0321911621062,-1.23254394531,-0.86645507812,0.009385873059649136,0.26014404296620003,0.16259765625,0.41467285156,0.00499425376915119,-0.17082397460510002,-0.3603515625,0.01416015625,0.010078399438760427,1.0833986762282002,0.89391423063,1.32090807917,0.01286424027089192,982.1900120568484,982.15558203069,982.23656397934,0.0003658632661237238,-6.059892740561148e-05,Null
-1.072940673824,-1.32604980468,-0.89367675781,0.018999101674351353,0.264671630856,0.16259765625,0.39892578125,0.004156576772894117,-0.16040039062159997,-0.38818359375,0.01416015625,0.01148677715145348,1.1212083389349998,0.92512511489,1.41275838391,0.024413069478564465,982.1973595728691,982.15783428245,982.23431459237,0.0003559641820382828,3.519507604712946e-05,Null
-1.0308837890595002,-1.27209472656,-0.85607910156,0.015570474995274414,0.23981201171519997,-0.00305175781,0.38000488281,0.008116298679147815,-0.1571447753883,-0.36889648437,0.03771972656,0.014769265463222846,1.0785582501459,0.87823998523,1.33417615168,0.01990833103883859,982.2024471186569,982.15783428245,982.28636204622,0.0011912236610754285,5.060230262529026e-06,Null
-1.0358874511682001,-1.27209472656,-0.88342285156,0.013467283711145882,0.24415893554399998,0.18017578125,0.34033203125,0.001851623520400182,-0.17494140624720003,-0.37463378906,0.04223632812,0.02041090536532755,1.0868549380629,0.90812648326,1.34837499608,0.017575506052563417,982.1955560954613,982.11428710834,982.29708916484,0.0022975842550041732,0.00013065448635805852,Null
-0.8696057128872999,-1.24035644531,-0.22351074218,0.0977376292136898,0.39771118163809993,0.20056152343,0.85998535156,0.029226104832328067,0.0415112304688,-0.349609375,0.89294433593,0.1329875569786027,1.0749968643608,0.82040297599,1.31969688667,0.018025234210876578,982.1850888248504,982.14984828151,982.25203167258,0.0006014291183830389,0.00010322095737344967,Null
-0.4748925781209,-0.81457519531,-0.19909667968,0.044994524296146095,0.6514453124959,0.48559570312,0.81921386718,0.012729480266545504,0.547387695308,0.18481445312,0.89294433593,0.05081756909677758,1.0226337656251,0.81370734413,1.21693316166,0.011326852759097015,982.2052495455569,982.16098450722,982.26170182737,0.0009064912000322714,0.00029918366806429075,Null
-0.5811364746062,-0.79125976562,-0.38818359375,0.013185374981946277,0.8071911621061999,0.4755859375,1.09985351562,0.03012702967597133,0.32252197265159993,0.15148925781,0.517578125,0.009631955111796752,1.0541167624407999,0.74312454098,1.32136433366,0.03489935803791914,982.1902570203351,982.16776501299,982.23766530452,0.0003644626455197094,0.0002590297518419844,Null
-0.6320947265586999,-0.79125976562,-0.47302246093,0.010209085748762703,0.767938232418,0.55700683593,1.03979492187,0.020893372783656536,0.24628906249669996,0.07458496093,0.37036132812,0.007154193189432394,1.0307431761097001,0.77421472011,1.32185186,0.025630065220199432,982.1762947819493,982.1423651092,982.20878918296,0.0003603657995527199,4.638455601750725e-05,Null
-0.5683007812462,-0.74377441406,-0.41687011718,0.006664413538883037,0.7853881835894999,0.60461425781,1.07775878906,0.01699414382673542,0.29144042968359996,0.15832519531,0.43774414062,0.006100848612155804,1.0170357379199002,0.80918564993,1.28994219847,0.020038404701884966,982.1845558814274,982.16507803025,982.20699710399,0.00015027805625504535,-6.822115670126134e-05,Null
-0.6001245117151999,-0.87670898437,-0.35021972656,0.019583620681833506,0.7791735839804999,0.56518554687,1.14562988281,0.021357145422416658,0.32250488280929995,0.15185546875,0.44580078125,0.005700080057583728,1.0424289083901,0.77627818239,1.37328059349,0.031097688510289,982.1833609519756,982.15605038461,982.21329990176,0.00018834924769312527,-0.00020096081478063118,Null
-0.5733972167940999,-0.96813964843,-0.39013671875,0.018967084768631286,0.8481750488241002,0.59948730468,1.25561523437,0.03837641031271725,0.318150634763,0.09619140625,0.46923828125,0.01033538107169817,1.0817147935133997,0.79332605777,1.58843217743,0.04676798076959043,982.1852803384854,982.16781415619,982.19997709854,0.00013435771892199435,-5.727219190866518e-05,Null
-0.5795849609337,-0.79809570312,-0.39086914062,0.012914750286887008,0.7650598144495998,0.57666015625,1.001953125,0.015385132442401764,0.3621716308565999,0.18957519531,0.529296875,0.009913226599340106,1.0334555597031,0.81107925028,1.2683002901,0.02242840523371377,982.1891234625624,982.16255910415,982.23975058536,0.0002758584957530593,0.000268436718092881,Null
-0.5354101562462,-0.7939453125,-0.36096191406,0.012706793823760701,0.7832629394492998,0.60791015625,1.02282714843,0.012789627968026742,0.30443481445,0.16577148437,0.48937988281,0.005238723350008409,1.0041309515585,0.83482681892,1.22941200655,0.015145706858003097,982.1894854873062,982.15693873785,982.23975058536,0.0004290867022597604,-0.0003688708064302617,Null
-0.47161865234049993,-0.65441894531,-0.32067871093,0.010288705579174466,0.7128869628869999,0.431640625,1.08923339843,0.03213503458673747,0.5523669433560999,0.32861328125,0.91198730468,0.02903859798808214,1.0401815973866,0.77650414944,1.26107519525,0.024758762054754777,982.1814534979366,982.08875063385,982.25055545981,0.001018512327813175,-5.635745075628434e-05,Null
-0.48423461913699994,-0.64270019531,-0.35852050781,0.006111188180228876,0.686162109371,0.54309082031,0.84826660156,0.010338700757012575,0.5694921874971,0.35021972656,0.75634765625,0.01095364915003799,1.0194401843910001,0.77650414944,1.24747152304,0.01767088028721856,982.1759190864744,982.1482852921,982.20342438091,0.00013093182687616746,0.00011869154903351609,Null
-0.5197045898408998,-0.72473144531,-0.36437988281,0.008111078685121587,0.7003991699175998,0.48767089843,0.9814453125,0.017538829299873448,0.4892053222624,0.39208984375,0.64306640625,0.004574354024514422,1.0056767264832,0.8099892502,1.26671583943,0.01869701661988189,982.1730046131975,982.16105321133,982.1896936714,6.939946956395314e-05,0.0001026108809408264,Null
-0.4160864257768999,-0.56359863281,-0.11267089843,0.014923688492404176,0.7869689941368,0.59741210937,0.96997070312,0.007119475101777773,0.46859863280919994,0.33251953125,0.64306640625,0.008530956663036837,1.0152657232654,0.84348523436,1.25892945565,0.011653212463283996,982.1860315235579,982.1611053112,982.20418069446,0.00019501831494054896,1.286580747367443e-05,Null
-0.4771057128868,-0.58337402343,-0.35168457031,0.005961174427531324,0.7948425292921999,0.62377929687,1.00427246093,0.011489440207068415,0.4679821777305,0.33276367187,0.63330078125,0.007509208476632547,1.0418272597809999,0.84348523436,1.27571639826,0.017896981794577577,982.1832551108846,982.15434996322,982.2026800668,0.0001624664150073934,5.2336637240913935e-05,Null
-0.4882373046855,-0.64025878906,-0.3447265625,0.0066329076795973215,0.7577038574184001,0.61767578125,0.94177246093,0.006582501227934663,0.47718261718419996,0.34838867187,0.60559082031,0.0058535926510547035,1.0247394547989002,0.84767925213,1.19191532202,0.009072134037654606,982.1882762239896,982.17792229338,982.2012363279,6.179422072211647e-05,0.00011882871090663547,Null
-0.5484594726515999,-0.71655273437,-0.35571289062,0.008396686923662406,0.7253149414032998,0.59899902343,0.84912109375,0.0040356304850945835,0.4531103515588,0.27160644531,0.66455078125,0.017456441600029245,1.0290584118622998,0.84767925213,1.14920506161,0.0028557620707710648,982.1911437342043,982.17968563073,982.21650293977,0.00012083838176839657,-3.41564664085624e-05,Null
-0.42525268554269985,-0.5166015625,-0.27026367187,0.005962326085627397,0.7566687011683,0.6669921875,0.87084960937,0.003207411325015351,0.5250292968712,0.37609863281,0.66296386718,0.007803022837328225,1.0221405287329999,0.96258903871,1.07776127775,0.0010857622549977294,982.1970536562606,982.17968563073,982.21154845815,7.921529399738158e-05,0.00017338784147309408,Null
-0.4361914062456998,-0.54724121093,-0.30114746093,0.004487036478690729,0.7860839843714998,0.71447753906,0.84741210937,0.001969537951744952,0.4637512206999,0.32690429687,0.55102539062,0.005866700764655877,1.0173700896999,0.98800613886,1.0653636293,0.00041849605842515103,982.209815298826,982.19871787142,982.21782220773,3.3057324624803125e-05,5.15293616196879e-05,Null
-0.4800524902309,-0.62475585937,-0.36108398437,0.005707809146810636,0.7645458984333999,0.70812988281,0.86267089843,0.0024415491566143754,0.4804223632774999,0.35693359375,0.52709960937,0.0017590928498910647,1.0270291343032003,0.95644397233,1.08084541369,0.0008151467292655803,982.2014197767386,982.19343230285,982.21815241426,3.237034549978105e-05,0.00010153423443485528,Null
-0.4557287597622999,-0.48876953125,-0.43481445312,0.0001739935005125952,0.7435803222621999,0.71887207031,0.76330566406,9.142422162920121e-05,0.5223364257775,0.48754882812,0.53967285156,0.000131106129801608,1.0167310873785005,0.99801136259,1.03443533787,8.706504931317895e-05,982.2026574144907,982.19585603626,982.20839759601,8.882589701173564e-06,2.0692700356975113e-05,Null
-0.43196044921539994,-0.47302246093,-0.39685058593,0.00026432636409284854,0.7443029785115999,0.71936035156,0.75329589843,7.472166358447148e-05,0.5441064453088,0.51647949218,0.56555175781,0.00016266013637453243,1.0183708472431003,1.00513690816,1.03032479542,4.6551420040452075e-05,982.204014358938,982.20046097128,982.20686527407,3.2868188747201255e-06,1.602707538989924e-05,Null
-0.45629272460629994,-0.49658203125,-0.3828125,0.0010620576489825794,0.7307678222607001,0.70251464843,0.76098632812,0.00023104276772183835,0.5207031249979,0.47412109375,0.55322265625,0.0004031399283698831,1.0074294037688998,0.97258652586,1.02280914877,0.00012290841246217872,982.2042190723155,982.20071079523,982.20776627717,4.898483499671623e-06,1.3026658045417424e-05,Null
-0.4777648925747999,-0.49279785156,-0.4677734375,4.8941245891069656e-05,0.7292333984334999,0.71020507812,0.74719238281,9.519141129041144e-05,0.5278491210894,0.50659179687,0.53881835937,6.939998179264484e-05,1.0192292108958,1.00753489078,1.03557483918,4.903997622099918e-05,982.2060544637991,982.20145429802,982.21217482614,6.711740710788121e-06,-2.5759498461737918e-05,Null
-0.47066406249629994,-0.49096679687,-0.45629882812,8.402475202648212e-05,0.7317578124962,0.71911621093,0.74755859375,3.5274004699664616e-05,0.5200451660126,0.51049804687,0.53063964843,2.7036514846519916e-05,1.0136773203935,1.00272070797,1.03402926437,4.4740005959519027e-05,982.2085962103943,982.20510389987,982.21251131638,4.303444493400287e-06,-1.3077648080435734e-05,Null
-0.46031127929229987,-0.49597167968,-0.43041992187,0.00032276025176265267,0.7450976562461,0.72033691406,0.77966308593,0.00017114983664842415,0.5149426269495998,0.46142578125,0.53515625,0.00044700987862941966,1.0163210079598002,0.97793577911,1.03652219799,0.0002485048346699113,982.2091863046965,982.20651384095,982.21318665882,5.2552594068641115e-06,-2.4977769960046887e-05,Null
-0.5411816406219999,-0.8017578125,-0.43872070312,0.010807101028226572,0.6936877441370999,0.55981445312,0.75732421875,0.002506285513055704,0.4807910156215,0.28625488281,0.58459472656,0.005896442321715122,1.0117157837578001,0.95404472689,1.0656655013,0.0006961198846494164,982.2113712866885,982.19975215495,982.23394020975,8.241468049391872e-05,0.00010003842077748774,Null
-0.7259631347618,-0.80920410156,-0.63549804687,0.0029230759285075645,0.6928625488240999,0.55847167968,0.80090332031,0.006176432652678257,0.20359252929380006,0.07287597656,0.3095703125,0.004185906279877287,1.0300479809137,0.98107445385,1.08112607201,0.0006915356668160353,982.2218249104089,982.20533556402,982.26459460126,0.00015937460001082276,-0.00026681180103239465,Null
-0.5413159179638999,-0.63854980468,-0.43725585937,0.0038213776277546013,0.7543273925734999,0.67016601562,0.85327148437,0.0021353702276412576,0.3872644042931998,0.22399902343,0.52807617187,0.006320044384806037,1.0113644502736,0.93746459417,1.0644782737,0.0013155859642711009,982.2142420121318,982.19586250657,982.24259127367,0.00014883667649499382,8.295135576005457e-05,Null
-0.4642163085892,-0.625,-0.35461425781,0.005327439374447774,0.8272937011688001,0.76831054687,0.92224121093,0.00228139176955979,0.3903417968717999,0.20703125,0.58227539062,0.015005053558505335,1.0363089742411,1.00273320577,1.09715931052,0.0007371952553645303,982.2149522674259,982.20212494836,982.23069888853,5.865094023900853e-05,9.894559800713452e-05,Null
-0.5026293945272,-0.57739257812,-0.42114257812,0.002131590764913793,0.8071899414033001,0.72485351562,0.87707519531,0.0015425090536264035,0.360749511715,0.24523925781,0.51403808593,0.006855863097824786,1.0212647774305,0.94150236438,1.12567249701,0.0017929672882892036,982.2132673194418,982.19962532026,982.22136257509,3.053383569484444e-05,-1.5151285603147224e-05,Null
-0.5849609374957,-0.83312988281,-0.45861816406,0.010283663417324253,0.7765808105429,0.60119628906,0.99084472656,0.007750699729305705,0.33439331054349997,0.23254394531,0.49145507812,0.0048840977250781455,1.0346242754711996,0.88132923561,1.20610527519,0.009411944148043099,982.2058937293149,982.19409010032,982.2168739155,4.1503718462254044e-05,-2.5577723099115676e-05,Lift Down
-0.5840783691365999,-0.74169921875,-0.46850585937,0.006139646833404326,0.7834606933551999,0.60119628906,0.97912597656,0.00528243211032001,0.32489135741829983,0.09020996093,0.56579589843,0.01605972963600794,1.0422017126426002,0.97868511688,1.12131871481,0.0015506809222866373,982.2131660552018,982.19744437284,982.23019989198,8.810986758404849e-05,0.000290718231590173,Lift Down
-0.6868359374957999,-0.83459472656,-0.53723144531,0.004277484681875679,0.7189416503867,0.55456542968,0.82397460937,0.005693368314153665,0.13551025390250002,-0.0263671875,0.35620117187,0.011086263289269026,1.0101568846441,0.8572741492,1.14411418724,0.007488226405983495,982.217875541135,982.18449464384,982.2468579621,0.0001743573074917638,0.00018371031352946833,Lift Down
-0.7394885253868,-0.78845214843,-0.64807128906,0.0014280658463022254,0.7054003906213999,0.638671875,0.77575683593,0.0011623566559972537,0.0309924316374,-0.0126953125,0.099609375,0.0009236774947444393,1.0233908801020002,0.93168017065,1.08973847841,0.0015591783921811635,982.2177565487435,982.20878251307,982.22355442092,1.7205396448530036e-05,8.40344932129275e-05,Lift Down
-0.7335937499964998,-0.74682617187,-0.72290039062,1.9479881629638666e-05,0.7132397460896999,0.70239257812,0.72534179687,3.637238584393014e-05,-0.006770019527,-0.01940917968,0.0087890625,4.590684113452457e-05,1.0232304652102002,1.01667365442,1.03083362988,1.6884023816861572e-05,982.2221703506534,982.21866531191,982.22576886225,4.689602479530262e-06,-1.2995093469735592e-05,Lift Down
-0.7396203613244,-0.75231933593,-0.72705078125,3.238954176332666e-05,0.7101367187461,0.70397949218,0.72375488281,2.125246356843977e-05,-0.010975341793999999,-0.01647949218,-0.00402832031,1.1056690203435264e-05,1.0254156715379998,1.01206087344,1.03957338608,4.0049090083256856e-05,982.2228998393283,982.21707584692,982.22788938588,6.313926166154415e-06,2.488279625421008e-05,Lift Down
-0.7232409667931999,-0.76208496093,-0.60766601562,0.0011606220329307294,0.735593261715,0.70397949218,0.80554199218,0.0010652728694889849,-0.0156896972614,-0.03601074218,0.03540039062,0.00020176185948419406,1.0325918258640001,0.99138874281,1.09488401888,0.0005844552338272764,982.2255946983435,982.22034875447,982.24239711316,3.0737240172540656e-05,5.3221894859380305e-05,Lift Down
-0.6947717285112001,-0.73364257812,-0.60510253906,0.0012840406626806935,0.7681506347620001,0.64184570312,0.93896484375,0.003524528818671221,-0.0376477050759,-0.39245605468,0.03955078125,0.00929133551700928,1.0418429489151,0.92588651839,1.24197357662,0.002729977641929178,982.2186181513612,982.19532056256,982.226733163,4.312013500812606e-05,3.253778796442084e-05,Lift Down
-0.7250610351518,-0.73205566406,-0.72045898437,7.4504300820589945e-06,0.7285302734339,0.71496582031,0.73974609375,4.736199523557894e-05,-0.0087341308558,-0.02136230468,0.00170898437,3.850230512863946e-05,1.0278968633451,1.01821696313,1.03477347872,2.1685963350479954e-05,982.228770308932,982.22420587965,982.23390409612,6.932023343538877e-06,6.0487127440732e-05,Lift Down
-0.7242675781208,-0.73413085937,-0.71423339843,3.151700953895399e-05,0.7290954589808,0.71899414062,0.74426269531,3.806249510400715e-05,-0.013958740230099999,-0.021484375,-0.00463867187,1.657953617222472e-05,1.0278187796173002,1.02167264177,1.03417875093,1.2538555418267718e-05,982.2304172244072,982.22684611214,982.23351804598,3.343422186923247e-06,-1.1184336403173001e-05,Lift Down
-0.6987792968711,-0.7275390625,-0.67810058593,0.00032164532733238387,0.7030578613246,0.67358398437,0.74572753906,0.0004457221413482194,-0.0070446777308999994,-0.01586914062,0.00366210937,1.9846027238248975e-05,0.9913081814057,0.95625799431,1.03893923924,0.0007271923528085336,982.2320571795467,982.22591867588,982.25933357646,5.240062865308943e-05,0.000158810038689381,Lift Down
-0.7127624511688998,-0.73107910156,-0.67712402343,0.0003524571280873674,0.7141064453091,0.68725585937,0.73229980468,0.00020404172665061597,-0.0062475585925,-0.01708984375,0.00341796875,3.660398899616588e-05,1.0089982917905003,0.96540564418,1.03485262754,0.0005323010060941702,982.345550476812,982.25913463921,982.44757348516,0.0032505535007247895,0.0019559997933271287,Lift Down
-0.7261425781227999,-0.73327636718,-0.7177734375,1.5833257421907547e-05,0.7277026367153,0.7119140625,0.73474121093,2.164498122180311e-05,-0.0075341796850999995,-0.02014160156,0.00512695312,4.852422557296058e-05,1.0280853173678999,1.0142618862,1.03609468639,1.6826019829443986e-05,982.5575760047957,982.44757348516,982.6609867512,0.004138517678969145,0.0022099927995183483,Lift Down
-0.7263769531212998,-0.73168945312,-0.71997070312,6.326063717133741e-06,0.7319421386682998,0.72570800781,0.74047851562,1.628388509077521e-05,-0.0055261230448,-0.01916503906,0.00256347656,3.639942917060796e-05,1.0312343320423003,1.02648154945,1.03783095665,7.557699114743629e-06,982.7757650704146,982.6609867512,982.88578318605,0.004134434150576909,0.002207612481483652,Lift Down
-0.7200439453079,-0.73156738281,-0.70288085937,8.445857752313416e-05,0.7326013183558999,0.72619628906,0.7490234375,2.8286454353990378e-05,-0.0087060546848,-0.01818847656,0.00659179687,4.3661570283884746e-05,1.0272401757017002,1.01346438274,1.03356146412,2.2547200299970077e-05,982.9958364820294,982.88578318605,983.10153206242,0.003953757602855224,0.002161029416967076,Lift Down
-0.7177050781219999,-0.72900390625,-0.68322753906,8.295531224789892e-05,0.7328808593707998,0.70764160156,0.75720214843,9.569770156636974e-05,-0.0161376953096,-0.02807617187,0.00256347656,5.88219575077632e-05,1.0260022298416005,1.01510059316,1.03920397835,3.01848371226888e-05,983.2139244521672,983.10153206242,983.32254025109,0.004030500241372666,0.002180883963692448,Lift Down
-0.7023291015587999,-0.73278808593,-0.66235351562,0.0002489428568332436,0.7454394531207998,0.68981933593,0.79296875,0.0005746620833543659,-0.018623046872,-0.056640625,0.02307128906,0.00036837004648510984,1.0248139306976,0.99798689062,1.05132574559,0.0002317431567761089,983.429516222377,983.32254025109,983.53474534319,0.0037955885369525444,0.002116772491963828,Lift Down
-0.7371386718711999,-0.79357910156,-0.6806640625,0.0009915779094870905,0.7072753906215999,0.66284179687,0.736328125,0.0005605678366333255,-0.035883789058400006,-0.07482910156,0.00817871093,0.00048523657246656905,1.0228128662079998,0.96027179081,1.07244519257,0.0007781770497340227,983.6498219815453,983.53474534319,983.74971662607,0.003545945130623025,0.00202465298648508,Lift Down
-0.7474698153370707,-0.77697753906,-0.71862792968,0.00012470928327655743,0.7017329052198988,0.68176269531,0.73596191406,0.00016739232175407224,-0.03249659682434343,-0.05554199218,-0.02014160156,8.415180586736655e-05,1.025922796112626,1.01185073138,1.04204193825,5.161456039491303e-05,983.8666396003157,983.74971662607,983.97408920347,0.00427296804999381,0.002268081655712822,Lift Down
-0.7392819848345544,-0.74963378906,-0.70092773437,0.00011510909193967283,0.6772448851300988,0.54138183593,0.77014160156,0.0023614953444816276,0.03314994585188119,-0.01843261718,0.07507324218,0.0006341667221368545,1.0041340374332675,0.91785938341,1.07217399191,0.001103134886973499,984.090752622367,983.97408920347,984.19274666137,0.003916602476747854,0.00212388333839198,Lift Down
-0.7442395019495999,-0.75769042968,-0.72802734375,5.204469717672381e-05,0.6996350097621999,0.68188476562,0.72265625,0.0001143009659669513,0.0363256835901,0.01086425781,0.05822753906,0.00031930484558046385,1.0223173070892,1.00597642384,1.04041552826,4.975360222945072e-05,984.3152115014207,984.19274666137,984.41668608656,0.004381638617457404,0.0022726132864053596,Lift Down
-0.6335095214810998,-0.74584960937,-0.46435546875,0.0046342136567042135,0.7999658203093,0.72265625,0.85900878906,0.0011475702970059171,0.039342041014099986,-0.05493164062,0.21020507812,0.005277170464767072,1.0244210052170997,0.89935753196,1.07943226161,0.0021882800807916194,984.5414149876211,984.41668608656,984.6284241554,0.003667630501760172,0.0018132105602599328,Lift Down
-0.6534863281212,-0.68103027343,-0.63439941406,0.00014699213430648478,0.7883154296836,0.64685058593,0.92333984375,0.003008175763271344,0.0064746093764,-0.07592773437,0.13928222656,0.0023104078598549078,1.0259363179191998,0.94003726619,1.12890151131,0.0014071816768439292,984.7526359076165,984.6284241554,984.86575818285,0.004532544645939917,0.0023053833848502106,Lift Down
-0.6514892578091999,-0.67419433593,-0.63891601562,9.176586611897789e-05,0.8024511718712,0.77575683593,0.84240722656,0.00020142723818425558,0.05267578124599998,0.03002929687,0.09020996093,0.00011423515549678424,1.0350556817011998,1.01014230958,1.06452257122,0.00020602420563083315,984.965965871637,984.86575818285,985.08191407937,0.004346174787911907,0.002264586514318788,Lift Down
-0.6706787109332,-0.68835449218,-0.64587402343,0.00011689494354205134,0.8227783203083999,0.78955078125,0.84448242187,0.00020514835010557728,0.05773925780959999,0.04296875,0.07373046875,5.1866878172693724e-05,1.0631029268988,1.02183720638,1.09124369246,0.0002931893454972146,985.1605349395248,985.08191407937,985.21018204129,0.0015174337231878862,0.0012998854374073497,Lift Down
-0.6471777343703998,-0.65563964843,-0.63098144531,3.6506604666939904e-05,0.7934667968715999,0.78002929687,0.80212402343,3.449955371502426e-05,0.06389648437159998,0.05456542968,0.07006835937,1.554908174858842e-05,1.0259388058675998,1.0066416911,1.03377571897,4.706527376249647e-05,985.2159654778181,985.20766086417,985.22665914006,3.118152509025371e-05,0.00016226754996950782,Lift Down
-0.6486669921839998,-0.66955566406,-0.63391113281,6.523797006527187e-05,0.7940087890583999,0.78356933593,0.80456542968,3.059237894677536e-05,0.06256835937199999,0.05517578125,0.06970214843,1.6755624241827457e-05,1.0272239036360002,1.01814370719,1.04558524349,5.670238103223193e-05,985.2289082853898,985.22302216621,985.23786075905,1.0131354107244595e-05,6.920227886934157e-05,Lift Down
-0.6470019531215999,-0.65930175781,-0.63342285156,5.9230496182335074e-05,0.7901855468715999,0.77966308593,0.80529785156,4.03481300420415e-05,0.05808593749640001,0.04345703125,0.06896972656,4.930409517953559e-05,1.0229876867524,1.01487989236,1.03212414163,2.2513746493409157e-05,985.2343933901554,985.22891903642,985.23995437258,8.126581288579218e-06,-6.039022842990744e-06,Lift Down
-0.6450781249967998,-0.72448730468,-0.59814453125,0.0010800387160362999,0.7839404296844,0.70764160156,0.81555175781,0.0005782884540316802,0.10171386718240001,0.02209472656,0.23620605468,0.005798428082795194,1.0237892025019997,0.99312752025,1.05933366936,0.0002746989505247512,985.2379552200498,985.22433547123,985.26223387552,9.516042679771488e-05,-1.3793300923261402e-05,Lift Down
-0.7237011718715999,-0.86596679687,-0.62915039062,0.0027773369201276443,0.6872070312459999,0.53198242187,0.79113769531,0.0025539506565305154,0.21231933593479999,0.12890625,0.30432128906,0.0028983483651548094,1.0232348419671997,0.93523071935,1.163652399,0.0022365536791751467,985.2300721235565,985.21523146231,985.24677634602,4.483016460629945e-05,-4.109372306296731e-05,Lift Down
-0.40917968749519984,-0.60791015625,-0.26306152343,0.009751912319304766,0.8145898437459997,0.60998535156,0.95690917968,0.00784371034044512,0.43501953124639997,0.21545410156,0.56616210937,0.006066753069588203,1.0165797719343999,0.79085626763,1.1839516857,0.010321153565402941,985.217968032942,985.20355942328,985.23955382414,0.00011313742692979089,-8.277761097754922e-05,Null
-0.4537646484336,-0.59118652343,-0.37609863281,0.0037612111640025086,0.8342724609331998,0.68615722656,0.94946289062,0.0047071183330939384,0.3441894531219999,0.25415039062,0.49597167968,0.004183093706607999,1.0150082128136,0.93816737421,1.10410068497,0.00268940583353824,985.2199827867445,985.20596154763,985.24289433005,0.00014931647168488446,0.00010619770459382405,Null
-0.41124511718319995,-0.62341308593,-0.24133300781,0.011084604648664592,0.8292773437455999,0.70178222656,0.94946289062,0.005970208428146637,0.4103710937455998,0.23840332031,0.73693847656,0.019562410922790707,1.0287792109604001,0.90351446591,1.13027755317,0.0031235158552707087,985.2122804834028,985.19467543699,985.2352429504,0.00011722794362341787,-0.0002686063789442369,Null
-0.20956542968320005,-0.29077148437,-0.18017578125,0.0007406548779200126,0.9033349609336,0.87841796875,0.94104003906,0.00026944348305335287,0.4532763671827999,0.42883300781,0.50720214843,0.0002454257733862867,1.0326173389931996,1.0141041005,1.09258372251,0.00033897587448413684,985.21978252492,985.20805867088,985.24720556798,7.423144956395948e-05,0.00023154618460092302,Null
-0.324921874996,-0.51696777343,-0.24792480468,0.00483689317791564,0.8208154296847999,0.66540527343,0.90966796875,0.0036741812061022636,0.5141699218715998,0.38513183593,0.67785644531,0.007018631058601906,1.0281989623915997,0.95318926141,1.1200881728,0.0018830354990955114,985.2250911647606,985.19497344939,985.25701921167,0.00028668632472176844,-0.00011259528641743202,Null
-0.4358740234331999,-0.59057617187,-0.23815917968,0.007055403873172253,0.8239208984336,0.671875,1.00915527343,0.010056712506949422,0.3779248046851999,0.23388671875,0.49462890625,0.004114013103513284,1.0105486795912,0.86593251016,1.21170123842,0.011580003579616437,985.2036204524725,985.18547827484,985.22446247471,0.00012078290850124211,-8.79417092432964e-05,Null
-0.4893652343708,-0.79443359375,-0.28295898437,0.015704839301978298,0.7897753906211998,0.57641601562,0.94702148437,0.012086984701883706,0.41807128905799984,0.15368652343,0.68090820312,0.01748828175109367,1.0318138091240001,0.79727198492,1.26691833393,0.01837845553261263,985.2098216691957,985.19376541342,985.22807930775,7.607884989615543e-05,3.0495950860372074e-06,Stairs Up
-0.6246582031212001,-0.85668945312,-0.41955566406,0.014675685853588444,0.7890869140595999,0.62365722656,1.0703125,0.017331011367773385,0.22173828124640005,0.080078125,0.33923339843,0.006982201421964231,1.0381026708216003,0.78747462087,1.31338792239,0.023197725784658944,985.1607344412428,985.10302631739,985.19912651595,0.0007016070606132708,-0.0007824119311328353,Stairs Up
-0.6290820312459999,-0.87219238281,-0.40185546875,0.015050174106190231,0.7732275390583999,0.60095214843,1.02819824218,0.016132859894696885,0.22916015624640007,0.04943847656,0.40002441406,0.010914651456624125,1.0310770497952,0.7965067031,1.28252195397,0.02494568928844371,985.0899475441096,985.0501522513,985.1776805058,0.001028125316904152,-0.0009077515609034856,Stairs Up
-0.7067187499959999,-1.04724121093,-0.43334960937,0.02908096419435091,0.7453857421832,0.51916503906,1.00183105468,0.017071581849910818,0.107226562496,0.00695800781,0.25036621093,0.004580840919916721,1.0420613446076,0.7618032653,1.34943432921,0.03119498901170174,985.0164636939991,984.93431340437,985.09231399527,0.0017960163886084793,-0.0008789961116374864,Stairs Up
-0.7340087890583998,-0.99255371093,-0.40698242187,0.02065823415316552,0.7081103515575998,0.26025390625,1.01403808593,0.033314413108893964,0.11062011718559997,-0.03601074218,0.26965332031,0.007619967363986199,1.0360273987476,0.61275549542,1.3460284644,0.0404544446988698,984.9351491550747,984.87514301974,984.99437610372,0.0019072364800890146,-0.000899572632886335,Stairs Up
-0.7658935546824001,-1.09240722656,-0.48474121093,0.020177432985037245,0.6829736328079999,0.44116210937,0.93249511718,0.017189756691902747,0.09697265624559998,0.00305175781,0.18127441406,0.002501947711269916,1.0417449604996,0.79462457294,1.2635774297,0.01685606017058185,984.8453089692489,984.78950806223,984.91249855212,0.0009600637251341811,-0.0007549661464373145,Stairs Up
-0.8251171874971999,-1.16552734375,-0.53063964843,0.02664986268475524,0.5487402343712,0.33459472656,0.75927734375,0.013552307504821495,0.08688476562320002,-0.06799316406,0.27587890625,0.010523797622485094,1.0069189828360001,0.72784404122,1.34129573453,0.02607681874325852,984.7580649911941,984.70873113865,984.82560653542,0.0011881810951813057,-0.0003455944707262589,Stairs Up
-0.8085253906219999,-1.07214355468,-0.45324707031,0.029606256918469655,0.5854638671839999,0.36853027343,0.93701171875,0.01851436624623938,0.043334960935200006,-0.07775878906,0.14685058593,0.004953514445555852,1.0126880315532,0.73861749248,1.25914331486,0.025621730182154873,984.7032011579539,984.59875454906,984.82560653542,0.0029755636199834947,-0.0011074727897921125,Stairs Up
-0.4100292968743999,-0.99340820312,0.08239746093,0.13446454385141535,0.8643066406208001,0.47485351562,1.22998046875,0.03986125160969992,0.2138281249968,-0.10583496093,0.52038574218,0.022176429141086272,1.0612474547328,0.78058857575,1.34451665742,0.029458083367059667,984.606171249958,984.53510030168,984.76243410604,0.0028348045131830063,0.0001075638959793907,Null
-0.0034667968748,-0.13952636718,0.26599121093,0.006413458573170025,0.9941992187463998,0.65734863281,1.17944335937,0.016744398251678238,0.0244482421856,-0.65283203125,0.25378417968,0.05158123526833191,1.0215197505768001,0.66293727685,1.24206209449,0.01972820417697567,984.6296455675616,984.54434918164,984.74933877582,0.002918959003331877,-0.0002403979324997856,Null
0.10723144531200003,-0.16284179687,0.42687988281,0.03943249683061596,1.0082812499959999,0.86254882812,1.12158203125,0.003138570689178641,0.035747070312,-0.16198730468,0.25915527343,0.013032183116503542,1.038877513552,0.87331030538,1.15933864695,0.005240651471693029,984.5898244749883,984.54669613305,984.61776486393,0.0003813797722415032,0.00027146232287707364,Null
-0.0667285156216,-0.13757324218,-0.001953125,0.0017705708801989321,1.0497314453075999,0.97497558593,1.173828125,0.0033830741439045886,-0.0084033203136,-0.18359375,0.23779296875,0.01614380085045454,1.0602449750212002,0.99070981893,1.18189160542,0.0034590729439399714,984.6125764272152,984.58480158804,984.65287482932,0.0002558574625134346,0.0002656913675260787,Null
-0.080444335936,-0.2255859375,0.26123046875,0.010758782877631537,1.0613378906212,0.96166992187,1.41271972656,0.009520495925278472,0.03442871093560001,-0.22619628906,0.33618164062,0.018463671182428993,1.0785477657319997,1.01601945112,1.43745265758,0.009277760514053194,984.6096948493391,984.58338674792,984.63849549133,0.00020948529412207314,-0.00019275329581711342,Null
-0.49052734374759993,-0.83068847656,0.21069335937,0.051304801545161254,0.8669042968707998,0.58776855468,1.15710449218,0.028758157046051624,0.033266601562799994,-0.20690917968,0.28442382812,0.019934956616881102,1.0349439188360001,0.79675857778,1.30058811231,0.02134931575710976,984.6433834586735,984.59775917896,984.74679330064,0.0017861214173497254,-0.0001291199399180979,Null
-0.7124169921839999,-0.939453125,-0.47143554687,0.015269883136369112,0.711191406246,0.49719238281,0.99987792968,0.02123219788668263,-0.03008789062400001,-0.24792480468,0.26184082031,0.025480926782226094,1.0292896626327999,0.79638624162,1.27446276692,0.016325693291859494,984.6115283047978,984.51677232417,984.82641989822,0.005553118479480361,-0.00020068400035327954,Null
-0.7458544921843999,-1.18676757812,-0.6015625,0.023052039146240367,0.7003320312471999,0.41528320312,0.95922851562,0.022975962956888453,-0.0046777343748,-0.18481445312,0.15795898437,0.010166170283381513,1.0398544357576,0.77470944557,1.29957364706,0.021334082623793126,984.6063874185252,984.56676251996,984.68088582607,0.0007914637432291257,0.00022934779461600784,Null
-0.8545703124968,-1.11779785156,-0.62060546875,0.016885771751373395,0.5230908203084,0.2607421875,0.7919921875,0.017725906805344693,0.0191308593756,-0.11694335937,0.23779296875,0.009282929150295844,1.0150225034651998,0.8116961409,1.23891814065,0.017641812283699848,984.5769243786978,984.52601989438,984.62062323829,0.0007824304184900258,-1.8375018959039487e-05,Stairs Up
-0.8669873046827999,-1.25988769531,-0.59289550781,0.038661820575499176,0.5324560546831999,0.23461914062,0.89636230468,0.016867405621685625,0.011928710936,-0.13977050781,0.22875976562,0.0068322125343899375,1.0327634695704002,0.77978977113,1.42262254179,0.030763809152939508,984.4984651461599,984.4590888629,984.55728467927,0.0007656056779469344,-0.0004649791614273171,Stairs Up
-0.6982812499959999,-1.05578613281,-0.16943359375,0.06336584442770063,0.7805712890588,0.18469238281,1.33850097656,0.07491797158251055,0.1012695312468,-0.14758300781,0.27233886718,0.012125818415878318,1.0785921280008004,0.55638794099,1.60518346233,0.09362456450145314,984.4404923358376,984.33143796764,984.5440439689,0.003437370069831846,-0.0007239421407642707,Stairs Up
-0.7733789062456,-1.18054199218,-0.45825195312,0.039902761873307546,0.6618066406212,0.365234375,1.04565429687,0.029999953471743297,0.0020947265632,-0.07312011718,0.13732910156,0.003296324315409685,1.0315136915704002,0.59740771941,1.3819166881,0.04500394287292935,984.3388028205134,984.28444728612,984.43741661301,0.00125581172429355,-0.0005812442972671163,Stairs Up
-0.9578515624968,-1.18542480468,-0.77661132812,0.014865358092486786,0.44651367187159996,0.31457519531,0.63989257812,0.011078085176801322,-0.04217285156159999,-0.12841796875,0.12756347656,0.00650291866688941,1.0649146786344001,0.87799896883,1.28351440021,0.016880050403106143,984.2919443182004,984.22974929802,984.37597337773,0.0014620918564269968,-0.001120554162460937,Stairs Up
-1.0009228515588,-1.19763183593,-0.71826171875,0.020667533778247926,0.369687499996,0.20812988281,0.50915527343,0.007260915149162924,0.018081054686400005,-0.23889160156,0.19250488281,0.013911067017921263,1.0775310585216,0.81507528678,1.2819346134,0.01938410673882476,984.1996422629807,984.13227475416,984.27305812289,0.0013310602048472824,-0.0004309739902498541,Stairs Up
-0.9701831054649999,-1.17932128906,-0.72827148437,0.01437154701875576,0.3667041015594,0.21423339843,0.50366210937,0.008645362902023045,-0.058552246093500016,-0.28649902343,0.08752441406,0.010847357853981096,1.0478091424666,0.83228516621,1.26545124274,0.014926411933518702,984.14134902672,984.08594094138,984.18712058104,0.0008891557011637878,-0.0006713883299404782,Stairs Up
-0.8152246093711998,-1.25830078125,-0.54577636718,0.043270712814401716,0.5470410156212,0.23620605468,0.7939453125,0.030070631046702465,0.11923339843680003,-0.12121582031,0.46740722656,0.03879775938230738,1.0330262603128002,0.79769285157,1.29165272423,0.022157674259047765,984.0487833897845,983.99219128445,984.14237611584,0.0017959321793661717,-0.0011493605881308304,Null
-0.6562011718712,-1.35278320312,-0.00476074218,0.13709085276660277,0.7212158203096,0.36889648437,1.03857421875,0.04358809764929899,0.0272802734372,-0.25671386718,0.45056152343,0.0331329770991979,1.0682600647588,0.87114084227,1.44753847111,0.022212821242938323,984.0524525217488,984.00708548906,984.09645952411,0.00026167409668805734,5.10087959783544e-05,Null
-0.3092236328084001,-0.56677246093,-0.12524414062,0.008122902542453679,0.8677587890583999,0.78344726562,0.98596191406,0.00263175304489208,0.4615624999968,0.34411621093,0.58312988281,0.004226615115977101,1.0359052137408,0.91531352483,1.15148466382,0.003430665276764546,984.0638710177249,984.01172185366,984.13335211333,0.000904342160761829,0.0005716060750834842,Null
-0.3415527343711999,-0.40417480468,-0.30712890625,0.0007610272878859889,0.8995117187456,0.84301757812,0.93688964843,0.00040386662339575446,0.3551220703083998,0.23559570312,0.38928222656,0.0019242554963788665,1.0270062822612003,0.99557069247,1.05922168674,0.00020973883842598584,984.0602820104826,984.04514527113,984.07135826333,5.4295438247012316e-05,-0.00020645341075824949,Null
-0.32390624999719997,-0.46435546875,-0.15258789062,0.0030443199716812487,0.9018798828084,0.84948730468,0.97607421875,0.0005223100835807093,0.36199707030919986,0.28076171875,0.40148925781,0.0008459983690107824,1.026456944556,1.00800884167,1.05517744058,0.00010010487650337303,984.0511489103154,984.04225923573,984.09311254093,0.00011184683293163092,0.0002579141470521742,Null
-0.18444824218480002,-0.35180664062,0.00952148437,0.011934615144551915,0.9635839843712,0.73754882812,1.19775390625,0.013672296110045005,0.21900390624639995,-0.29956054687,0.341796875,0.016091849972218346,1.0186809762808,0.74551042251,1.22616217087,0.014190709202676626,984.040344504259,983.99957283214,984.14107503428,0.002075678732031387,-0.0007761281124760191,Null
-0.3659814453092,-0.52612304687,-0.15759277343,0.00929038611327992,0.9060498046835999,0.55029296875,1.11779785156,0.0177483966613734,0.1024072265584,-0.43359375,0.34313964843,0.028020013365368985,1.0017502462432004,0.62060792984,1.15854148361,0.01652581743503092,984.0540880553808,984.03895964322,984.07179854944,0.00012303790434409938,0.0002104335209523354,Null
-0.18120117187319998,-0.4716796875,0.10864257812,0.02487311700349745,0.9704492187456001,0.85522460937,1.10339355468,0.0037756687703361376,0.20874999999880003,-0.2431640625,0.61376953125,0.07620489707922683,1.0543971042175997,0.87506928339,1.26702004536,0.010337379792423327,984.0636915499771,984.03779291094,984.09065885046,0.0002258178233521772,0.0001262149435243286,Null
-0.5244238281211999,-1.28967285156,0.00817871093,0.18985990191892502,0.7345068359339999,0.1533203125,1.08679199218,0.08422748599335904,0.12401855468520001,-0.32263183593,0.40795898437,0.03649681201957967,1.056094474038,0.75504653556,1.42952749263,0.022266732608076805,984.068692239083,984.03353862504,984.11925114562,0.0007265135051627911,0.0006263811355636961,Null
-0.8926757812464001,-1.85278320312,-0.04235839843,0.18061890144554457,0.40137207030919997,0.10131835937,0.845703125,0.05277817114479002,-0.0539404296872,-0.39794921875,0.61608886718,0.10410458790933742,1.0809528464820002,0.2332312971,1.87381942855,0.12782499674853937,984.0635548488863,983.98630786459,984.14660383699,0.0017113953224458902,-0.00023831939902428038,Null
-1.0385302734344,-1.38073730468,-0.861328125,0.01846684094604109,0.313164062496,0.14050292968,0.66540527343,0.011668895326488186,-0.0194433593748,-0.61682128906,0.29809570312,0.05362965183910167,1.1136463158775998,0.92480317289,1.42103070564,0.019913657036706226,984.0500425333041,983.98853277137,984.15651902253,0.0024552608989943394,0.00035304935839519197,Null
-0.9925976562463998,-1.53991699218,-0.30480957031,0.07255017261292414,0.36823730468399984,0.05017089843,0.68859863281,0.01992442391158154,-0.021044921874,-0.24230957031,0.47497558593,0.03543035911671313,1.09185811608,0.4813168182,1.5813739777,0.056326736281650705,984.0463063448979,983.99707476695,984.1557706795,0.0007494494007759323,0.0002706112612315603,Null
-0.35938476562199995,-1.27185058593,0.04907226562,0.11366730978880613,0.7200927734336,0.27563476562,1.17272949218,0.05477107534539865,0.4009423828111999,-0.09069824218,1.01000976562,0.13203030176629146,1.0301451360419998,0.66256754278,1.39996712956,0.045162429462413,984.0281867627599,983.98745118232,984.06597397975,0.0003318507969311472,0.00014664432394168977,Null
-0.7027734374956001,-1.24304199218,-0.03112792968,0.21533259276178693,0.4089111328091999,0.01525878906,0.80859375,0.060205023697581975,0.16033203125079998,-0.31909179687,0.74194335937,0.12442935244913989,1.0333859997772001,0.8062121752,1.24661475981,0.015036216075345474,984.0592551073828,984.00998746777,984.22575491634,0.0025069861963142293,-0.00025925340258417393,Null
-0.6958056640600002,-1.42321777343,0.06921386718,0.19201769549305064,0.5373242187459999,0.16394042968,1.00317382812,0.08312538330021585,0.0788037109384,-0.24890136718,0.58349609375,0.07179761062781378,1.0462893645104,0.76593974514,1.44361234107,0.028103748775447832,984.0319198891285,983.97339232256,984.12993739181,0.0012785468133553707,-0.0006461502243451568,Null
-0.37985839843399993,-1.20629882812,0.05029296875,0.18829475990419195,0.6633935546836,0.01416015625,0.93493652343,0.08014312671891011,0.3690039062480001,-0.11511230468,0.79284667968,0.09306010852939456,1.0338901328608001,0.88155690929,1.22992418742,0.009597477232340614,984.0712380407381,984.02888514364,984.18700788771,0.0024766711408095664,0.0009964603717363238,Null
-1.0428076171836,-1.31140136718,-0.8515625,0.01805258004337547,0.1971728515588,-0.02099609375,0.3193359375,0.004798722122506187,-0.18143554687200006,-0.37524414062,-0.0380859375,0.009133540885494213,1.0828247549340002,0.8795964392,1.34688323144,0.01858511337422954,984.047419046805,983.99938742231,984.11068136094,0.0006437255527775329,0.00020468701971218227,Null
-0.24887207031020003,-0.927734375,-0.00854492187,0.042551062661119216,0.8982482910128,0.5205078125,1.05139160156,0.024977352093719308,-0.27086181640289997,-0.58996582031,-0.033203125,0.03210134382813207,1.0181545456781997,0.8650263758,1.12072676789,0.004756095749680268,984.0195504485123,983.99570745332,984.06556472712,0.0002887814569856155,-9.491477536460383e-05,Lift Up
-0.03563110351470001,-0.43872070312,0.23498535156,0.036818008197539165,1.0009204101522,0.87023925781,1.09838867187,0.003508796420975138,0.11572509765480003,-0.23181152343,0.37756347656,0.044281615745958784,1.0482944465183,0.97461174484,1.15568702111,0.0013582129118717599,984.0249449591782,984.0065601327,984.11749232072,0.00044255611141002577,-3.811829485703029e-05,Lift Up
0.1775976562456,0.04125976562,0.38842773437,0.010908852105085244,0.9631982421836,0.82287597656,1.0625,0.0028658805712274186,0.10852539062559999,-0.19226074218,0.57263183593,0.08570436212560004,1.0324794069796002,0.9443407739,1.17297212106,0.0035758784623568752,984.0398088445505,984.02460134652,984.06945340903,0.00018307174253227588,-0.00010006237009659351,Lift Up
0.2637597656208,0.185546875,0.29626464843,0.0007334050746631661,0.9688183593703998,0.93896484375,1.00964355468,0.00027673302272018926,-0.23811523437120002,-0.40112304687,-0.13171386718,0.005503868671447319,1.0348229071792001,1.00432422857,1.10213767247,0.0004722320568386311,984.0297446617427,984.01636938858,984.04879008671,7.30587325984993e-05,-0.0001327802363844196,Lift Up
0.2605517578084,0.23986816406,0.28723144531,0.0002154269363211964,0.9642822265591999,0.92211914062,0.98120117187,0.00023594649150519362,-0.24750488280760002,-0.32946777343,-0.21520996093,0.0008738860698280025,1.0296652374047996,1.00868647036,1.04789275188,8.848863822234383e-05,984.0294363069917,984.01676509919,984.04846688682,7.089949794548281e-05,-9.043066009577875e-05,Lift Up
0.2655615234344,0.25451660156,0.27197265625,2.501603329636403e-05,0.9693994140588,0.94689941406,0.98706054687,9.165595275491338e-05,-0.22543945312199995,-0.25378417968,-0.20385742187,0.00032986414554068516,1.03027888326,1.01708593198,1.04744079587,4.9077990350927274e-05,984.0317773262342,984.02394270985,984.03988313053,2.2367782566455093e-05,-8.082692298475972e-05,Lift Up
0.2743994140588001,0.26208496093,0.28784179687,2.8162676881968125e-05,0.9704736328095999,0.96240234375,0.982421875,2.8389054111339953e-05,-0.20646484374599997,-0.22204589843,-0.18969726562,8.18364307195589e-05,1.0294955208927998,1.02257802414,1.03852581562,1.799884517384309e-05,984.0326703450479,984.0279485785,984.03856465336,9.18858431761416e-06,-2.90764673505389e-05,Lift Up
0.2864953613247,0.27844238281,0.30261230468,4.5431218660258356e-05,0.9618383789031,0.95092773437,0.97668457031,2.9195673538013063e-05,-0.2040588378872,-0.22119140625,-0.17626953125,9.471701099976158e-05,1.0243020008361,1.01552203463,1.03788626213,2.7115630776370417e-05,984.0303507915646,984.02676400545,984.03464821432,6.1043030010247295e-06,-3.3819710524342666e-05,Lift Up
-0.024866943361100003,-0.63391113281,0.31945800781,0.11110625462350693,0.8793981933545,0.48754882812,1.09436035156,0.019955611426268054,-0.4679370117155999,-0.78540039062,-0.20092773437,0.027897149691717648,1.0644448462962999,0.80067686935,1.39004695858,0.017425443495679295,984.0631208372159,984.01448210006,984.15523747998,0.0016440378746074907,0.00038362805647155953,Lift Up
-0.5194775390579999,-0.55212402343,-0.49035644531,0.00027865843336556976,0.8194458007771002,0.7626953125,0.916015625,0.0012190593312454802,-0.39762573241739985,-0.44775390625,-0.37927246093,0.000392749265892399,1.0490318044445004,1.00571113901,1.13494735024,0.0008670633372613843,983.9559931128293,983.87307640816,984.01393753998,0.002308728911686385,-0.0016219082943010146,Lift Up
-0.5493188476522998,-0.57153320312,-0.52685546875,0.00013495574695601435,0.7836364746057999,0.76977539062,0.80029296875,5.538426716563538e-05,-0.3731127929649999,-0.38024902343,-0.36022949218,2.1075184901520704e-05,1.0272477250346999,1.01949033253,1.03583551828,2.211055933167176e-05,983.7585413894241,983.65986861215,983.86339532391,0.004009347385853836,-0.002176293778336391,Lift Up
-0.5470812988247998,-0.580078125,-0.53308105468,0.00013017585032098103,0.7840734863254,0.76965332031,0.79907226562,3.123212793664825e-05,-0.3783496093717,-0.38586425781,-0.37145996093,1.9351135605962462e-05,1.0282815663963003,1.0161055455,1.03955259452,3.3917299496659685e-05,983.5436304595552,983.44069393243,983.65000142436,0.00402793077096784,-0.002179962107824487,Lift Up
-0.36370605468399986,-0.6484375,-0.01232910156,0.05667272736346042,0.7803173828088,0.4716796875,0.94689941406,0.014853702506494941,-0.44688964843359996,-0.70300292968,-0.26000976562,0.014791897956729427,1.0095820406608,0.81631955685,1.19365768325,0.007158502756729982,983.3198560064735,983.15451612715,983.43840069494,0.009535850286169168,-0.003020494725392803,Lift Up
-0.44243164062199997,-0.953125,0.09069824218,0.11916952301697492,0.7915380859324,0.56176757812,1.06091308593,0.02007398403045256,-0.20264648437039995,-0.263671875,-0.10876464843,0.002140819328046349,0.9959560564455998,0.74411968892,1.21684972853,0.011500921694247376,983.1170080360099,983.00625954825,983.18609099246,0.002968920312322127,-0.001494015474520926,Lift Up
-0.0801379394524,-0.51965332031,0.3046875,0.08363756130698152,0.9111328124963001,0.68737792968,1.13500976562,0.013631946510902345,-0.34369995116819985,-0.4677734375,-0.19274902343,0.006251085916978443,1.0207314483924,0.74657618318,1.22839149248,0.01662197590363056,982.8681791882499,982.75032586396,983.00625954825,0.005434242473035923,-0.0024257448505889618,Lift Up
0.17044921874539998,0.13366699218,0.29150390625,0.0012642852225637163,0.9751696777304,0.89379882812,1.0234375,0.0010406007956540177,-0.28114868163670004,-0.34045410156,-0.2255859375,0.0012516448759519669,1.0305181076806,0.96180274435,1.06287795244,0.0006129424745035005,982.6584204541568,982.5415030965,982.75032586396,0.003919396423377478,-0.002002468381440208,Lift Up
0.14310424804290003,0.12915039062,0.1494140625,3.084200048433656e-05,0.9790380859330999,0.94213867187,0.99475097656,0.00017045485853379547,-0.2170617675743,-0.2421875,-0.19384765625,0.00017402360381752632,1.0130690910997002,0.97298764324,1.02960914782,0.00017453977470566648,982.4381806040558,982.32915059063,982.5415030965,0.0038995378660733842,-0.0021445821337911486,Lift Up
0.129002685543,0.12133789062,0.13659667968,1.1430935124168472e-05,0.9523034667929999,0.93859863281,0.97961425781,9.192597234378531e-05,-0.23514648437010002,-0.25866699218,-0.20104980468,0.00029655083261965803,0.9894804665327003,0.97192752303,1.01883856675,0.00014320188757414995,982.2575428323557,982.21416297493,982.32915059063,0.001203224288488986,-0.0011588989616920196,Lift Up
0.13435913085490003,0.12133789062,0.14440917968,3.445210330440516e-05,0.9872473144484999,0.97583007812,1.00280761718,4.597217597407748e-05,-0.23605102538560008,-0.26403808593,-0.21752929687,0.0001167190962923584,1.0240052967134,1.01542004938,1.03794940326,3.843107527909178e-05,982.2155966636439,982.20983514559,982.22359915105,1.2381887900031965e-05,-8.465282859647674e-05,Lift Up
0.1412194824182,0.13610839843,0.14770507812,9.614908028908254e-06,0.9860095214803999,0.97241210937,0.99572753906,5.0790952625873516e-05,-0.2333325195283,-0.24792480468,-0.20434570312,8.102180378912281e-05,1.0230866149112998,1.01080182033,1.03170603003,3.5934455386824826e-05,982.2045371050306,982.20030257596,982.21275635635,1.5910648790715656e-05,-6.605011746360416e-05,Lift Up
0.1369885253877,0.09313964843,0.19995117187,0.0007073136577030649,0.9970703124957001,0.96166992187,1.06994628906,0.0005908801098293852,-0.16400756835579997,-0.23168945312,0.01281738281,0.004325881863625511,1.0222163390680998,0.98314111822,1.086952435,0.0004597349925919503,982.2071683093329,982.19874466958,982.21584374577,2.0990263662106017e-05,0.00010854394362189123,Lift Up
0.12568969726110002,0.02990722656,0.23181152343,0.0031819031619374685,1.0019042968707002,0.86108398437,1.24914550781,0.003356241818625373,0.12353759765340003,-0.02465820312,0.29162597656,0.009086881014867916,1.0231806188413,0.87815702929,1.27379352179,0.00347662129429212,982.2152153469194,982.20851136328,982.22795811202,3.4425917766902904e-05,0.00012117286032698604,Lift Up
-0.4324218749993999,-1.86157226562,0.28674316406,0.4619484050055683,0.8044519042928999,0.2216796875,1.25109863281,0.08776918241931707,-0.0114392089847,-0.35827636718,0.4384765625,0.044621092289334446,1.1429983745729,0.5189549541,2.01212905477,0.11738627115381103,982.2219684030791,982.14194635895,982.32247832287,0.0018086918834410188,0.00017042270079403163,Null
-1.0939660644495,-1.57495117187,-0.65197753906,0.06697356606210902,0.29744262694889995,0.04223632812,0.56848144531,0.01811140094608129,-0.0959374999992,-0.35900878906,0.22265625,0.02393706629920033,1.1558336626235,0.67185333128,1.68914716739,0.06708911890887888,982.2254414148651,982.16369838105,982.31570265162,0.002029177253659923,-0.0003217174878880078,Null
-1.0133935546835,-1.57495117187,-0.85571289062,0.015000143460438702,0.33320434569959984,-0.14672851562,0.63464355468,0.02559960788354278,-0.028616943358599992,-0.23791503906,0.22265625,0.013260550948259432,1.0830957402965,0.9755948346,1.68914716739,0.01922816033960677,982.2314709798287,982.1740303307,982.30215004191,0.0014081895421310657,0.0005679481148972743,Null
-0.989432373044,-1.2958984375,-0.84338378906,0.011129553346760015,0.3173950195277,0.20751953125,0.53454589843,0.006160262106501082,-0.0856494140603,-0.36181640625,0.07958984375,0.010021996473695342,1.0491656209777,0.87026700529,1.42212983352,0.013476802968136584,982.2455236985621,982.22755222842,982.27768415072,0.00025259834293169783,0.0002623380051850575,Null
-1.0278186035119001,-1.71130371093,-0.3603515625,0.09351471906172448,0.3704187011686,0.09765625,0.61840820312,0.02108622182946024,-0.1143151855438,-0.51794433593,0.2978515625,0.042344035660152615,1.1271697399936003,0.43883808754,1.76828843065,0.0924777389668848,982.2171630428801,982.1073765053,982.37309950135,0.004770419399198171,-0.0005026799957483482,Null
-0.9924694824175999,-1.24670410156,-0.70300292968,0.021893582469197332,0.31291992187080003,0.09692382812,0.59460449218,0.014724475061121652,-0.20989624023010006,-0.55053710937,0.07751464843,0.031146383783398117,1.0764250410931,0.72836304158,1.47076666138,0.03572415202808454,982.2335837004055,982.19506120725,982.2793716747,0.0006474770451894964,0.0002799282798100772,Null
-0.8184448242152,-1.81396484375,-0.20043945312,0.20201685618281215,0.19923339843489998,-0.43676757812,0.75793457031,0.08992692415012248,-0.40161254882510017,-1.10925292968,0.22631835937,0.10151872896513861,1.0446709219008001,0.25193869379,1.93862670009,0.17073643015216566,982.1906942290079,982.08868804666,982.31794255701,0.006247443417381718,-0.0020621190873797964,Null
-0.9401611328078002,-1.72766113281,-0.47302246093,0.09303894910009157,0.5707434081987999,0.19860839843,1.64099121093,0.12258075356824215,-0.2316760253895,-1.546875,0.38830566406,0.14435221507493534,1.193217033615,0.56072769172,2.84086032916,0.19790917539767602,982.2199177297449,982.14190617531,982.27457955604,0.001398860181000143,-0.0004457145531039135,Null
