avg_accX,min_accX,max_accX,var_accX,avg_accY,min_accY,max_accY,var_accY,avg_accZ,min_accZ,max_accZ,var_accZ,avg_magnitude,min_magnitude,max_magnitude,var_magnitude,avg_pressure,min_pressure,max_pressure,var_pressure,slope_pressure,Label
-0.5154445482302172,-0.52160644531,-0.50500488281,1.0069084129204747e-05,0.5091685419460869,0.49975585937,0.52392578125,5.101517547942181e-05,0.7123333474828261,0.70458984375,0.72314453125,2.4265412560123565e-05,1.0160825129260866,1.00850067004,1.02314186922,1.540062933506595e-05,976.1064072559554,976.09264908978,976.11531146427,2.904311123373267e-05,0.00015682333718804344,Null
-0.5121752929646,-0.515625,-0.50329589843,9.38852026127572e-06,0.5180224609344,0.509765625,0.53283691406,4.666306754952701e-05,0.709858398433,0.69616699218,0.72155761718,4.50462765176965e-05,1.0171715503247998,1.00212480884,1.02563023991,3.219260475314232e-05,976.1164764070288,976.11121101308,976.12056140327,4.639184782231592e-06,-1.2102600702007156e-05,Null
-0.5092993164029999,-0.51965332031,-0.49658203125,4.6141033210399285e-05,0.526660156245,0.51586914062,0.54064941406,4.3486705935613476e-05,0.7079589843713998,0.69604492187,0.720703125,4.85819999714824e-05,1.0188525388579999,1.00595209379,1.02785746708,3.936275141190194e-05,976.1071012027767,976.09530956784,976.11905030163,4.3771814062409636e-05,0.00014868303382156752,Null
-0.4900195312453999,-0.51354980468,-0.47387695312,9.388788781908541e-05,0.5593408203088,0.525390625,0.58117675781,0.00029178197937882084,0.6994409179654,0.68481445312,0.71142578125,5.1410926702858524e-05,1.0210725151768,1.00610056827,1.03066494992,4.29502308829278e-05,976.1097302381963,976.10442807062,976.11992640751,1.88061405379135e-05,-8.078271358162772e-05,Null
-0.4977075195286,-0.51403808593,-0.48254394531,9.76241537938209e-05,0.5572558593715999,0.53820800781,0.58178710937,0.00016433720637809638,0.6999731445271999,0.6845703125,0.71044921875,4.680571532797248e-05,1.023955680227,1.01664450167,1.0361619778,3.0015351447110024e-05,976.1036458669273,976.09512702158,976.11085367884,2.3569653996652986e-05,-0.0001458989071934493,Null
-0.5092504882771999,-0.52221679687,-0.49609375,7.091404811039385e-05,0.5603320312451999,0.52697753906,0.57995605468,0.00024027147674380572,0.6871166992152,0.67626953125,0.70495605468,6.198883657908813e-05,1.0226241620893999,1.00662170706,1.03314149669,4.7140529599920144e-05,976.1032864855889,976.09512702158,976.11063968245,1.2497727195393006e-05,1.6866179445606016e-05,Null
-0.9928051757772,-1.22839355468,-0.51843261718,0.03546843830408526,0.26580322265359996,0.111328125,0.5703125,0.017034842637040755,0.13391113281099998,-0.12255859375,0.70495605468,0.039446963203456885,1.0736071860741998,0.78188832908,1.25025046938,0.012771730733791424,976.0789775160864,976.04507790884,976.15149786751,0.00072838734383006,-6.636898035477274e-05,Null
-1.0206958007776,-1.16845703125,-0.908203125,0.005175355835404209,0.20240234374620003,0.03295898437,0.326171875,0.004052767151674227,0.0321215820306,-0.07263183593,0.16784667968,0.006010042301981524,1.0457879083792,0.93274603148,1.19742853198,0.005284703873085695,976.0924353982949,976.0648938711,976.12005352247,0.0001853473612417899,0.000264358717247119,Null
-1.0033886718707998,-1.14147949218,-0.92810058593,0.0012796422206908914,0.16485839843519998,-0.10473632812,0.26293945312,0.009020207048281813,-0.0293457031246,-0.14013671875,0.05639648437,0.003533645711390001,1.0232275434714,0.93967069616,1.16662153798,0.0015442858340339405,976.0983215723646,976.09242705036,976.1051854064,1.3849449148788614e-05,-2.5454511439417645e-05,Null
-1.0426904296839998,-1.18371582031,-0.87219238281,0.009187816995503476,0.27390869140280005,0.078125,0.63598632812,0.020388853074489423,0.0612451171854,-0.1728515625,0.29187011718,0.015542123678410891,1.0948728593741999,0.93589226035,1.31063845864,0.012021510478000434,976.0839712369718,976.06513295259,976.1015211516,0.00010544421860225188,-0.00022551260755482446,Null
-0.4854443359335999,-1.19384765625,-0.28515625,0.05294908993176258,0.8466308593709999,0.44018554687,1.10327148437,0.011461080324829183,0.246950683592,-0.14477539062,0.65319824218,0.04797835993508817,1.0528978806372,0.85193715034,1.38430425493,0.01625793262315887,976.17121035531,975.9778770165,976.68564363108,0.03026262658834053,0.003160047093531045,Null
-0.40934570312060004,-0.66857910156,-0.15979003906,0.012303090914492235,0.6068627929656,0.46069335937,0.8681640625,0.014838528205878065,0.13308593749880004,-0.65869140625,0.86706542968,0.3475057696786651,0.9543416662524001,0.68062624285,1.16209805266,0.013829414015819145,976.0090703293957,975.8997312706,976.09400149032,0.0030065367077784146,0.0014863311692199606,Lift up
-0.5220751953086,-0.86865234375,-0.21264648437,0.037859382870250466,0.596193847653,0.40258789062,0.95361328125,0.017928460324785477,0.38903564453100004,-0.57495117187,0.9140625,0.2532506070259437,1.0326248086876002,0.61880369675,1.25621795281,0.019184259044135035,976.1307447558988,976.02850277262,976.47313432767,0.008409220077648208,0.00036831841768070477,Lift up
-0.15952636718360003,-0.72265625,-0.03369140625,0.0262138719269871,0.9817309570277999,0.53271484375,1.18811035156,0.010024068096633223,-0.2834643554648,-0.65344238281,-0.16296386718,0.02165836337232817,1.0535315530968,0.80224019638,1.53649770934,0.017156547096671016,976.1227903151043,975.93746772284,976.47313432767,0.015703756909583894,-0.0010090537342464694,Lift up
-0.07960340711454544,-0.14270019531,-0.00256347656,0.001382894324015193,0.995218296239899,0.96166992187,1.0224609375,0.0002391980133580969,-0.1868933475342424,-0.24694824218,-0.13757324218,0.0011108601137272652,1.0170222160567675,0.99483575856,1.03412522847,9.742596518580835e-05,976.0955200731715,976.07721583779,976.11464056756,0.00011569498023228531,-0.0002937592223872189,Lift up
-0.06579465281887754,-0.10278320312,-0.00256347656,0.0008219316125217847,1.0081475705477552,0.97607421875,1.03894042968,0.00030596702098208877,-0.15267632931663266,-0.20056152343,-0.06237792968,0.0019753021618733784,1.0231977190441837,0.99917885474,1.04157182102,0.00013991277865410065,976.0815117134815,976.04984684171,976.09812543976,0.00013733326422029038,-0.00021967562011690768,Lift up
-0.008979641660510204,-0.052734375,0.04138183593,0.0010555693985253567,1.009587501989796,0.98596191406,1.029296875,0.0001288874150563944,-0.13164535833510205,-0.22351074218,-0.07421875,0.0021082439576185098,1.0197338658366326,1.00224752729,1.03730114099,8.082793001164062e-05,976.0671322118301,976.04984684171,976.08486357126,7.769567584905105e-05,5.218055493175283e-05,Lift up
0.014582316079479166,-0.04675292968,0.07202148437,0.001082782342535809,1.0088958740204168,0.98291015625,1.0361328125,0.0002323521595099246,-0.14876556396072915,-0.25524902343,-0.02807617187,0.007751730339277329,1.0242445893209375,0.9990937403,1.0382138996,0.00011132074510655207,976.0675028210686,976.0527243626,976.08327620925,5.602688269887661e-05,0.00017662474517488396,Lift up
0.013378143308333333,-0.02478027343,0.04235839843,0.00030687971423375333,1.0186894734664582,0.97839355468,1.07653808593,0.0004232630852437633,-0.1332270304321875,-0.20251464843,-0.05773925781,0.0027270729538918966,1.0289370118803125,0.99914846821,1.08572173547,0.0003703461504465563,976.0701766057315,976.05730898275,976.07863898889,2.7847687344962888e-05,-5.589528736408807e-05,Lift up
-0.026883443194270832,-0.07141113281,0.04235839843,0.00125563975324593,1.0508410135866666,1.00439453125,1.07653808593,0.0004831947762565907,-0.14392216999947918,-0.1708984375,-0.11535644531,0.00036111489557514307,1.0617907044352084,1.01733771942,1.08572173547,0.0003857394163056213,976.0436369603908,975.97014642628,976.06816788351,0.000766745012595439,-0.0008610061971119164,Lift up
-0.03453940533255318,-0.04895019531,-0.00146484375,0.00010041631902843406,1.0112590383938296,0.99731445312,1.03051757812,0.00010445599451793887,-0.13580192403180852,-0.162109375,-0.09033203125,0.0004638733865867568,1.0212085238854256,1.00790964442,1.03708867054,7.556180262927353e-05,975.8707505862989,975.75604001061,975.97014642628,0.0038442911634194274,-0.00226263403544113,Lift up
-0.010616221322340426,-0.02307128906,0.01086425781,4.477637176782706e-05,0.9844879799664893,0.95349121093,1.03051757812,0.0005572560780162329,-0.11590056723319152,-0.14038085937,-0.09313964843,0.00016550949339081447,0.9914686158713829,0.96097031203,1.03471910135,0.0005170896350376615,975.6549683069139,975.55348329885,975.75604001061,0.0040298163229703894,-0.002313618210409734,Lift up
0.021083101310744673,-0.03063964843,0.05187988281,0.0005419823501873777,0.9972326400389361,0.955078125,1.03686523437,0.00039896445511880936,-0.12920493267521277,-0.19067382812,-0.08813476562,0.0014554337842918698,1.0067667615536169,0.97337575903,1.050758709,0.0004072576846762518,975.5185762500361,975.4943548472,975.55348329885,0.00022134215667485226,-0.0005110959556234076,Lift up
-0.0013427734363440859,-0.03930664062,0.03771972656,0.00045890231483030236,1.0077639343872042,0.95458984375,1.05249023437,0.0008015846881068739,-0.1505704490060215,-0.20812988281,-0.08032226562,0.0010781782449175883,1.0197356680087095,0.97022879695,1.05910897473,0.0007218582240402759,975.4868059471969,975.47344739808,975.50232167692,5.974806550085734e-05,-0.00011921227776938088,Lift up
-0.002410888671304348,-0.02038574218,0.03771972656,0.00017259265851046632,1.0152826723807606,0.99108886718,1.04052734375,0.00021039661442522168,-0.1390234905698913,-0.166015625,-0.11889648437,0.0001281672920586126,1.0249125336050002,1.00243169944,1.04950955522,0.00019425863199079818,975.4749150127807,975.46923758004,975.47978012847,1.028752840657532e-05,-5.9525205216364034e-05,Lift up
-0.04767315203967031,-0.07116699218,0.0029296875,0.0005265525008699884,1.010730114608132,0.99755859375,1.02514648437,6.508431664459409e-05,-0.1411709628232967,-0.16748046875,-0.11328125,0.00022132275523262823,1.0220301371832965,1.01105722871,1.03250783013,3.6156712028204095e-05,975.478695634102,975.46762038168,975.48448656791,2.0712877484626086e-05,3.462546152963171e-05,Lift up
0.017065697974725274,-0.20324707031,0.1572265625,0.008096997677657822,0.9680055052334066,0.38439941406,1.021484375,0.014726517947353931,-0.12956221024703293,-0.19274902343,0.57678222656,0.012257971911766617,0.9904313670173625,0.62792051554,1.03514245941,0.007941212515870552,975.4761052056479,975.32883354209,975.62650598411,0.0010366288193001305,0.00012244268783946323,Lift up
-0.9330742730005556,-1.07763671875,-0.18859863281,0.03808034255303158,0.3376193576352223,0.19506835937,0.66650390625,0.014709041954959494,0.13705919053500001,0.01171875,0.7412109375,0.03335061484984661,1.0378529753684445,0.71833842352,1.28274328739,0.011572322426746289,975.4573623408766,975.32883354209,975.5050474016,0.0021200811791234945,0.0015962323432039095,Lift up
-0.5577297634514444,-1.0087890625,-0.07360839843,0.1462944780273005,0.6727728949614443,0.22045898437,1.02514648437,0.07645328771864866,-0.037027994792111114,-0.43395996093,0.30041503906,0.030856631109187356,0.9900895558825558,0.55957208336,1.35433843574,0.0359657910888678,975.5625675986158,975.24959896748,975.85407263204,0.022649903585560068,0.00026721280858402907,Lift up
-0.0962627282286517,-0.39611816406,0.07080078125,0.013729544460609177,0.9925825140413483,0.80017089843,1.05456542968,0.003018482172605032,-0.188465589884382,-0.43395996093,-0.10827636718,0.0057610383901208545,1.0255624320315728,0.98100488753,1.06304229192,0.0004891872678791257,975.4331939089058,975.24959896748,975.51544204821,0.0038917978265039996,0.002263414332981544,Lift up
-0.16683308461685392,-0.22021484375,-0.1083984375,0.0008592105739288036,0.9906650500316853,0.92492675781,1.03137207031,0.00039967423471422634,-0.19830116528730338,-0.22424316406,-0.17883300781,0.00015976317646199453,1.0245023807583145,0.96223924436,1.07061633788,0.0003756726136324611,975.4897378725212,975.46888417214,975.5229239084,0.0002725370201723882,-0.0003916404422359969,Lift up
-0.1189450350635227,-0.13684082031,-0.08996582031,0.0001526144523022986,0.9978679310152273,0.98071289062,1.00952148437,6.96130692425571e-05,-0.18290710448886366,-0.2099609375,-0.16735839843,0.00015260135734685747,1.0216684747724998,1.00254662171,1.03298336352,5.9835286879463394e-05,975.4758439226946,975.45708979115,975.48737845627,6.867503020747896e-05,0.00013377092583833052,Lift up
-0.12225973194735633,-0.13354492187,-0.11169433593,4.221767831823231e-05,0.9960235946440229,0.98767089843,1.00695800781,3.063146187291044e-05,-0.17997373383275858,-0.19091796875,-0.16430664062,3.851666962741684e-05,1.0195487309929885,1.00945398919,1.03056650196,3.1824687608384435e-05,975.4764705242854,975.47038315528,975.48478142699,1.4663879367484083e-05,-4.677495219258171e-05,Lift up
-0.09499595904770115,-0.13354492187,-0.06982421875,0.00036159023918965724,0.9987835061928733,0.98852539062,1.0078125,2.2124221252638166e-05,-0.17769368489287354,-0.19470214843,-0.14086914062,0.00012022765108966204,1.0191370949158622,1.00880807302,1.02697174241,2.579809711640726e-05,975.4719923469233,975.46429993269,975.48255028235,1.8007296935942735e-05,6.55226323794835e-05,Lift up
-0.0843505859343678,-0.10412597656,-0.06689453125,9.925663472364558e-05,1.033069829828391,0.98803710937,1.06860351562,0.0005959347348477171,-0.1575520833298851,-0.18127441406,-0.14086914062,0.00012511523195881215,1.0484946782667814,1.00196871829,1.08612271657,0.0006481915202287437,975.4750731752446,975.46679305831,975.48595126189,3.492485329594546e-05,2.5566516347210698e-05,Lift up
-0.07533441587558137,-0.11926269531,-0.04858398437,0.00030837134852727675,1.0235907975974419,0.9912109375,1.0654296875,0.00043705848593478697,-0.1565395621334884,-0.18359375,-0.13537597656,0.00017090231057979643,1.038456016122093,1.00918507073,1.0802675188,0.0004379012298342421,975.4081193590131,975.33640332275,975.47409157729,0.001625623717517955,-0.0015953303682857618,Lift up
-0.11209644990447057,-0.13940429687,-0.06640625,0.0003493072814301934,0.9987577550511764,0.99084472656,1.01000976562,2.8014600439730098e-05,-0.16853458179741174,-0.18981933593,-0.14501953125,0.0001552817534247828,1.0193075928689412,1.01226509836,1.03033763812,2.523837046051682e-05,975.220939851808,975.12374494309,975.33640332275,0.004065251744386497,-0.0025732140965157697,Lift up
-0.06645795036400001,-0.10961914062,-0.033203125,0.0007103601298703182,1.0054184857505881,0.9755859375,1.04016113281,0.00026134440378936766,-0.15473058363611766,-0.2177734375,-0.09436035156,0.0020173364117751225,1.0208061608785883,0.99771245441,1.04503631678,0.0001347875719185744,975.0120969525454,974.90557427695,975.12374494309,0.004111783636561575,-0.002578703196920729,Lift up
-0.07974679129083331,-0.11730957031,-0.02014160156,0.0007725952516915656,1.0137227376260713,0.9755859375,1.05224609375,0.00037374669112035517,-0.1413196382027381,-0.19519042968,-0.06494140625,0.0013757667542348977,1.0276446979530953,0.99415100481,1.07348402386,0.00040789388565060027,974.7939553663044,974.68789207447,974.90557427695,0.004641011542541415,-0.002777928329173827,Lift up
-0.05980282737654761,-0.10778808593,-0.00732421875,0.0011144225205828814,1.002873011992976,0.98486328125,1.02709960937,0.00017037177891331202,-0.1460687546459524,-0.1953125,-0.06042480468,0.0018840759343140235,1.0167355786665475,1.00259228075,1.02971644961,4.720809348611945e-05,974.5791405786049,974.45517274699,974.68789207447,0.0035334246189425485,-0.0024143621777118385,Lift up
-0.07935011530060242,-0.09497070312,-0.06896972656,3.7774969080756655e-05,1.0045916086167468,0.99536132812,1.02087402343,2.5022259328938097e-05,-0.1676407779508434,-0.1953125,-0.14782714843,0.0002525070555627977,1.021708637495181,1.01321404468,1.03630234951,2.7467778308748356e-05,974.3425835293663,974.22475742422,974.45517274699,0.004526831512978427,-0.002781390124440623,Lift up
-0.070814017786747,-0.07873535156,-0.0634765625,2.1108044379250493e-05,0.9688176534230118,0.9521484375,1.00134277343,0.00016285052132478786,-0.153149708203494,-0.16662597656,-0.14514160156,3.053209394602285e-05,0.9834328085275902,0.96946340103,1.01572314301,0.0001507374803583182,974.1271956100519,974.04367968515,974.22475742422,0.0029956193414087296,-0.002253588265150983,Lift up
-0.06806228821253012,-0.08032226562,-0.05615234375,4.627399065683378e-05,1.000647119725542,0.95935058593,1.01245117187,0.00015857079223773613,-0.14904932228554219,-0.16540527343,-0.13793945312,5.534490941883823e-05,1.0140385916591566,0.97588950046,1.02573955593,0.00012715525627185318,974.0151967054119,973.99980612017,974.04367968515,0.00015364310985561375,-0.000495760980569522,Lift up
-0.06672631240158537,-0.07592773437,-0.06103515625,1.7302875251038046e-05,0.998697420442439,0.98071289062,1.00659179687,5.8982495494644235e-05,-0.1494363924312195,-0.16174316406,-0.13830566406,2.8238667401415582e-05,1.0120383109737807,0.99310385072,1.0206479866,6.264417473633264e-05,973.9900513771622,973.97772190916,973.99980612017,3.623117560036797e-05,-0.0002136279746401052,Lift up
-0.06216543691765432,-0.06970214843,-0.04809570312,2.665921217299766e-05,1.0076045283532098,0.99951171875,1.02258300781,3.273876177263104e-05,-0.14219081548555557,-0.15551757812,-0.12316894531,6.0110088489595004e-05,1.0195256846285183,1.00920329862,1.03543260592,3.55044751396279e-05,973.9789919122537,973.9742987707,973.98437807763,8.541132753396558e-06,-6.445298295941743e-05,Lift up
-0.17160674671617282,-0.90026855468,-0.03918457031,0.06345268429044275,0.9529878592753086,0.6435546875,1.09057617187,0.016258416839826963,-0.0931517047617284,-0.15393066406,0.27136230468,0.010935039298203634,1.00878633332321,0.69878237442,1.38198609631,0.018416526037413717,973.9775559247588,973.86390029883,974.05916052274,0.0022512046727964767,-0.00023534933554612698,Null
-0.9624535831364197,-1.32995605468,-0.11181640625,0.04267729403975613,0.4903730227585186,0.20959472656,1.09826660156,0.06881475327688986,0.06036150896802469,-0.20263671875,0.23937988281,0.008845212351450266,1.1169376863607405,0.51763433475,1.63655298436,0.04224953133305974,973.9773625360355,973.92328317001,974.05916052274,0.0018281093472659424,0.0005766500178461481,Null
0.801461791988125,-0.11181640625,1.10278320312,0.04775881758742072,0.178974914548125,-0.30944824218,0.46301269531,0.018054058069871613,-0.377943420406125,-0.54663085937,-0.20263671875,0.008117411330519917,0.9272278956202499,0.46496864051,1.19352863316,0.0308545226029788,973.9522530092645,973.93554757481,973.98285698443,0.00012375005028347218,-0.00010758043425067464,Null
-0.781112670895,-1.35778808593,0.63049316406,0.20382440594613385,0.44322204589562497,-0.30944824218,1.00061035156,0.08563105266789194,0.12363433837775002,-0.21667480468,0.26013183593,0.014912092267692946,1.0248164089020002,0.259657902,1.64964511894,0.07309622356037697,973.9919245422341,973.89197817258,974.37684958755,0.015515737596037086,-0.0013464830088704407,Null
-0.9496154785117501,-1.0009765625,-0.89172363281,0.0006185323000092905,0.16220092773199998,-0.07556152343,0.36767578125,0.01270287606500566,0.30418243407775003,0.10827636718,0.49304199218,0.011740387520994766,1.0221427078040002,0.9931235366,1.08188876787,0.0005857817810512989,973.9762084822183,973.94781797714,974.00473257795,0.0003682075683189958,0.0007544362559049588,Null
-0.9698347260641773,-1.05029296875,-0.90698242187,0.001100389234300033,0.15143363083025316,0.0732421875,0.24304199218,0.0031501306162854173,0.25313519827556974,0.2080078125,0.31530761718,0.0008927501716218122,1.015520487362658,0.93720479132,1.09926898085,0.0014030340420119157,974.0102475643336,974.00024996793,974.01956505784,2.6117587769830946e-05,8.67045152503012e-05,Null
-0.9739094021929113,-1.03283691406,-0.9453125,0.00043778454220885245,0.15081555330075952,-0.05419921875,0.23986816406,0.004316169046497163,0.265226339989114,0.12316894531,0.3251953125,0.001765865052732158,1.0236554882136712,1.00967578746,1.05568806553,0.00015860461298033017,974.022619079498,974.00331531657,974.04515157479,0.00010665905046921307,2.6690098844225306e-05,Null
-0.9816815264764932,-1.04443359375,-0.94055175781,0.0011097903854502885,0.23935134689129872,0.16528320312,0.33776855468,0.002291153879584264,0.059215198862987026,-0.08032226562,0.25915527343,0.009400973264983703,1.017764053562208,0.96942267597,1.09600810873,0.0013030391872756947,974.0235500739711,974.0100380444,974.03966262229,5.082013933492775e-05,0.00016210015551865057,Null
-0.9946883352144736,-1.04797363281,-0.90942382812,0.001247435606896248,0.20437461451171055,-0.24548339843,0.42651367187,0.022835921790736867,-0.059978284332631575,-0.2109375,0.07348632812,0.008248860260259252,1.031836034454342,0.93069926272,1.10850005503,0.002019019649888283,974.0393268642625,974.03189403802,974.05482594991,3.7147812798832256e-05,3.852472661047133e-05,Null
-1.0003662109326663,-1.07458496093,-0.92321777343,0.002037467586009018,0.21773925780866668,0.08459472656,0.33178710937,0.004784097365468518,-0.02552083333319999,-0.22839355468,0.14831542968,0.015280585970017,1.033653486316933,0.9414571772,1.12074217118,0.0021913977383476516,974.0419726017195,974.03014963626,974.05417205811,3.155058408814775e-05,-1.6982662681446617e-05,Null
-0.9998361687867104,-1.05773925781,-0.90991210937,0.0015207364371444983,0.23053942228184213,0.15270996093,0.27526855468,0.0009725635302542725,0.04240658408539473,-0.0419921875,0.12902832031,0.003232681384988788,1.0288857488448682,0.9292870709,1.08903612271,0.0016860481755327098,974.0324965527201,974.02260003219,974.04547797516,3.144389173277351e-05,-9.491339546688822e-05,Null
-1.0187011718714667,-1.1123046875,-0.89855957031,0.002783554228515528,0.1836621093716,-0.08972167968,0.32409667968,0.01026303431420778,0.028033854164933335,-0.16723632812,0.16162109375,0.007192696466711984,1.0436037687653335,0.91580351466,1.14688569279,0.0031726486483043674,974.026895924457,974.00381723495,974.04782718831,9.43923009115254e-05,-1.1070704945161651e-05,Null
-0.9833121744747999,-1.03942871093,-0.91467285156,0.0010575276666972648,0.2437548828084,0.15686035156,0.32470703125,0.002238660664241995,-0.08821126301839999,-0.23193359375,0.03942871093,0.0055465234183302205,1.0203938965006667,0.93215802458,1.0761237852,0.0016435208076735295,974.0175344781925,974.00432568981,974.03731297808,0.00011303627649835077,-0.0001537943534951631,Null
-0.9877799479134666,-1.0302734375,-0.900390625,0.0007960307329087826,0.24487467447519995,0.17211914062,0.322265625,0.0007804408643154186,-0.10337890624813334,-0.24694824218,0.02673339843,0.00550700440571916,1.0257908071828004,0.92998491066,1.08538731009,0.0011171751797299425,974.0065157664739,973.99344759519,974.02511793688,8.192951219647883e-05,-8.862744217794223e-05,Null
-0.9837959908113513,-1.0263671875,-0.95129394531,0.00042638307603299795,0.23597511084891895,0.18933105468,0.27954101562,0.0007492955284773008,-0.027464170711216214,-0.11987304687,0.05053710937,0.0018328442527042652,1.0132169416482433,0.97316828046,1.0552594153,0.0004697341544694912,974.0068503038854,973.99876260164,974.02037298305,2.868489117112582e-05,8.071075146808351e-05,Null
-0.9939746093716,-1.01501464843,-0.9755859375,9.710790337405872e-05,0.23215006510013333,0.18798828125,0.27722167968,0.0006343309835931582,-0.0300716145788,-0.06274414062,-0.01147460937,0.00025174323500710825,1.0215378837641333,0.99509180577,1.04908404078,0.00021679445692121725,974.012119497192,973.99893350466,974.0300222794,7.565518218154267e-05,-0.00030128414443044457,Null
-0.9860174005641555,-0.99719238281,-0.96105957031,7.527342967630561e-05,0.2203908152353247,0.20202636718,0.24743652343,0.00017541783949658713,-0.040007355921558456,-0.06384277343,-0.00476074218,0.00035164089681682524,1.0113944347637662,0.98669157224,1.02326827797,7.985830381753959e-05,974.020395288362,974.00658070291,974.04785622529,0.00016850209033579704,-0.0003779971934119793,Null
-1.0131868061232894,-1.1630859375,-0.90075683593,0.0037428136562892653,0.29437577096657896,0.158203125,0.50122070312,0.010707059094677337,0.055397435236710535,-0.13366699218,0.29516601562,0.012466588301972965,1.0664767679719735,0.98483612219,1.23036334479,0.005535915931970228,973.9995339388839,973.97567299555,974.01631783941,0.00016554305455955613,-0.00045292232113235316,Null
-1.0386100260374667,-1.24951171875,-0.89086914062,0.011813704940586487,0.24044433593426662,-0.03942871093,0.41467285156,0.009712278262619925,0.036528320311600006,-0.10095214843,0.17858886718,0.008259761509923042,1.0746085229282667,0.90289028344,1.31663562123,0.012632135426093948,973.9958371216418,973.97594448579,974.05088093945,0.000390072177556885,-0.00031730903967850326,Lift down
-0.9943847656217334,-1.09899902343,-0.81225585937,0.004960657374307374,0.23326822916213336,0.07751464843,0.40026855468,0.008107537084718293,0.08631998697706665,-0.34729003906,0.25500488281,0.017099026623732295,1.0374541734982667,0.88677983346,1.1295642585,0.0041757753514735495,973.9990544942862,973.97749430881,974.06969717241,0.0003365156246509452,0.0003259482003703646,Lift down
-0.7350276692665332,-1.23791503906,-0.42163085937,0.06848681274836502,0.5631705729127999,0.22521972656,0.95275878906,0.03313226086591736,0.2430810546857333,-0.11462402343,0.70324707031,0.0597612850403485,1.0292351952796002,0.72323484198,1.31458930773,0.01664057560963577,974.164468154203,973.97078692419,974.87923540582,0.04081366181093682,0.004167692886446166,Lift down
-0.5891256129459574,-0.65270996093,-0.50341796875,0.0013699508662772142,0.7451626392084043,0.64001464843,0.83520507812,0.002610765152129297,0.3767479429817021,0.24755859375,0.51818847656,0.00347279451635801,1.0249600098596805,0.94697932999,1.09379782572,0.00111845374653243,973.8359098564638,973.66654577128,974.09406181078,0.011697493869298666,0.0007029028651284895,Lift down
-0.6813876751736081,-0.8125,-0.40087890625,0.009701974766753545,0.6728603716950515,0.5302734375,0.75891113281,0.0037625625256657805,0.326443701671134,0.22290039062,0.43969726562,0.0032362110619141835,1.0184701620844332,0.87022589315,1.0889212009,0.002872451573470751,973.966370934188,973.89385722364,974.04634971319,0.0019891601694333313,0.0013129876451262038,Lift down
-0.666589495775402,-0.77026367187,-0.61096191406,0.0021232096659839867,0.6944369612029883,0.61547851562,0.78308105468,0.001893310770973753,0.2638991783368966,0.01379394531,0.44641113281,0.02419784671085453,1.0114009160393103,0.92594060049,1.09130928329,0.0011990586876501155,974.0000218752227,973.90485882791,974.1341734092,0.005513950246455872,-0.0015314648908944508,Lift down
-0.6678768205018518,-0.70520019531,-0.623046875,0.00044001621409844047,0.7563280647145679,0.72631835937,0.78405761718,0.0002674097034230996,0.13340928819024692,0.07922363281,0.18188476562,0.0007375624030462485,1.0184178604104939,0.99541436008,1.04245167319,0.00014361053884999939,973.995736693465,973.96450685604,974.02084174004,0.0002506187232577832,0.00020576922606720636,Lift down
-0.7118459848213461,-0.73864746093,-0.68041992187,0.0003281721290263937,0.7074232834991345,0.67651367187,0.73669433593,0.00035431711216935826,0.15561852088048075,0.0986328125,0.19116210937,0.0007116740890969354,1.01623694179875,1.00564921137,1.02676379583,3.308636270942776e-05,974.0018033092894,973.98639434377,974.03819650934,0.000168273939230045,-6.853678916825427e-05,Lift down
-0.7436045771019565,-0.76171875,-0.72058105468,0.00011563365163568941,0.6925951086919564,0.65991210937,0.73767089843,0.00034079639123896433,0.05365653659586957,-0.01550292968,0.12487792968,0.0014935674129671931,1.018515190930217,1.00651568879,1.03609275201,7.115670969482229e-05,974.0582703942819,973.977160142,974.16754618672,0.004215062063930226,0.001659930948260596,Lift down
-0.7495264260121686,-0.7783203125,-0.73034667968,0.00016343171916926284,0.655242552236265,0.64111328125,0.68395996093,7.75368633117024e-05,0.013688052991204819,-0.01428222656,0.03979492187,0.0002338034971506354,0.995804272353012,0.97946056645,1.02418573706,0.00016491841317805493,973.9805284343751,973.92054031412,974.16109765609,0.0048081945411572865,-0.0019966784933542637,Lift down
-0.7189180448422076,-0.74255371093,-0.70568847656,6.0253644840544935e-05,0.6773317014985712,0.65576171875,0.69506835937,0.00020204996783757578,0.04414347858883117,0.02783203125,0.05932617187,4.720493324155275e-05,0.9888292245537665,0.97439802244,1.0042245338,7.963386871920587e-05,974.0327984171915,973.94725923369,974.11420346375,0.002397647044168307,0.002152786029816739,Lift down
-0.7206758197952632,-0.73681640625,-0.70532226562,6.411973584998636e-05,0.7238753469331578,0.69677734375,0.73815917968,0.000154607492066426,0.040639776928421044,0.02099609375,0.0546875,8.374443178722437e-05,1.0223922720943421,1.00710277554,1.03026888154,3.372407336083657e-05,974.2275444252737,974.11420346375,974.36497870896,0.005175627995088883,0.0032319611851288135,Lift down
-0.7200216645141746,-0.72802734375,-0.71118164062,2.404098543098018e-05,0.7245240442929123,0.71630859375,0.73193359375,2.2429705530454177e-05,0.043841019414368944,0.03393554687,0.05432128906,3.465554519860488e-05,1.0224259590646605,1.01510247213,1.0291841,1.3955434550244239e-05,974.4728697518218,974.36497870896,974.60061623759,0.004909535281014124,0.0023322626945206787,Lift down
-0.7362388692830106,-0.75634765625,-0.71118164062,0.00020986054896816132,0.7527511760708601,0.71984863281,0.77197265625,0.0002325723220400835,0.053531113486451606,0.03552246093,0.07348632812,0.0001522796929543764,1.0543716411621502,1.01758716747,1.08071768038,0.00044108884234196356,974.7099290334507,974.60061623759,974.81768469957,0.004344040540411172,0.0024328599270043603,Lift down
-0.7260081571637645,-0.75036621093,-0.71374511718,0.00014835473785589594,0.7417437385077645,0.72229003906,0.76965332031,0.00025422901166308887,0.06158231847011766,0.04919433593,0.07116699218,3.292468750699391e-05,1.0397651870337647,1.01753069278,1.0766127803,0.0003872969102593544,974.8734839471704,974.81768469957,974.90154234636,0.00058109769014096,0.000927382672484588,Lift down
-0.7217172475925274,-0.73986816406,-0.71142578125,5.356924146934783e-05,0.7264981112601099,0.71887207031,0.73522949218,2.3667792697206235e-05,0.06782280219384615,0.05700683593,0.07751464843,2.812970980150831e-05,1.0263183355289014,1.01822293402,1.04460251107,5.066339995091182e-05,974.9094423090693,974.90066664859,974.91899798886,1.844681143837123e-05,0.00014326716951624624,Lift down
-0.7277819700874745,-0.74353027343,-0.7158203125,4.644585352495579e-05,0.7209435665213131,0.70458984375,0.73706054687,8.285363553044096e-05,0.06714360400454546,0.06176757812,0.07421875,1.0996120073172421e-05,1.0266628726949494,1.01593647362,1.03670048241,3.7084556516661096e-05,974.922500791992,974.91315098153,974.94203021504,5.620953785065186e-05,9.903043232359338e-05,Null
-0.6158086603289773,-0.76684570312,-0.41381835937,0.012163506211565634,0.7832794189415909,0.71118164062,0.88293457031,0.0022859046899892095,0.18585205077659095,0.01354980468,0.32690429687,0.009464133744902231,1.02338869236125,0.91537030717,1.13989251929,0.0036467637194106234,974.9426212316731,974.81125896143,975.06389047222,0.006109640086619035,-0.0014026835752109694,Null
-0.8824722289993749,-1.12573242187,-0.62194824218,0.030595763082329135,0.4451400756806249,0.1708984375,0.84765625,0.04286763475408928,0.057885742187,-0.28759765625,0.45458984375,0.0352413810497426,1.039637539068125,0.88866853818,1.17091625413,0.006842974777890611,974.8604783306846,974.7567664835,974.91734348574,0.002664910229188681,0.00021401047416243292,Null
-1.0310318317784042,-1.18286132812,-0.78564453125,0.009957339773871204,0.2706805290026596,0.0224609375,0.47131347656,0.00885470208612284,-0.046015313329999995,-0.34094238281,0.12109375,0.016267932843427643,1.0777156078562762,0.82221195471,1.25628444899,0.011773093724599074,974.9103212449861,974.89307794833,974.93707067223,0.00018786491126785885,0.00020114082377249465,Null
-1.0222935627375258,-1.14636230468,-0.93518066406,0.0036733511586052683,0.2190054667329897,0.08801269531,0.34350585937,0.005320921876353062,0.012603445151546391,-0.17858886718,0.14404296875,0.007615064279877687,1.0513669620786599,0.95158516679,1.18355010049,0.004316487657742547,974.9145354289589,974.89505886321,974.93381988673,0.00010114226302613133,0.00015669539290692644,Null
-1.002138335125632,-1.11840820312,-0.94396972656,0.0011235433477710555,0.21183969782402307,-0.13977050781,0.35900878906,0.012854540194029668,0.01188010731022988,-0.34680175781,0.21545410156,0.014530989836982713,1.0371547281362066,0.97495645065,1.17835533005,0.0017742234569323523,974.9103423031864,974.89222936145,974.93488929532,0.00011338927363230756,-5.628825491321352e-05,Null
-1.0424918241238372,-1.28991699218,-0.90576171875,0.011030847755486965,0.19200524618081397,-0.01574707031,0.31860351562,0.006747918839793136,-0.022761855012790697,-0.16186523437,0.12280273437,0.007260065813628382,1.0664789154931398,0.92640588507,1.30419266619,0.011679534514533267,974.9135044093073,974.88205946523,974.96933886846,0.0002837494981261812,0.00017285040310655505,Null
-1.1137463378867998,-1.36169433593,-0.91577148437,0.012745255079759989,0.22105102538689997,0.048828125,0.47937011718,0.019587145422089794,0.05597900390349999,-0.07250976562,0.14306640625,0.003103706625719477,1.1453374834319001,0.91755982888,1.38333956593,0.01587061107230795,974.9075015058329,974.88205946523,974.96044726941,0.00037486942304331387,0.00012047109288576023,Stairs down
-1.1024739583295555,-1.31420898437,-0.81640625,0.01806869674234714,0.18612874348655556,0.05493164062,0.40490722656,0.010556860602863158,0.03745252821033333,-0.123046875,0.12060546875,0.004224626834947271,1.125258295234111,0.89246325932,1.32744970544,0.018106366523111872,974.9006720064313,974.8660304526,974.96044726941,0.0006306632930650812,-9.986019960880471e-06,Stairs down
-1.0972614052809875,-1.51330566406,-0.66906738281,0.06691750186379612,0.18348675009333332,-0.06359863281,0.37414550781,0.013468296223189648,-0.04236291956,-0.19689941406,0.17431640625,0.011160590292090196,1.1242851305290125,0.67504893849,1.52773859817,0.06666677384862967,974.9252199805434,974.87561590889,974.96912068533,0.0008069179276887642,0.0006715553895534934,Stairs down
-1.104059128530119,-1.37524414062,-0.78576660156,0.025585947770460957,0.1702968052409524,0.02185058593,0.376953125,0.009360826082220733,0.005753290085595238,-0.15014648437,0.13781738281,0.0035326156914295354,1.1226121260365478,0.79817983907,1.39296728744,0.026054145965830066,975.0000279326517,974.958342427,975.03495929046,0.0004971022489269378,0.0005920253036553284,Stairs down
-0.9970739027993135,-1.42932128906,-0.62780761718,0.06734785539547179,0.21434948490725483,0.07153320312,0.33190917968,0.00576118560627095,-0.030615713080980395,-0.16674804687,0.08605957031,0.005911845983031256,1.0297358398834315,0.63291601817,1.44950095356,0.06452593134916071,975.044465611451,975.01386406731,975.13357562574,0.0006854026804562603,0.0006182145034739591,Stairs down
-1.001216634111222,-1.4580078125,-0.59582519531,0.08101258835483204,0.16593017577722222,-0.01428222656,0.29821777343,0.003719358447465743,-0.06300048827966666,-0.21325683593,0.0830078125,0.007494801567019783,1.0234434734756666,0.61709568692,1.46797455953,0.07857515375938162,975.1159779842443,975.07406943233,975.15783575952,0.0005970987949193463,0.0006482369735796645,Stairs down
-1.044143304587683,-1.40161132812,-0.67138671875,0.061488355250734934,0.18179693454268292,0.06433105468,0.32202148437,0.003800617792893739,-0.06445014767365854,-0.23718261718,0.12561035156,0.010489849018911236,1.06978845514561,0.70068163721,1.41910782557,0.05918288549792159,975.1899297374883,975.15266956105,975.22976161413,0.0004893711936399167,0.0008325969056642543,Stairs down
-1.0107861328082999,-1.46484375,-0.65905761718,0.05700249669601019,0.1569287109342,0.01623535156,0.30114746093,0.004134601812137038,-0.06494018554519998,-0.29638671875,0.1201171875,0.014456372818773542,1.0353194925310003,0.68921134102,1.46712786296,0.05402377706052713,975.2712577781634,975.21918608033,975.3147197749,0.0006408009151728004,0.0007539997339491307,Stairs down
-0.999867540721383,-1.36730957031,-0.62963867187,0.03544014585243044,0.1967007251459575,0.06481933593,0.3291015625,0.0042270774431652355,-0.01808198969287234,-0.19677734375,0.14440917968,0.009495288528470085,1.025737720338511,0.6468623805,1.39873430629,0.035633952668017964,975.3323027898592,975.29668892818,975.37170746695,0.0005638873097241413,0.0007853271803099329,Stairs down
-1.0318187040399998,-1.44873046875,-0.64807128906,0.06882311246030134,0.17129049861776474,0.02941894531,0.36145019531,0.0046910995152322586,-0.0599738625895294,-0.26135253906,0.11083984375,0.01026443570238044,1.0548087646130588,0.66564010146,1.4569482703,0.06856527402384567,975.3854880496872,975.34589954278,975.43507100696,0.0009215464158384425,0.0008598070823111231,Stairs down
-1.0769899046224674,-1.45251464843,-0.6552734375,0.03519647923891543,0.17745694246792204,-0.00549316406,0.40197753906,0.008552566027977476,0.002447747565714286,-0.22607421875,0.1279296875,0.006803284701165449,1.0981926920902598,0.66830321075,1.46185932044,0.03573694598192263,975.4453850155222,975.40376655129,975.50844241821,0.0008968362716221465,0.0005446986125782687,Null
-1.0992746254802062,-1.31372070312,-0.90612792968,0.0115484788636284,0.19749466413835048,0.03039550781,0.40539550781,0.013079649538435921,0.011618073452474226,-0.0859375,0.10327148437,0.0024166734297772375,1.1235618386913402,0.90865705077,1.3288457878,0.012275760917481419,975.4690338100396,975.4413700229,975.50920074326,0.00041639329824797247,0.00010275994070913552,Null
-1.046854654943646,-1.28527832031,-0.88391113281,0.007192903652563489,0.1738370259558333,0.04382324218,0.30773925781,0.004812890995445959,0.027460734047604168,-0.16613769531,0.16979980468,0.00952165720165478,1.067618733757396,0.8873584977,1.32339887641,0.00845964022701265,975.4691651884605,975.44377446956,975.49810989421,0.0003529354478175288,0.0001068883202362139,Null
-1.004283685789655,-1.07653808593,-0.92822265625,0.001398117262264023,0.19044652478114946,0.11328125,0.29162597656,0.002042577423480035,0.028085993622183926,-0.07580566406,0.12719726562,0.002695617016560864,1.024712119478736,0.9431235451,1.09726902386,0.0016947549019410521,975.4757354837994,975.46073208921,975.49296977043,8.416534825869332e-05,3.9186034565136466e-05,Null
-1.0399547758521428,-1.13342285156,-0.92724609375,0.003167477349256689,0.2074003673703572,-0.03234863281,0.33093261718,0.007814069819664983,0.02200172060892857,-0.29455566406,0.25463867187,0.017516058833141165,1.0723994768621428,0.97205969505,1.15941006332,0.0031602568293852477,975.485102428896,975.45457773685,975.56298530176,0.0006423378755534039,0.00028345856222021076,Null
-1.0837510052809802,-1.28979492187,-0.89050292968,0.012305843683477221,0.1742075003794118,-0.01672363281,0.32397460937,0.007436032019779555,0.07525395411882352,-0.09692382812,0.21203613281,0.008041563520538223,1.105924884654608,0.91465324483,1.33144693059,0.012782864854317004,975.46701145206,975.43671723406,975.54258964584,0.0007158964716235453,-6.545199399539697e-05,Null
-1.0406722184015385,-1.19519042968,-0.85144042968,0.007528346416548605,0.18123148823505494,-0.15087890625,0.32568359375,0.0116149141965948,0.006921789148681318,-0.13305664062,0.17260742187,0.006269352466832191,1.0642949977163736,0.86760030835,1.22916474652,0.008393173757327229,975.4714047798999,975.45339846905,975.50381724975,0.0001875836217182663,-2.6257466170050955e-05,Lift up
-1.0941764925707407,-1.52917480468,-0.849609375,0.02695641149678371,0.1616723331360494,0.0341796875,0.32043457031,0.006304279664173916,0.05923122829679012,-0.07861328125,0.44543457031,0.011732055991433541,1.1140513130364198,0.85182623322,1.58819916321,0.030572874554058237,975.4652852872067,975.43412799343,975.53251084935,0.000795344416818596,-0.0003127190722291933,Lift up
-1.0421412083977921,-1.44165039062,-0.94067382812,0.005993828421962002,0.1971705052722078,0.06665039062,0.39538574218,0.005826832676887701,0.07800610034324675,-0.07275390625,0.44543457031,0.012835379875539912,1.0709643364324675,0.9813506503,1.54254533776,0.008501084512077057,975.4789547708302,975.45345814242,975.63744715616,0.0008105606067209074,0.00041276105882945236,Lift up
-0.9313623046845998,-1.04028320312,-0.64880371093,0.004919422419378647,0.2856750488238,0.10339355468,0.62280273437,0.01982063788798885,0.29687622069989994,0.07202148437,0.39794921875,0.006635101905657455,1.0320545065264997,0.86418300671,1.15296625037,0.0031377501753262578,975.6855052144865,975.50353847395,975.89072032362,0.0099605970678002,-0.0011342379338945144,Lift up
-0.5696944387303158,-0.70654296875,-0.24279785156,0.013214796721408819,0.6249383223644209,0.39367675781,0.99401855468,0.021261017967281456,0.41671977795631554,-0.04187011718,0.95190429687,0.05339031125960672,0.9777624583315794,0.72179374774,1.28067595717,0.01988615601769703,975.3241375499175,974.9876103631,975.89072032362,0.04186363205211866,-0.0029018567796836535,Lift up
-0.7159983915403529,-0.7666015625,-0.64697265625,0.0009098803545796616,0.6784050436543528,0.60888671875,0.76831054687,0.0022837514761279067,0.27148437499611766,0.17468261718,0.44079589843,0.003866994310032589,1.0261180959122354,0.99996079427,1.09630205917,0.0006578180414576372,975.4154625641742,975.33922047379,975.58855966624,0.004094914964918292,-0.0011023139185965202,Lift up
-0.7917782215546068,-0.83386230468,-0.75964355468,0.0003024716542570011,0.6343390646906741,0.59521484375,0.68786621093,0.0009524399325304626,0.14163036560393258,0.05883789062,0.255859375,0.004599153664448234,1.027133249866517,1.01021382255,1.05915673266,0.0001451689510121286,975.4721280625718,975.43776322849,975.51336896032,0.0003642989283422897,0.00041934476927162236,Lift up
-0.7946459960906,-0.81579589843,-0.77355957031,0.00015192038479439624,0.6354528808548,0.60607910156,0.66064453125,0.0002773153225044338,0.07252441405960001,-0.00842285156,0.17590332031,0.003108919353137176,1.0217145183732002,1.0051690112,1.04403678272,0.00012588887026318996,975.5240310842191,975.47898174872,975.58817931346,0.000998012715881776,0.0005045379912272619,Lift up
-0.8050674266988763,-0.82946777343,-0.78356933593,0.00013302857163921975,0.6306412943255055,0.60009765625,0.66467285156,0.0002799106835972124,-0.007933198736179776,-0.1044921875,0.06079101562,0.0027380865043603324,1.0241161521422473,0.99801637188,1.05599116534,0.00020901567308806296,975.5999027739686,975.42806409002,975.76522893796,0.008575545988767464,0.00048522060635158853,Lift up
-0.7961837768515,-0.81494140625,-0.78430175781,8.158251597330856e-05,0.632049560542875,0.60009765625,0.66174316406,0.00027498885800005945,-0.0887069702105,-0.12963867187,-0.05212402343,0.0008741253515616562,1.020953191824375,1.00010476457,1.04674507872,0.0001357703205632777,975.502650155493,975.21496432087,975.78110731891,0.027088328918328738,-0.005048278145654847,Lift up
-0.7786993729402629,-0.80065917968,-0.75988769531,9.253326213276108e-05,0.6607023540252631,0.61376953125,0.71398925781,0.0007755329106986033,-0.03859831157513157,-0.14501953125,0.03466796875,0.004699764259156057,1.0244205115892104,0.99545881941,1.07277170686,0.00045329301221070327,975.3583221206268,975.20030168194,975.5495348135,0.008473156773392528,0.000963769279432526,Lift up
-0.8151613745308911,-0.83666992187,-0.79760742187,0.00016881645316938214,0.6885249071753465,0.62573242187,0.72106933593,0.001006648564102955,-0.03744053604534654,-0.13513183593,0.01965332031,0.0023272160695917378,1.0691029968093069,1.03473235033,1.10047291917,0.0004476232701565161,975.49854783285,975.27242219916,975.90901278861,0.0313766486266411,0.0020514367941143665,Lift up
-0.7850783327760638,-0.7958984375,-0.77185058593,5.699673363198208e-05,0.6431313372640425,0.62194824218,0.66687011718,0.0001912939619535584,-0.1039701421168085,-0.146484375,-0.07800292968,0.0003512208193864427,1.0205049695393615,1.01031120805,1.03335100785,4.294572109043769e-05,975.280165690396,975.1160964975,975.36412322918,0.006177807364340029,-0.002476189483007799,Lift up
-0.7769789751798822,-0.78625488281,-0.76281738281,3.6290179434754944e-05,0.6512709673676469,0.61901855468,0.66528320312,0.00014101681758235898,-0.11679543887435292,-0.15747070312,-0.08630371093,0.00037140970220004204,1.020772749298235,1.00633692099,1.03702554884,5.730502975182647e-05,975.0533579968212,974.88891399993,975.24027441826,0.01294764128152512,-0.0037576363666697032,Lift up
-0.7975547096917045,-0.82958984375,-0.76550292968,0.0004914950349462254,0.6146032159938636,0.57653808593,0.65209960937,0.00047289270830890224,-0.1488328413494318,-0.193359375,-0.10888671875,0.0005548716256900501,1.0185329333598863,1.00258331111,1.03613081346,7.535778155928711e-05,975.0052089883935,974.84636556885,975.32232203079,0.025088872575459303,-0.0008164887905922916,Lift up
-0.8056159741903031,-0.83850097656,-0.69665527343,0.0012103111823863852,0.615086410981212,0.57849121093,0.73889160156,0.0011552411904018718,-0.14454358033151515,-0.25695800781,0.03125,0.0032218604960122374,1.0264339548736363,0.99351948217,1.05621150781,0.00020764552948476098,974.5456342438073,974.21340005289,974.96633573545,0.056783921375495636,-0.007346966964269181,Lift up
-0.7815764352142696,-0.82739257812,-0.72326660156,0.001116834166102551,0.6538483694661797,0.59143066406,0.73889160156,0.001419135377902192,0.09127704748561799,0.013671875,0.19116210937,0.0019354486762888105,1.0252064795695506,1.0005861442,1.04922081612,8.471742947788192e-05,974.3756124443623,974.28345006621,974.526049848,0.005464501602530761,-0.0016890184720825944,Lift up
-0.7667537736270369,-0.77783203125,-0.75549316406,3.908557103745505e-05,0.6641212745903704,0.65258789062,0.68273925781,5.429465738605499e-05,0.1092273099893827,0.09631347656,0.1201171875,3.4670053445717136e-05,1.0203007892306173,1.01375164239,1.02858347482,1.1938279442227773e-05,974.1927166808653,974.10330924468,974.28345006621,0.002711367533721837,-0.0022033937730299735,Lift up
-0.7609796209601097,-0.78442382812,-0.70349121093,0.00021571098522824941,0.6683913010767033,0.65209960937,0.71801757812,0.00020809812932610352,0.09012008499000002,0.05712890625,0.10925292968,0.0002301096369993763,1.0171238903037363,1.00815781879,1.04873239801,6.498330036767409e-05,973.9870668649123,973.87131062697,974.10330924468,0.004472168920772113,-0.002493995985258828,Lift up
-0.6960262376392858,-0.7431640625,-0.66870117187,0.0004623591752749585,0.7229527064696939,0.62561035156,0.775390625,0.0023006981180496377,0.03738839285561225,-0.01867675781,0.17248535156,0.0026840696628227007,1.0065994291804081,0.94394986802,1.05604105383,0.0006296156173384284,973.7864782332837,973.69285217715,973.87131062697,0.0026991429155942227,-0.001767666600893296,Lift up
-0.7383741898930682,-0.75366210937,-0.72021484375,8.082321124284628e-05,0.6350028298073863,0.58898925781,0.68212890625,0.0008884580511992039,0.1379214200065909,0.09753417968,0.181640625,0.0006248178632397046,0.9840767637065909,0.9576582509,1.01756278555,0.00037428941280919165,973.6100028866866,973.55678160276,973.69285217715,0.0017271048220581856,-0.001536047539325215,Lift up
-0.728822326657,-0.74267578125,-0.7099609375,7.594235099427801e-05,0.69891052245775,0.67602539062,0.71789550781,0.00011473176413149541,0.13930053710600002,0.1220703125,0.16723632812,0.00016998267622154295,1.01945958271325,0.99308044321,1.03362014805,0.00012237940893666116,973.5704884419399,973.55510331978,973.59301556429,9.79731807321519e-05,3.114701716520081e-05,Lift up
-0.7162493715151484,-0.73986816406,-0.69775390625,0.00015481967147593027,0.7283730081946533,0.67590332031,0.76794433593,0.0004486862031583201,0.0668909053951485,0.00866699218,0.13330078125,0.0016037143634912738,1.0248642186049501,1.00187318419,1.03902316198,7.530723624536403e-05,973.5365550861079,973.47513736815,973.61457858381,0.0020180097770858135,-0.0011068654060817692,Lift up
-0.7146956197296628,-0.73254394531,-0.69555664062,0.00010014036566152734,0.7211571168321349,0.70080566406,0.73962402343,9.254975371534845e-05,0.07065676570876404,0.01831054687,0.11755371093,0.001326542537917898,1.018479666112809,1.00288919963,1.03468757672,5.1707889608514585e-05,973.5406191249107,973.51812705631,973.57625459675,0.0001277277787794218,0.0002533121745691696,Null
-0.7355384355674074,-0.94323730468,-0.63586425781,0.005640018390855904,0.6818757233755555,0.47119140625,0.77404785156,0.0063094745493394834,0.10397376542925928,-0.1669921875,0.36267089843,0.015459458727522113,1.0203465349148146,0.89241321801,1.18056347515,0.002779671391707059,973.5660161685017,973.51786856513,973.65052539968,0.0009240936960860419,0.0006904936340182423,Null
-0.8224202473932,-0.97875976562,-0.61730957031,0.007372739078684808,0.6043766275994664,0.49792480468,0.75256347656,0.00490725076420289,-0.0435123697912,-0.23852539062,0.0703125,0.010255336879098782,1.0290373188337336,0.84432766707,1.17093413412,0.006949205860825791,973.5566056285952,973.40817540469,973.72527204951,0.006715671845538728,-0.0005683790417190337,Null
-0.8143643465869697,-0.96325683593,-0.65002441406,0.004978076480548204,0.6218175406376767,0.50805664062,0.796875,0.004857502802472882,-0.10159949100111113,-0.25769042968,0.08959960937,0.007767506233802912,1.0348036003533336,0.88368650231,1.16257624504,0.0044359317345454875,973.5190952273184,973.40817540469,973.7721906551,0.008730100374295334,-0.0006473797447693762,Null
-0.8340613323660869,-0.85913085937,-0.75805664062,0.0006765856577276442,0.5890622346256521,0.54772949218,0.64123535156,0.0008599712493901108,0.020278267238478264,-0.04724121093,0.0810546875,0.002348498604248616,1.0231202697094568,0.98655028154,1.03744333353,0.00013301672642164773,973.5251416328919,973.48834572519,973.58418013641,0.0007362224400052408,-8.054992933475254e-05,Null
-0.6993790592013253,-0.9072265625,-0.57263183593,0.01265365827668514,0.7204442771042169,0.61657714843,0.90600585937,0.005761393104238869,0.15854286285433736,-0.0283203125,0.37182617187,0.014670158322350687,1.0313839751898795,0.94698666269,1.13446867006,0.002267876479704344,973.5261724570823,973.47746636311,973.61896246105,0.0016593526995639471,0.00010177340024597649,Null
-0.43398241064632176,-0.86328125,-0.33972167968,0.02168005931138133,0.8127834276181608,0.66088867187,0.89428710937,0.003501991717738494,0.4010023796659769,-0.00231933593,0.50415039062,0.018444866806045554,1.0224349182174712,0.80998855113,1.25744445818,0.0076001970679359255,973.5104723076809,973.44806768623,973.64437405195,0.0017090423493940137,-0.0003238688096480329,Null
-0.5929382953406185,-1.05810546875,-0.34826660156,0.04754517383907791,0.6968692110940207,0.34777832031,0.95471191406,0.021675640416222854,0.44014527625247424,0.11462402343,0.69177246093,0.01658716323550105,1.0471513746092784,0.92791982303,1.42501511565,0.019529072125035473,973.5624680730127,973.49472519562,973.69143302619,0.0029991983277501684,-8.367084599003566e-05,Lift down
-0.7424947804378159,-1.10986328125,-0.42639160156,0.04966289666602275,0.6377977393103448,0.24475097656,1.11328125,0.06188660924979534,0.029503131733103444,-0.34533691406,0.27844238281,0.016787118103692274,1.0371619606334483,0.8441585064,1.24007966285,0.010229022829531536,973.533807620951,973.45843346641,973.68774186086,0.004303886054487525,-0.0011701370285157897,Lift down
-0.9930667152843036,-1.09594726562,-0.91101074218,0.003267212319006078,0.23818081239746836,0.12475585937,0.30688476562,0.002458616617240986,-0.05549409117683544,-0.32385253906,0.15783691406,0.019252704281162363,1.0333735731610125,0.95356872266,1.12077519081,0.0028284046905052975,973.5443463603328,973.51105802276,973.56467483326,0.00020310185522875272,0.0004510576541892344,Lift down
-0.9822595617236263,-1.05407714843,-0.95349121093,0.0006980641202259962,0.27135559752329663,0.22045898437,0.31115722656,0.0005431620156616084,-0.11761944110230768,-0.31982421875,-0.01257324218,0.004143217970175058,1.0279871241013188,0.99526241242,1.11557128012,0.0008794512008982134,973.558138789991,973.54995148913,973.56773222855,2.4492583160071013e-05,5.43129402992234e-05,Lift down
-0.9768747430072632,-0.99523925781,-0.94738769531,0.00018690105314420099,0.2407637746673685,0.2275390625,0.25256347656,5.4054314321194406e-05,-0.128567023022,-0.15869140625,-0.10534667968,0.0001864354594684989,1.014403696987895,0.98327967088,1.03580522886,0.0001909799519297346,973.5541502846843,973.54460553548,973.56328933973,2.9618962872760426e-05,-0.0001698934818036733,Lift down
-0.9739621184555814,-1.02368164062,-0.94934082031,0.00024088483336735033,0.2526670943818606,0.24169921875,0.28295898437,8.114769789325908e-05,-0.1286748841703488,-0.15270996093,-0.09545898437,0.00017913195282793476,1.0145223709756974,0.99309757876,1.06634999221,0.00024261142941581137,973.5618675020164,973.55301002,973.57043000271,2.2406689444332793e-05,9.729101597681632e-05,Lift down
-0.9815331435743904,-1.02038574218,-0.95141601562,0.0003722495040666238,0.24424929734792677,0.18579101562,0.29455566406,0.0009140085313195957,-0.07887230849439025,-0.14392089843,-0.02294921875,0.0012031272569623056,1.0154826272204878,0.97364216362,1.06390703524,0.0005465988249094056,973.555373602629,973.54752885194,973.56229871932,1.687097164674966e-05,-6.969897811580701e-05,Lift down
-0.9811456853656564,-1.04150390625,-0.90649414062,0.0009858192451752672,0.23951921558999995,0.14453125,0.28430175781,0.0012088478859007459,-0.10300761521010099,-0.18920898437,-0.02526855468,0.0022280364338155435,1.0168113078146463,0.94380899143,1.0756106774,0.0011108945890184467,973.5547003123403,973.54463067463,973.56824518065,5.505577484958176e-05,-0.00016035186755937992,Lift down
-0.9736056857599998,-1.00427246093,-0.9462890625,0.00012993604202826302,0.24678683810399996,0.21667480468,0.2685546875,0.00016583680701372534,-0.15941840277466668,-0.19201660156,-0.12744140625,0.00030318870676941087,1.0171874959492222,0.98778391752,1.04333543225,0.00014956832988899743,973.5562743333243,973.54107895988,973.56687356977,4.731151605043641e-05,-0.00012208152625720325,Lift down
-0.9755203247038751,-0.98962402343,-0.96337890625,4.3789775967528375e-05,0.23858795165712499,0.21508789062,0.26000976562,0.00016613700486002808,-0.16473693847162502,-0.20190429687,-0.14013671875,0.0002875791980237962,1.01792144666,1.00504669395,1.02751673123,2.9963613108851202e-05,973.5594816550129,973.54953749283,973.57465807598,3.4508028811993294e-05,3.942596248584784e-05,Lift down
-0.9391915457545453,-0.98352050781,-0.92370605468,0.00033664300031069176,0.22496924461961038,0.20947265625,0.2392578125,5.990929357622908e-05,-0.1387812626781818,-0.15710449218,-0.11743164062,0.00011644809827266468,0.9757427448857146,0.95778760022,1.02173143976,0.00038965380596282405,973.5568154210504,973.54784731329,973.57330465646,5.8913871274835465e-05,0.0002848381105122552,Lift down
-0.9741936107635644,-0.99145507812,-0.93774414062,0.00018996959275173564,0.230971534649703,0.2109375,0.24536132812,0.00010030367586111904,-0.11594745900079208,-0.14282226562,-0.08337402343,0.00023042849679600938,1.008030110082376,0.96658739074,1.02303329522,0.0002380547682239229,973.6582268932792,973.57330465646,973.74901955518,0.003090964836632533,0.0018872279127726563,Lift down
-0.9870221427277529,-1.0107421875,-0.97058105468,0.00010641887633533878,0.21692580319101123,0.20239257812,0.23315429687,7.342931884425217e-05,-0.08801818161573033,-0.12573242187,-0.05822753906,0.0002714669535383105,1.0145633083407868,0.99787392956,1.04194028201,0.0001256641367960356,973.8651806793782,973.76345844782,973.96771104459,0.003897156951906358,0.002404722230406894,Lift down
-0.973430354417439,-0.9873046875,-0.95874023437,5.7000517680014385e-05,0.24881204744292687,0.21862792968,0.26611328125,0.00017653499447567398,-0.13739758002695124,-0.18615722656,-0.07287597656,0.0013426733964770853,1.0148084134404876,1.00274262731,1.03434592145,7.39576307520937e-05,974.0866889220566,973.96771104459,974.18125844189,0.004094263092038297,0.0026492079966904626,Lift down
-1.0138801906388044,-1.03881835937,-0.95825195312,0.00046689056371799933,0.24358998173923918,0.23376464843,0.25109863281,2.9195957974527823e-05,-0.13429326596108696,-0.15612792968,-0.10705566406,0.00012844906317415004,1.0514220702766308,0.99584856942,1.07816124592,0.0004581587299484249,974.3030143986747,974.18444744169,974.39943572152,0.004217504338001727,0.002414589539430851,Lift down
-0.989713628238936,-1.03186035156,-0.97265625,0.00027908919177046637,0.2315608897069149,0.21813964843,0.24609375,4.99238144454271e-05,-0.13148920586478724,-0.1484375,-0.11254882812,7.533011358552887e-05,1.0249447787739363,1.00379234439,1.07076680503,0.0003347257943490783,974.438596424832,974.39943572152,974.4595630216,0.0002923242881701561,0.0005954350839751655,Null
-0.977942612588,-0.99987792968,-0.96411132812,8.851184147018243e-05,0.23103745403988232,0.21813964843,0.24743652343,4.635203202098848e-05,-0.12852711396694122,-0.16357421875,-0.1005859375,0.00028757326075353655,1.0132220922949418,0.99672542065,1.03395363387,6.85430681925779e-05,974.4777736810407,974.4595630216,974.49134569361,7.80767270572449e-05,0.00010145374924279546,Null
-0.9782558343315384,-0.98876953125,-0.9677734375,2.7672562881622567e-05,0.22721667167115372,0.21362304687,0.24108886718,7.507165312677781e-05,-0.13046342898141025,-0.15808105468,-0.10168457031,0.00031482135548325954,1.0129346499469232,1.00544612506,1.0178515896,8.313272633087243e-06,974.4730376520303,974.46560011947,974.48558477862,2.811820174158213e-05,7.869578258284022e-05,Null
-0.9804583293590243,-0.98571777343,-0.97302246093,1.1309871419110895e-05,0.2253283989102439,0.20959472656,0.23583984375,5.1232769941786095e-05,-0.10900134574695122,-0.1201171875,-0.09411621093,4.2253566223703196e-05,1.0119484967942685,1.00158778439,1.01881177223,1.6677767711969395e-05,974.4800957070102,974.47577326565,974.48456381399,8.196658031367418e-06,8.660132606172321e-05,Null
-0.9970391721095918,-1.12170410156,-0.90942382812,0.0020662651575172513,0.21411631058275515,0.0205078125,0.35852050781,0.008206911897677699,-0.07086555325051021,-0.16906738281,0.04895019531,0.0033520574432135512,1.0272780389691836,0.912878729,1.16808855596,0.0031732440039737866,974.4798648526427,974.46525412789,974.49031507207,4.973766707481765e-05,-3.3017711247370115e-05,Null
-1.0215255222916855,-1.16259765625,-0.86877441406,0.006298188778422101,0.21182902475044943,0.11157226562,0.30139160156,0.0030114875613097792,-0.02966857224314607,-0.24096679687,0.14636230468,0.011954574052347195,1.0495737536479777,0.89344596826,1.19012285116,0.0072334446592107636,974.4739748368778,974.45632956326,974.50596334864,0.0001779247945707018,-0.00023729103924229479,Null
-1.0813766479458748,-1.55737304687,-0.90893554687,0.023268345505269697,0.23656768798462502,0.02575683593,0.35681152343,0.005384540046396284,-0.1168823242165,-0.77221679687,0.185546875,0.04595134152552723,1.132089787867125,0.96222773825,1.73850309263,0.031438572030112,974.4745932600581,974.44851641378,974.55781059574,0.0007242555398922354,0.00029550724715964787,Null
-1.006598359789785,-1.05053710937,-0.95593261718,0.0005469271559165222,0.2019804267423656,0.13024902343,0.27258300781,0.0017958571451564416,-0.01721716439591398,-0.06970214843,0.05346679687,0.000819210097053696,1.0279690120820433,0.96907962298,1.07413152167,0.0007485348908821317,974.4631962213258,974.44306823272,974.47356835843,8.134213333906472e-05,0.00028590028108801355,Null
-0.9924778988447369,-1.03137207031,-0.96533203125,0.00033423468753399993,0.2283858449783158,0.15930175781,0.55822753906,0.0077641516958345735,-0.029331568665684205,-0.06286621093,0.04772949218,0.0003988605429904761,1.022137316448316,0.98149672795,1.17276813169,0.0016937523206900513,974.4756978465226,974.46701682978,974.50033252258,3.77579946228829e-05,9.047661292143662e-05,Null
-1.0878963694811763,-1.30639648437,-0.91760253906,0.013803178676846151,0.30017951516141184,0.05651855468,0.60998535156,0.028035585294333486,0.030834960936352945,-0.15698242187,0.26708984375,0.016159027530221696,1.1482763104603528,0.97336924514,1.36257784166,0.013513002751552327,974.4744186887422,974.45184975845,974.52999888948,0.00032332601808131794,0.0001482218137767414,Null
-1.1658000202880519,-1.36083984375,-0.88745117187,0.016822666281217237,0.16405140269506494,-0.06225585937,0.41882324218,0.014964186510225144,0.017349837661298703,-0.20556640625,0.23571777343,0.02481143150959299,1.1929598200284415,0.89707968565,1.41651925437,0.01926385629311735,974.4526386729741,974.40880677877,974.52734445578,0.0013290590411347044,0.00016905383136865326,Stairs up
-1.14649047851225,-1.3017578125,-0.98767089843,0.008012808161513363,0.222047424313,-0.05920410156,0.63598632812,0.030144577348321853,0.08051910400225,-0.18969726562,0.25524902343,0.020568506057856435,1.190625569848375,1.02707835493,1.40853021449,0.010765946752033635,974.4356679149114,974.40348545502,974.49722945644,0.0004737229469177847,-0.00011884905555583956,Stairs up
-1.0784406565627271,-1.32373046875,-0.83569335937,0.02175724354669359,0.1836664989717172,-0.05712890625,0.3271484375,0.01004010740570729,0.005678119080909091,-0.23767089843,0.25134277343,0.02356189500274053,1.108850204661919,0.85940036736,1.36357629966,0.02227617070686139,974.4199852892502,974.36231451466,974.50555977222,0.0012492202190224884,-0.0006784899853512828,Stairs up
-1.0740678765767417,-1.28198242187,-0.90319824218,0.01153582369152168,0.14635681837786518,-0.03698730468,0.34680175781,0.009562439169820686,0.019551823648314606,-0.11572265625,0.23474121093,0.011454624965155787,1.0932043983257305,0.91155238165,1.29814200958,0.012657887561808868,974.3766311748955,974.34576647637,974.40765554497,0.000440054528771042,-0.0003783873022819337,Stairs up
-1.1704027129336585,-1.34729003906,-0.96215820312,0.011489843272752435,0.17735327743463414,0.07751464843,0.33471679687,0.0073150975433096364,0.03081977658085365,-0.10302734375,0.15295410156,0.008818113592000984,1.1904523408499998,0.97564645909,1.36205808533,0.01250850893584339,974.3156373204633,974.25853048218,974.38184398399,0.0011548472452760745,-0.001032381523126269,Stairs up
-1.0831285559576087,-1.32189941406,-0.86462402343,0.019892044609103696,0.1651850161301087,0.02075195312,0.38842773437,0.010450570216383315,0.004446278446956522,-0.14916992187,0.18933105468,0.010815865794238296,1.105493753614565,0.88693041522,1.33149800855,0.019277532622476633,974.2507580744524,974.19358802476,974.31707192584,0.0010465345171807878,-0.0007972632538542557,Stairs up
-1.0758634868373684,-1.24438476562,-0.92797851562,0.009523232199657129,0.1506437602756842,0.02429199218,0.26062011718,0.0037316347823345515,-0.0017411081403157895,-0.13989257812,0.21166992187,0.015084263875070668,1.0949320386431576,0.95538323644,1.26919821845,0.009442869876922723,974.1837451314518,974.14531953436,974.25099903237,0.0008762426092835825,-0.0006916724664718357,Stairs up
-1.0907450831179069,-1.37854003906,-0.77331542968,0.04008469061607345,0.18129996365918608,-0.03369140625,0.40307617187,0.012125760357465824,0.013346827308023257,-0.15185546875,0.24609375,0.011313795555390064,1.113702979872558,0.7823256431,1.43905156822,0.0431348389637774,974.1241536640636,974.05796614411,974.25171755005,0.0024896534917117274,-0.000843749044544054,Stairs up
-1.102791028140128,-1.32421875,-0.89575195312,0.013689208084758,0.10983824118423079,-0.15319824218,0.32238769531,0.016278336325606768,0.006748297276153846,-0.21594238281,0.24609375,0.019447462858733215,1.1242494301212822,0.91300702085,1.34293855518,0.013272896234246242,974.0566705604957,974.02014629374,974.14024920757,0.0009891776539579771,-0.0008985402679022491,Stairs up
-1.0561721389317567,-1.26232910156,-0.79528808593,0.014329870280673283,0.14852492873378378,0.03564453125,0.26721191406,0.0028700695952652354,0.016916635873783784,-0.16784667968,0.13427734375,0.008981186643667564,1.072273953871892,0.81369446106,1.26733881097,0.014091738338234107,973.9967772024557,973.95779106657,974.03338530072,0.00038021298269491405,-0.0003651266036750062,Stairs up
-1.1205413510063638,-1.32727050781,-0.8740234375,0.015572286182444587,0.22631342723797981,-0.02075195312,0.54138183593,0.019222862841639054,0.010276100852626263,-0.32800292968,0.22033691406,0.018164968417886326,1.1587376779673735,0.94226385759,1.34836083389,0.016858735589304126,973.9826113798371,973.95012666059,974.02045585899,0.0005908249057536576,-0.00014888185389452677,Stairs up
-1.09450365149,-1.38598632812,-0.49865722656,0.03584080037451856,0.20209403659695654,-0.30908203125,0.70886230468,0.04178030915332764,0.0939012610376087,-0.1767578125,0.26611328125,0.016763787141172593,1.1500996314919563,0.88919950478,1.41753068047,0.018427803313018756,973.9728002304337,973.94660073081,974.04382004931,0.0005344735736039777,0.0002936110370295975,Stairs up
-1.088567159259759,-1.35546875,-0.49865722656,0.045346256182503965,0.2924598785744579,-0.07861328125,0.76513671875,0.06952080160331234,0.15667062782072289,-0.07360839843,0.40905761718,0.018898049233870274,1.1849036017453012,0.89400296666,1.47482496795,0.02349695606484725,973.985065342082,973.93612148218,974.08437876836,0.0015923008914993247,0.0003002523161646381,Stairs up
-1.2064354306139287,-1.40063476562,-0.931640625,0.015802309600832055,0.14895193917273808,-0.18017578125,0.48181152343,0.03182782432754855,0.0325811476927381,-0.24194335937,0.27844238281,0.028337187657707003,1.2393829160798808,0.94159156906,1.45064614734,0.017941181137138988,973.9638593547232,973.92656851228,974.05298013519,0.0009728874676053995,0.0003098484771829717,Stairs up
-1.172482885491515,-1.34106445312,-0.95568847656,0.012250053024794035,0.14880001183353536,-0.1005859375,0.44580078125,0.014072703297572101,0.049569178107575766,-0.2216796875,0.20483398437,0.01704844201423693,1.1951711726369698,0.97506986606,1.37836726734,0.013954592714407457,973.9622909993889,973.92476573664,974.02740111682,0.0011588332554650872,-0.00013613883261399362,Stairs up
-1.0667225230786364,-1.31884765625,-0.83227539062,0.022152204498869253,0.2015630548618182,0.04504394531,0.32934570312,0.007782975887163003,-0.00632684881,-0.19506835937,0.21484375,0.013145403690784234,1.0945971561906818,0.8474127512,1.35990941296,0.02327724715994959,973.9242191265927,973.88473532119,973.98216836964,0.0007601949912840159,-0.000595487721160899,Stairs up
-1.02339172362875,-1.21948242187,-0.86669921875,0.011933119001066191,0.168240356441625,0.00573730468,0.29248046875,0.005237170780386905,-0.0301300048815,-0.23718261718,0.21484375,0.017326128170838926,1.048528456032375,0.89827999724,1.23948731638,0.011338272748101192,973.8841584860236,973.83819993341,973.93581232575,0.0006322354052787558,-0.00047968073329522734,Stairs up
-1.1209179687472,-1.43322753906,-0.88842773437,0.02429968410256567,0.15931640624679996,-0.05285644531,0.35998535156,0.011743970400240656,0.02868001302093333,-0.12365722656,0.1689453125,0.009044960097714595,1.1413436259156,0.92466050729,1.44311534795,0.024814372053316096,973.839088901552,973.77664526632,973.90436895162,0.0010172168765046222,-0.0007164259674687844,Stairs up
-1.1132401176076085,-1.38366699218,-0.91613769531,0.01716347031453324,0.13877271569000002,-0.00891113281,0.32568359375,0.007766325922118039,0.01898724099869565,-0.15258789062,0.23217773437,0.014924401572312897,1.1320775879694562,0.94493998131,1.39218680941,0.016927268264146648,973.7670730092407,973.72814426782,973.83563484721,0.0009123157829546221,-0.0004199666089425072,Stairs up
-1.0883490379784042,-1.28271484375,-0.83227539062,0.021306947253859305,0.17079324924840425,0.00964355468,0.42309570312,0.007377512865549511,0.0549212516619149,-0.13049316406,0.25952148437,0.013917832495501494,1.1126245451353192,0.86066784279,1.34177549142,0.021130800388813608,973.7071934599678,973.66978633146,973.75058245695,0.0005921580477580859,-0.0006255085173988663,Stairs up
-1.069716342655465,-1.49548339843,-0.7431640625,0.05263696432730428,0.11533941224430232,-0.20715332031,0.41967773437,0.02089999989942575,-0.025218874907441867,-0.16357421875,0.12524414062,0.00511587766232103,1.0883281368623252,0.77567654005,1.50721385911,0.05211839372152914,973.6737359208536,973.63104403643,973.72527499514,0.0007038556672285312,-0.0007004218878304416,Stairs up
-1.0433627744230378,-1.38684082031,-0.68591308593,0.040254375854369334,0.22455065763088614,0.01623535156,0.4150390625,0.00914260816159407,0.07924062994303797,-0.42248535156,0.35571289062,0.0501029188551686,1.098700357292152,0.74628587815,1.42874016669,0.036872631816525864,973.6375085755105,973.53659517632,973.75781067855,0.0025164967811051116,-0.0002859671863248826,Stairs up
-0.9294470214806999,-1.26293945312,-0.55041503906,0.03538636350070768,0.19832275390240006,0.01391601562,0.44934082031,0.010550296132051194,0.06675781249710001,-0.34814453125,0.35571289062,0.03212198503012612,0.9780078392309997,0.61700328057,1.34573100688,0.02872627333557069,973.5673249319042,973.509290745,973.6143867798,0.0014130903506825497,-0.0005311775692295155,Stairs up
-1.0977172851526666,-1.3056640625,-0.79528808593,0.020544923172419155,0.1746663411418889,0.00305175781,0.3095703125,0.006653924738542159,-0.04590386284588889,-0.24328613281,0.375,0.027195616019073773,1.1264002944303333,0.80332002832,1.34704083198,0.022865249505885643,973.5594790863199,973.5067473364,973.61983743112,0.001041611941571991,-6.65392768796294e-05,Stairs up
-1.0602670064741464,-1.427734375,-0.90063476562,0.016393961909349313,0.1846194383564634,-0.19702148437,0.53674316406,0.028022544935194755,0.16003715701000001,-0.04321289062,0.43237304687,0.017996047740828768,1.109222270064512,0.94152638946,1.46473887258,0.015326645434253747,973.5500917165915,973.48643950975,973.65352821484,0.0023489499657374764,0.0005120521456085193,Stairs up
-1.1078076171835998,-1.31823730468,-0.94836425781,0.009553234335511885,0.1557373046856,-0.14587402343,0.42492675781,0.028612682141637317,0.0855224609352,-0.16491699218,0.25207519531,0.010940600085387215,1.138800000936,0.95131307098,1.33824352983,0.010532672595626052,973.5281771624451,973.48522940874,973.62676544512,0.0016059492236135768,-0.0007170742688428388,Stairs up
-1.0490636488942353,-1.31237792968,-0.80407714843,0.014410398115795017,0.2565085018352941,0.10693359375,0.47314453125,0.01349634542784837,0.08636977251505881,0.00366210937,0.27502441406,0.005130123720607112,1.092279389191412,0.82237446805,1.33828229531,0.013523927764941464,973.5399930469907,973.48586542462,973.68575278184,0.0037760455906263465,0.0004913066448174363,Stairs up
-1.1923708448181374,-1.58422851562,-0.86022949218,0.031346527807316414,0.25550872204,-0.04748535156,0.6552734375,0.043053777108947,0.39838484221480375,-0.17333984375,1.07470703125,0.11559034058084823,1.3461814964106857,1.11098394444,1.60661146701,0.021881314643087523,973.5194621662633,973.4305725035,973.71940523804,0.009087454000735812,-0.0011039870106093479,Stairs up
-1.196491156679889,-1.39721679687,-0.98706054687,0.014829805781637919,0.08878987629955556,-0.53332519531,0.58215332031,0.0648615887484317,0.20667724609011115,-0.05578613281,0.57116699218,0.03309949162543184,1.2564114660504446,1.00232551302,1.42172495081,0.015328411950380984,973.5086071341502,973.44142973597,973.61164478402,0.0024607924741796754,0.0009082311878667203,Stairs up
-1.0869125738341463,-1.4521484375,-0.91809082031,0.03094579720722909,0.24473013528634147,-0.09338378906,0.50012207031,0.023407484205950995,0.22866449123060983,0.06103515625,0.39270019531,0.006287853299953075,1.1508573417457317,0.93536516149,1.49590938318,0.029346098708031104,973.5046442670648,973.46399443609,973.52722242768,0.0003110066663092165,0.00046801036057228355,Stairs up
-1.1113885436358586,-1.29248046875,-0.87487792968,0.016520858532870324,0.1424104324469697,-0.08435058593,0.45739746093,0.019784037733823423,0.0898745758349495,-0.11315917968,0.22021484375,0.01120000601467773,1.1371709470138387,0.90436187905,1.36823042191,0.017587610251865043,973.5069971501867,973.47414103861,973.54773876537,0.0006018232149559626,-0.000619214467761727,Stairs up
-1.092955900491263,-1.39514160156,-0.7685546875,0.028597143379114027,0.16320286800589476,-0.05151367187,0.44055175781,0.01594107896580209,0.03911261307568421,-0.29040527343,0.32409667968,0.03517150609124747,1.1265762151843157,0.7868097175,1.44468693469,0.03275911588377274,973.4624755133642,973.39099203506,973.56302487895,0.002339971689349611,-0.0007167196976218537,Stairs up
-1.0143035178918607,-1.34387207031,-0.75866699218,0.026081687629865347,0.24037915606488378,0.02404785156,0.58837890625,0.018653620170273534,0.12271614961558142,-0.0302734375,0.25793457031,0.007853985837485608,1.0607520882195351,0.80683513263,1.38143270695,0.028770355026927905,973.3975713824773,973.37226340989,973.42752081993,0.0002556199475716509,-0.00041123649036212996,Stairs up
-1.1166049619222784,-1.44396972656,-0.80871582031,0.03809065809222287,0.17198007317746838,-0.02734375,0.41748046875,0.0104168961958503,0.09476210195594935,-0.08776855468,0.232421875,0.009297467252651797,1.142619139671013,0.83482681892,1.46726704362,0.03733100090696979,973.3348213273423,973.28514361357,973.41492760075,0.001451541744390674,-0.0012487322886746428,Stairs up
-1.07098210899233,-1.34777832031,-0.8037109375,0.033984382031120884,0.1441306697472816,0.01330566406,0.27502441406,0.005507705088210117,0.032396038758737866,-0.08581542968,0.18603515625,0.00888034065317149,1.0874495463688347,0.80980013724,1.36375030602,0.034517226426769264,973.2765478530677,973.24826567838,973.33591905916,0.0007739226233832941,-0.0006880310596196716,Stairs up
-1.0505291482635868,-1.3271484375,-0.85034179687,0.019002098567434948,0.178202753478587,0.08813476562,0.25170898437,0.0017835027166598276,0.08358499278032609,-0.08020019531,0.21520996093,0.009705499339258187,1.0744794120293477,0.88204289539,1.34232132392,0.01820572072590407,973.2132180733486,973.17923936916,973.25472908537,0.0004670769617261229,-0.0006369666970441368,Stairs up
-1.07799557605,-1.33178710937,-0.83068847656,0.02236167263284637,0.18130971149867472,0.00561523437,0.46545410156,0.015130377589793192,0.028888012988554212,-0.33642578125,0.29040527343,0.022775812276724743,1.110103699676747,0.83518878884,1.34369327181,0.023274121503874687,973.1715758676482,973.13098907142,973.26036612326,0.0007902648433171952,-0.000539457447954422,Stairs up
-0.9050903320273468,-1.23645019531,-0.73425292968,0.014632404541946309,0.26379643654040813,-0.01708984375,0.580078125,0.03164507893532509,0.11332609215551022,-0.28051757812,0.53051757812,0.06395901858889855,0.9950770688066328,0.77857253942,1.39925946954,0.0207650271915467,973.1888386498104,973.07500969053,973.30368733872,0.00547768771363256,-0.0011512716059503918,Null
-1.0621732075976043,-1.43249511718,-0.71520996093,0.024819055511787803,0.15859222411812499,-0.07141113281,0.3466796875,0.012499092852317616,0.09354527791270835,-0.12585449218,0.27062988281,0.014226216232121143,1.0902029643389584,0.71996665686,1.45627342131,0.024837803302624206,973.0238531514547,972.94168026012,973.13104320981,0.002216957862172789,0.0012725790730279607,Null
-1.0926125919078824,-1.27770996093,-0.89025878906,0.012197521545911395,0.16851734834235294,-0.10961914062,0.38354492187,0.013076693749965689,0.026989028032352945,-0.275390625,0.21789550781,0.01846135784525485,1.1196858300943526,0.9205084953,1.30165073901,0.012601714661006357,973.0846602137649,973.04917798833,973.25281383353,0.0029297021258384627,0.0007317534792905141,Null
-1.0339339818667947,-1.28967285156,-0.78698730468,0.01851120416747943,0.17005646534179486,-0.43249511718,0.37487792968,0.033894149353886446,0.04420979817615384,-0.08422851562,0.20678710937,0.0068686060377650265,1.0683322792017953,0.78969697654,1.31614303787,0.017295096745405275,973.0754807828539,973.05337643497,973.10267931993,0.00028783131730005125,0.00027212593384153547,Null
-1.0730066781046463,-1.26232910156,-0.91394042968,0.009286435968036402,0.27957430752505047,0.04431152343,0.68603515625,0.019269088646029428,0.04928927951121212,-0.59606933593,0.24584960937,0.04197549198094794,1.13425633584,0.94703142082,1.46715705807,0.015370966740639744,973.0985064572839,973.04183722918,973.30121311635,0.0052397982216413055,-0.0007603187273355537,Null
-1.0303698087955788,-1.25109863281,-0.86108398437,0.010423733165621087,0.17555895353315787,-0.01904296875,0.31591796875,0.01084315237173753,0.035436369242210525,-0.19299316406,0.14440917968,0.0063825835801257415,1.0539257686293684,0.90437285266,1.27691035253,0.010447495234126422,973.0797229704798,973.0661277204,973.11606446451,0.00015468080167054546,0.00025177153330957437,Null
-1.0305459665653485,-1.25402832031,-0.84020996093,0.011581070519452502,0.20558627815686045,0.11206054687,0.29028320312,0.001580429028224583,0.05349518531872092,-0.07214355468,0.18627929687,0.0051058585760124595,1.0555827963584885,0.87264573612,1.26986909332,0.011081200000525357,973.0868613185804,973.06708321927,973.13365966482,0.0004542034020245394,-0.0001598749776234157,Null
-1.0924474695197801,-1.24438476562,-0.94519042968,0.006362611404853459,0.2194877875991209,0.09362792968,0.41479492187,0.004329983364224092,0.10680347484351647,-0.15258789062,0.39331054687,0.027946625417661488,1.1335775618145056,0.98926644354,1.27398147548,0.006431684978607615,973.0931417546483,973.04994831968,973.19962678578,0.0018661747491329642,0.0004947278998151586,Null
-0.969795612370303,-1.04504394531,-0.90625,0.0014438282961946021,0.28002929687030303,0.13134765625,0.43408203125,0.007244468343491473,0.11992113517626266,0.03637695312,0.22058105468,0.0030106156511006768,1.0219865175897977,0.97251901845,1.06484632316,0.0004296548128227792,973.0792131051708,973.01895134619,973.19823968466,0.0033292945934219344,-0.0013238725075059412,Null
-0.9846371737362499,-1.09631347656,-0.92248535156,0.0008163981532859595,0.12664101340295456,-0.13598632812,0.3896484375,0.011131125570882564,0.18760542435681818,-0.08203125,0.31396484375,0.00524113855887966,1.018173056439659,0.94532664737,1.16638684393,0.001073265337048599,973.078146490012,973.05396332237,973.13758297088,0.00045824090930937563,-0.00023984863252692211,Null
-1.0263259887660001,-1.12145996093,-0.89501953125,0.002832799751421183,0.23216247558237502,-0.00732421875,0.51208496093,0.01682697835401341,0.05831756591649999,-0.08203125,0.197265625,0.005631478807424012,1.063832620741625,0.89687410414,1.1693547933,0.003929782305217713,973.0878684582815,973.07443168496,973.10502045579,5.0599187223629464e-05,2.1897935299766364e-05,Null
-0.9099106899487208,-1.09924316406,-0.67761230468,0.01186164775116208,0.3660874477613953,0.14086914062,0.71179199218,0.020954806136308343,-0.027231615644302324,-0.30920410156,0.30529785156,0.04071334117003081,1.0156573421372093,0.91591946355,1.20030087161,0.0038588754323044218,973.1465255961514,973.03626230763,973.30558193203,0.006869221362570859,-0.0008871554789652489,Null
-0.8777136230425,-1.00268554687,-0.79614257812,0.0021812719693557656,0.46853393554369993,0.25329589843,0.72326660156,0.01995480146550812,-0.0103076171894,-0.29309082031,0.25891113281,0.026260257464989226,1.0174480688938,0.91116545558,1.10271359896,0.002750802524497213,973.085861977332,972.97227236723,973.17373093626,0.0026966295999434325,-0.0012697542332925794,Null
-0.9652373924644942,-1.02880859375,-0.81433105468,0.0034244445755625473,0.2796095944488764,0.09497070312,0.44873046875,0.009778847055928115,0.06199388825089888,-0.0478515625,0.18493652343,0.00377998384229369,1.014359532399101,0.91992240954,1.08567843331,0.0015930822844675981,973.045166853557,972.94561553864,973.18855469385,0.003936136728555169,-0.0007451962634097581,Null
-1.0020424447379268,-1.0078125,-0.9951171875,1.5025171521124192e-05,0.1138201457659756,0.09204101562,0.13684082031,0.00015266477002005488,-0.0017625762197560975,-0.01794433593,0.01513671875,8.599555690339264e-05,1.0086029655539024,1.00088567553,1.01482125537,1.8063240970828357e-05,973.0864178028805,973.07187136346,973.09809121296,6.743652858797342e-05,0.0003263347196000352,Null
-1.0119986485916161,-1.080078125,-0.96716308593,0.00038330659960660133,0.10492991437414143,0.03942871093,0.12292480468,0.0005381812885609564,-0.022760564632727274,-0.37963867187,0.03356933593,0.012265029388613858,1.0236621102379797,1.00382114301,1.12024923409,0.0008473583546186067,973.1030572304676,973.09396331395,973.13212879053,0.00011511437588749185,0.0002090339870953178,Null
-0.5962954872490523,-0.96716308593,-0.47570800781,0.017255615670662246,-0.05744371915978947,-0.35607910156,0.11865234375,0.012264379344612336,-0.7682334498314737,-0.92077636718,-0.17932128906,0.03031182037153459,1.0022260592224213,0.70921564665,1.05657460258,0.003836034759774157,973.1668885157019,973.01579697803,973.31166511668,0.006198796515942169,-0.0015913501189196027,Null
-1.017664292274706,-1.29528808593,-0.58654785156,0.013746595036166058,-0.11869111902317649,-0.35607910156,0.03076171875,0.005995241024463209,0.08809455422611763,-0.17932128906,0.15795898437,0.007001051373090803,1.036093716933765,0.70921564665,1.30047343738,0.01055104893748819,973.1249663328953,973.01579697803,973.22431852625,0.001815489324203772,-0.0006995630827064367,Null
-0.9985811307792205,-1.06225585937,-0.93383789062,0.0009818787006038432,0.008987228592207793,-0.18640136718,0.27563476562,0.02346923164475042,0.0951197240238961,-0.0302734375,0.16674804687,0.0037761854586707564,1.0164940925881816,0.95314442505,1.07556933723,0.0009050278104972062,973.017223436501,972.90389123851,973.10407757165,0.004191878923234052,-0.0021831370649124625,Null
-0.9911061162493479,-1.02880859375,-0.93542480468,0.000504193260682824,0.17650305706097827,0.05249023437,0.27563476562,0.002276327142360409,-0.11622155230597828,-0.23510742187,-0.00268554687,0.0021787857787121958,1.0155564886386959,0.96046760359,1.0448358019,0.0005080534233051298,973.0830849768754,973.03338211021,973.11162828471,0.0003659628642855494,0.0006072122803814834,Null
-1.0057447783758162,-1.12817382812,-0.87512207031,0.0021217166813249297,0.21656768175612245,0.16320800781,0.25598144531,0.0007735740478801616,0.02195895447755102,-0.06384277343,0.08825683593,0.0009698710742667173,1.029811165864694,0.90391049462,1.14976739759,0.002243896635413943,973.0981616660903,973.08487387126,973.11673180298,9.987469945516131e-05,0.0003077116006611358,Null
-0.9949479536542044,-1.19018554687,-0.828125,0.01108166590213059,0.28747142444624996,0.08374023437,0.56066894531,0.0178067110218497,0.08370832963363636,-0.208984375,0.41491699218,0.03069948653093825,1.062740967155341,0.84879168042,1.21974467377,0.009164846153908864,973.0964086328012,973.06509023552,973.13954004995,0.0003263804007311154,-0.00037662666312248067,Lift down
-1.00642395019175,-1.26013183593,-0.75561523437,0.020389023224859307,0.358433532712375,0.12548828125,0.78674316406,0.04183639725338149,0.059613037107625,-0.93322753906,0.33630371093,0.10638757261120414,1.1289289153639999,0.84002578891,1.75436902896,0.037409938040438205,973.0930896322225,973.04959346834,973.17063252772,0.001194441385375059,-0.0005167295139330856,Lift down
-0.9173994797889423,-1.09436035156,-0.51416015625,0.019832833476249173,0.3498793381880769,0.15344238281,0.6484375,0.03081688506887902,0.06017596904625,-0.70361328125,0.16979980468,0.025517507641310035,1.0163164321501923,0.80098489172,1.33474911151,0.010293236237048376,973.1987437045835,973.05983285843,973.9962552884,0.06397948888361796,0.004060961150168224,Lift down
-0.5934572937636559,-0.74645996093,-0.35974121093,0.012777881823118483,0.6963809433753763,0.59716796875,0.98181152343,0.007852534773494242,0.46659079930784936,0.15502929687,0.71179199218,0.010510089273662197,1.0372442091510752,0.84053235766,1.30305311201,0.009881314822219238,973.0198447548664,972.79991933998,973.3287633315,0.018341965366983168,-0.0014177038792311416,Lift down
-0.6685864551919275,-0.76818847656,-0.58837890625,0.002003064006302743,0.6363540097859035,0.57580566406,0.76843261718,0.0016872288591523895,0.41259618551915667,0.21984863281,0.458984375,0.004196473190702086,1.0144305755955425,0.93142912921,1.10857369806,0.0009233630743282375,973.110252318249,972.93807219977,973.27633300408,0.010475375905284313,-0.0009785950553866738,Lift down
-0.7003427480680517,-0.802734375,-0.64624023437,0.0014495517618993712,0.6883322975805193,0.62512207031,0.76843261718,0.0012949684448235865,0.26431076247610386,0.12536621093,0.40441894531,0.008829041098281193,1.0220799865466232,0.96493635621,1.10857369806,0.0009293213533322604,973.1020217128387,973.01917406313,973.30348208968,0.005044998498832929,0.0009464180144587699,Lift down
-0.6795477973054443,-0.84167480468,-0.61328125,0.004601857153657739,0.6190700954831111,0.41589355468,0.70959472656,0.007759079162361987,0.42363688150688883,0.37133789062,0.45397949218,0.0002787595551972758,1.0182921856336666,1.00181353304,1.03500218954,8.239429254529627e-05,973.1283666152992,973.0289404601,973.26233263385,0.00439616039289352,-0.0009135366104602697,Lift down
-0.7972250179331634,-0.876953125,-0.73046875,0.002862755674072943,0.562593421155204,0.42431640625,0.65478515625,0.006015986450307695,0.276169134642653,0.19738769531,0.37133789062,0.0027348950705455913,1.0196375124847958,0.99520901302,1.04472398399,0.00022720421271522806,973.0774295371797,973.00782002864,973.15810680154,0.0020196875167404404,0.0012002341780086604,Lift down
-0.748236152558764,-0.77062988281,-0.73413085937,0.00013016537211366552,0.619154340762809,0.60437011718,0.638671875,9.631888372723432e-05,0.2921471756458427,0.24450683593,0.35217285156,0.0011372992138884452,1.014822582842584,1.00263717233,1.02642530282,4.3483916861040524e-05,973.0690641418889,973.00726611685,973.1614985591,0.0022169368781518183,-0.0010454750974725634,Lift down
-0.7709765022143209,-0.78601074218,-0.74401855468,0.00012729669241446094,0.5933657045682715,0.58227539062,0.61364746093,8.226711716997133e-05,0.3252661434179012,0.26940917968,0.37719726562,0.001005277359546863,1.0263885630813578,1.0164065435,1.03419921107,1.2201726836269022e-05,973.176444740195,973.07219272987,973.2878219314,0.00527234188635183,0.00295526637627243,Lift down
-0.7402056525692154,-0.77062988281,-0.72009277343,0.00014760180762488963,0.6302310719176468,0.59399414062,0.65539550781,0.0003137642785803465,0.2608810125584314,0.19287109375,0.37243652343,0.0034892538511092155,1.008283042865784,0.97911278173,1.05215957179,0.0003155746862914769,973.0703511091556,972.95068339769,973.25659739984,0.005248973278391661,-0.00020010035864003129,Lift down
-0.7276033791119354,-0.73620605468,-0.71923828125,3.273674694577388e-05,0.5980697139583872,0.58325195312,0.62817382812,9.480670490904052e-05,0.29669123823559146,0.24755859375,0.3193359375,0.0005361815586423407,0.9877976713898923,0.97472549083,0.99616126037,3.244838458109709e-05,973.1001419289595,973.03302024715,973.31616430453,0.004690840950894399,-9.406195350495673e-05,Lift down
-0.754429408477738,-0.78564453125,-0.71899414062,0.00032290693197291364,0.6218697684123808,0.548828125,0.68713378906,0.0009766115635633243,0.2272702171660714,0.13037109375,0.30908203125,0.0023869598413960766,1.0051669633401192,0.95001542053,1.06681771776,0.0005674339699858083,973.3421355494694,973.13983344223,973.5769093951,0.019294480195483917,0.0014815397045545126,Lift down
-0.7512508243681817,-0.75891113281,-0.7451171875,1.3938136727422588e-05,0.655864765114026,0.64697265625,0.67395019531,4.5168582126431564e-05,0.21189186789402595,0.18615722656,0.22314453125,9.726134070265847e-05,1.0195619478202596,1.00625274521,1.03414454413,3.617039786146981e-05,973.4287729541597,973.21425287845,973.59444070236,0.010382313105515576,0.004384496311149608,Lift down
-0.7450863022356626,-0.77075195312,-0.72277832031,0.00017467971377248758,0.6631432958356626,0.64208984375,0.70007324218,0.00027880557330219627,0.20462367045927707,0.19372558593,0.21179199218,2.9798438373847932e-05,1.0184398957136147,1.00501271141,1.02865535715,4.161635811524702e-05,973.7375874621122,973.59444070236,973.85017168302,0.005939365890466424,0.0031557699556678566,Lift down
-0.7468297977233663,-0.83935546875,-0.69177246093,0.001080096797835089,0.6532768022851484,0.61743164062,0.69360351562,0.000380182738327374,0.20383929261633657,-0.05346679687,0.27185058593,0.008764658386926957,1.0177923634795052,0.98252337255,1.07383774676,0.00030117204718760733,973.9834028393007,973.85017168302,974.12426898182,0.004681052062429809,0.002127875789528436,Lift down
-0.7833949497719778,-0.85119628906,-0.70642089843,0.0018871384007145278,0.6439893114651647,0.59167480468,0.70837402343,0.0011132688022522544,0.0910899403302198,-0.05090332031,0.24365234375,0.008161791667440266,1.0232018682392308,0.97888923411,1.07755118455,0.0008338957102477953,974.2784362418045,974.12426898182,974.56964415226,0.010341296294617316,0.001846771675387202,Lift down
-0.8074191954040243,-0.81701660156,-0.79309082031,4.659414299059305e-05,0.6116988019207317,0.58325195312,0.6416015625,0.00014654664532881255,0.07060874380378047,0.01745605468,0.10473632812,0.0007019565541051396,1.0158195471236586,0.99723792091,1.03830734576,8.261275494079586e-05,974.5472057316375,974.39766583846,974.61848763108,0.004354710202219119,0.00160014774592555,Lift down
-0.8116404739813402,-0.83959960937,-0.76245117187,0.0005076875033396148,0.6562739106770102,0.61047363281,0.67749023437,0.00026815870130690475,0.10470864207082474,0.01928710937,0.14721679687,0.0014234757998302296,1.0497093549354637,0.97692468411,1.08161035332,0.0007138829271401176,974.6893963938064,974.5061637325,974.83845131705,0.010107175143679413,0.003255390369947254,Lift down
-0.8020833333291666,-0.83447265625,-0.76428222656,0.00036103652234290836,0.6558024088504166,0.61669921875,0.70849609375,0.00045356018504152533,0.07467142740458334,0.03430175781,0.12231445312,0.0007138703737259056,1.0390403968754165,0.9881989064,1.09052982406,0.0006984954211822568,974.8823208065946,974.76689358156,975.09775978602,0.011291132697842082,0.003115017960856949,Lift down
-0.7942533271222092,-0.81042480468,-0.77648925781,7.113945018358137e-05,0.6343710256136046,0.60705566406,0.66564941406,0.00020673789500076767,0.07808099790779069,0.03930664062,0.09289550781,0.00016782806650123734,1.01965738482593,0.99652130076,1.03493270619,0.00010211577279612498,974.930729902066,974.8578470159,975.08659470718,0.0030412009073069917,0.001194158808322641,Lift down
-0.8187944461097435,-0.84338378906,-0.78601074218,0.00025479808634283526,0.5997877854533332,0.57666015625,0.62438964843,0.00022431538180249074,-0.005522899138461539,-0.06945800781,0.07849121093,0.002277835694719179,1.0163032961466667,1.00332638213,1.03043152378,5.009107144735606e-05,975.0146351852579,974.81887016766,975.21885415428,0.012308344697619813,-0.0009804664888845684,Lift down
-0.7710474917715789,-0.88159179687,-0.4091796875,0.019106015866105067,0.6016187165874998,0.51672363281,0.66918945312,0.002030014372077909,0.06759482935881579,-0.14001464843,0.57800292968,0.04313196951724793,1.0117151194376313,0.93404742913,1.06839645432,0.000895037769252738,974.9225564529322,974.81887016766,975.11514409136,0.0056527829682395106,0.002202888326956959,Null
-0.5730777662587755,-0.89318847656,-0.29736328125,0.02535540974701086,0.6002820073308163,0.20922851562,0.89990234375,0.02242023866357237,0.5862875179332653,0.27038574218,1.05615234375,0.03406164899273788,1.050538967089592,0.88192446106,1.25763483747,0.009961416869659696,974.9869579728116,974.70610120336,975.50031704784,0.043592552436721235,-0.0013085331245898872,Null
-0.6401315789437895,-1.1103515625,-0.26403808593,0.06154884109997986,0.5927567331386314,0.12878417968,0.869140625,0.03640514473039253,0.41071006372968405,0.01977539062,0.66015625,0.041800185344079754,1.0278034462422105,0.7775603812,1.21201188202,0.011839516511167509,974.9044434625655,974.69665243416,975.18885919707,0.016563271202750873,-0.002229505564501599,Null
-1.028201081028721,-1.12915039062,-0.91638183593,0.0035358881168093244,0.23957434365534877,0.126953125,0.49243164062,0.01078760882618571,0.09494657294639536,-0.22082519531,0.41125488281,0.024562369661391074,1.075924186120814,0.94105489196,1.17360047784,0.0044811382220595495,974.904438986589,974.85145504875,974.97937195083,0.0010341073426543184,0.0011489770960584397,Null
-0.9799574908045882,-1.04296875,-0.93103027343,0.0005226491796904582,0.2315846162650588,0.16540527343,0.35400390625,0.0035274809856973757,0.11754509420588237,0.05932617187,0.22778320312,0.002131396740693095,1.0165453845276469,0.95968009899,1.07285392756,0.0005153142223749192,974.9472851070634,974.91161839484,975.03551019376,0.0013621549041287245,-0.0002499728556639613,Null
-1.0020524567208822,-1.115234375,-0.83532714843,0.0045471825017209325,0.18829585056313725,0.06408691406,0.35217285156,0.005578748580964895,0.08349968405166668,-0.02490234375,0.19152832031,0.0030982905848862363,1.0269200119816668,0.85324826625,1.14280529535,0.005116675508894993,974.9547138839586,974.94485292939,974.97448088824,4.2277691915929136e-05,8.151372188065793e-05,Null
-0.9977638328425275,-1.12292480468,-0.83532714843,0.002750340726367697,0.20032006567351648,0.146484375,0.26049804687,0.0011001398093225898,0.06553834348956043,-0.01086425781,0.19995117187,0.004648758123358712,1.0226172310931865,0.85324826625,1.14308904326,0.0026449740614602445,974.9651028767956,974.94485292939,974.98325625884,0.00010165730118675966,9.160926834580623e-05,Lift down
-0.9783031322302469,-1.09497070312,-0.88452148437,0.0032177279807566626,0.24394470967938275,0.06726074218,0.38903808593,0.005990517392257997,0.09442515431765433,-0.04797363281,0.25048828125,0.008838839115808319,1.0193709700204938,0.9254500525,1.16834684777,0.004261871834959803,974.9555301966085,974.939920827,974.96831716629,6.445845158181292e-05,-0.00010029710168462404,Lift down
-1.0031993153292307,-1.14868164062,-0.87915039062,0.005563272209922859,0.2451507232972527,0.00598144531,0.49328613281,0.01733877429232488,0.23934098128197803,-0.08801269531,0.57836914062,0.06334820087528437,1.0950131470485716,0.92897770336,1.2501955237,0.010152060084525091,974.9371944875681,974.9154196292,974.96896266018,0.000181994724168278,-0.00019994139559780793,Lift down
-0.8454121290999999,-1.15979003906,-0.50183105468,0.045900435686844085,0.4614788016858586,0.00598144531,0.76281738281,0.03838920324499954,0.231086499760101,-0.23669433593,0.5537109375,0.036967292676235886,1.0398313156718182,0.77437038226,1.25774351961,0.02007100934113217,974.9794256076424,974.90188006495,975.26540416144,0.008528587932333052,0.00022281188549456117,Lift down
-0.7632765336440909,-0.86572265625,-0.60107421875,0.002885855475476291,0.5930522571864771,0.49450683593,0.64025878906,0.0011309049420383354,0.3462912819570454,0.18188476562,0.5537109375,0.00680421123055877,1.0315352245887501,0.98822169067,1.13448122698,0.0008625871460025804,974.9113042495327,974.81462581139,974.99017634582,0.0022202987373934873,0.0015204124017436022,Lift down
-0.7501874651194047,-0.79028320312,-0.72912597656,0.00020867925322278584,0.6444847470194046,0.59985351562,0.74731445312,0.001634749269172746,0.24591064452738093,0.005859375,0.423828125,0.014667356768265569,1.026935164535357,0.97978108064,1.06978225103,0.0003362663917988516,974.9314161356573,974.84660191297,975.05301895979,0.00338170985424706,0.0005829939720976848,Lift down
-0.7392949122974508,-0.75854492187,-0.70727539062,0.00016397526629014075,0.6304010129405881,0.60278320312,0.66589355468,0.00029739927427733663,0.3033303653444117,0.26428222656,0.33569335937,0.0003408501331401314,1.0181999947741176,1.0072846176,1.02845139496,3.519037862437834e-05,974.9713202127251,974.84660191297,975.0374211586,0.0030087544103952345,0.0014439594674791746,Lift down
-0.758449680198901,-0.77502441406,-0.74206542968,8.699258240414926e-05,0.6040615878226372,0.59240722656,0.61328125,3.924877798330871e-05,0.316942822798022,0.30517578125,0.33569335937,6.956089839072205e-05,1.0201698096032967,1.00947438214,1.03075926837,3.668549883412056e-05,974.9187796416167,974.89511298648,974.95108201718,0.0002123879309920898,-0.000272709561677232,Lift down
-0.7626238567042682,-0.77099609375,-0.74682617187,2.592027600776357e-05,0.6038133574651219,0.59448242187,0.61108398437,2.356263501372712e-05,0.31117657916926833,0.30029296875,0.32116699218,3.201927281381604e-05,1.021314647526951,1.00947438214,1.02700763904,1.3646314359182212e-05,974.9254971393877,974.9111056967,974.94331301486,6.968383679566185e-05,-0.0002537887585926807,Lift down
-0.7579963780615189,-0.77807617187,-0.73657226562,0.0001457310156307045,0.6018143665905064,0.58129882812,0.61743164062,5.615725801235597e-05,0.27271125889582276,0.10632324218,0.32006835937,0.004277235001669358,1.0076054226497466,0.96681711965,1.02700763904,0.0002675967790308775,974.977006208241,974.8815514706,975.26193708619,0.014459917806549627,0.0034065524770403384,Lift down
-0.7808494197463104,-0.79443359375,-0.76159667968,6.293561455422891e-05,0.5992562006929124,0.58239746093,0.61840820312,6.541022851826017e-05,0.0630321317462136,0.01989746093,0.11779785156,0.0009512874584512928,0.9868288901572816,0.97196638775,0.99903299097,4.5191754041713626e-05,974.9647401928466,974.76224274536,975.25708945155,0.01968845811631783,-0.0034445505499790022,Lift down
-0.7886034094733695,-0.83020019531,-0.77392578125,0.0001556887631683666,0.6279190726869565,0.59777832031,0.6533203125,0.0001946863408355238,0.10519011123847824,0.09436035156,0.12097167968,5.6592097022748684e-05,1.0136380933443478,0.98602959675,1.04296710696,0.00018502933546240982,975.0641458360006,974.8227527885,975.27128706716,0.013996371905087079,0.004336960767722971,Lift down
-0.844910403328795,-0.90380859375,-0.81030273437,0.0008191972875032952,0.6383909662042168,0.60571289062,0.66369628906,0.0003066763408775943,0.08971138459722892,0.046875,0.16943359375,0.0014290574138486087,1.0638245822115664,1.02432576427,1.09390054075,0.0002694007283996637,975.3969734082901,975.27128706716,975.52579980147,0.0035845522302141164,-0.0013865325263010145,Lift down
-0.7857879953251548,-0.81616210937,-0.75939941406,0.00023303429606123742,0.6416770699050515,0.62976074218,0.66687011718,7.795059533481146e-05,0.13322653229257733,-0.00415039062,0.19567871093,0.0044013185911230615,1.025412115329175,1.00525384842,1.05191635311,0.00015687862347673454,975.5940181406256,975.36860445558,975.88838206809,0.02227327931900537,0.004159270562752763,Lift down
-0.7786000569628125,-0.79907226562,-0.76220703125,0.0001298731617767907,0.653297424313125,0.63134765625,0.67260742187,0.000225887898544854,0.014607747393541667,-0.03552246093,0.03381347656,0.0003154844567688245,1.0167925232588542,1.0022886209,1.02414275032,2.6453175256833875e-05,975.5155134920345,975.3518524533,976.14269220638,0.0400291995215443,0.005081486851221892,Lift down
-0.7675525753960464,-0.77868652343,-0.76049804687,2.780595817374613e-05,0.6747138444729068,0.6533203125,0.69580078125,0.00015124018964958707,0.0025421852290697673,-0.01477050781,0.02990722656,0.00014780836653667596,1.022083358847907,1.00590432816,1.03295390651,5.145033403940933e-05,975.536111022337,975.24384490166,976.14269220638,0.05874306371052805,-0.008835178372564166,Lift down
-0.7432574990316049,-0.89379882812,-0.65673828125,0.004217667978796725,0.6787802613775308,0.48046875,0.87109375,0.007536462671351174,0.0753023124037037,-0.06518554687,0.31335449218,0.013821553208067558,1.0205469345844445,0.90173444777,1.18300035287,0.002621038849176636,975.420767977079,975.3370848727,975.50429030592,0.0022451626261697248,0.0006387654585683572,Null
-0.7913853913805826,-0.91784667968,-0.60485839843,0.0059439999964651285,0.6581924586597085,0.52026367187,0.87109375,0.007262700359854276,0.1336646218864078,-0.03979492187,0.25073242187,0.005706006399521965,1.0435287779472817,0.88974260654,1.20660996106,0.0072212687147167505,975.5255017429143,975.39010817754,975.72263676428,0.008086386880384593,-0.0006181181888814273,Null
-0.7784450656735165,-0.86694335937,-0.64111328125,0.0024771167099302354,0.6376175094398902,0.5458984375,0.82702636718,0.003462823402972627,0.10920866242923076,-0.05126953125,0.25073242187,0.01208421240728207,1.0191614804375826,0.88521687366,1.1807020574,0.003635250068812562,975.4617580686738,975.42247983235,975.58780295608,0.001125232796061298,-0.00037637479413196224,Null
-0.7776687805880721,-0.85339355468,-0.69128417968,0.002400672027700078,0.652955572286265,0.57397460937,0.72692871093,0.0025353335367904687,0.09085413921048192,-0.05627441406,0.22143554687,0.009160022296673915,1.0259536571614456,0.98351931847,1.06550516058,0.0007282499439196905,975.4871001112475,975.44619794044,975.51084697156,0.0002524425368080115,1.1944125913731964e-05,Null
-0.7721198956950515,-0.88940429687,-0.71545410156,0.0012721322905447322,0.6620854643160825,0.56921386718,0.71704101562,0.0007845683766057196,0.044943268763917535,-0.13488769531,0.0810546875,0.002584074937314266,1.0199334107924745,0.93612657716,1.09142735323,0.0008840770981568092,975.5335879383571,975.49506247686,975.72006608068,0.004485754109462874,0.0016053355357071725,Null
-0.6828638980228419,-0.89477539062,-0.46301269531,0.017497537611210912,0.6942871093709472,0.56665039062,0.87951660156,0.008105438567311402,0.1710192228593684,-0.14318847656,0.63659667968,0.03979022467714004,1.019154584979684,0.86132796064,1.13865421471,0.0036524986946154803,975.5312206943642,975.43449872488,975.72006608068,0.0052644307860173255,-0.0007259155906485247,Null
-0.49276236600313944,-0.58740234375,-0.30480957031,0.005867259245204926,0.8133544921841859,0.61279296875,0.93518066406,0.006522286288875237,0.08175304324174416,-0.38488769531,0.63659667968,0.1334864888617797,1.026612300326163,0.96744147495,1.09099791881,0.0008384773752886961,975.5854953153397,975.43496213498,975.67646892709,0.005654874972502502,0.002444316542914704,Null
-0.8994171925039742,-1.27856445312,-0.234375,0.11762736136772166,0.4354529747553846,0.10388183593,0.93518066406,0.05096659874118317,-0.025622245593846155,-0.38977050781,0.18054199218,0.03387214169340387,1.0802320903261542,0.72008593423,1.40811345824,0.032614223515552286,975.3770035551486,975.17961924131,975.65217816766,0.012712074965573493,4.473765291926701e-05,Null
-0.8680703519528282,-1.17077636718,0.095703125,0.1267386665231018,0.40743494515030293,0.04077148437,0.91540527343,0.05379882067193021,0.18845683396343438,-0.21325683593,0.4912109375,0.044038399355246234,1.0753702792929292,0.78922726072,1.42117169036,0.021165345774328704,975.4821586787723,975.44725985499,975.52956514617,0.0003192000038436407,0.00013586650788063157,Null
0.14561949384489364,0.095703125,0.17443847656,0.0002365970033483235,0.9129807492481913,0.83837890625,1.00769042968,0.0016282157875040797,0.4378350440457445,0.30151367187,0.51477050781,0.003249374107812145,1.0250835014658508,0.97074553091,1.07440260267,0.0007095554200858667,975.4898034503544,975.47793742065,975.51487687053,0.0001127896409988976,0.00031035674763524237,Lift up
-0.2921099494470588,-0.62707519531,0.16918945312,0.057721370545075805,0.8947552849227058,0.65576171875,1.02233886718,0.010636797209047885,0.2492905560630588,-0.04113769531,0.52478027343,0.03721724645484346,1.0244097090965878,0.87661441812,1.11569189784,0.0030145879684181343,975.6052705543179,975.37302375762,975.80933472122,0.01430409139816891,0.0005977988006103815,Lift up
-0.691606500171573,-0.76611328125,-0.59643554687,0.0024649108835457165,0.6010865629353932,0.54211425781,0.76123046875,0.001914543538243721,0.4625381298246067,0.34057617187,0.56848144531,0.003130478424875478,1.0296597803277527,0.95321010772,1.11569189784,0.00080142185932726,975.5435804280756,975.37302375762,975.70579251362,0.006268523329443846,-0.0004962441234662381,Lift up
-0.6470886230434999,-0.6884765625,-0.603515625,0.00041792680971979387,0.6003942871060999,0.51879882812,0.69104003906,0.0018058940783176995,0.5111315917929999,0.42822265625,0.60729980468,0.00249174920436724,1.0219866906268997,0.98453315342,1.0889990825,0.0006708169356029624,975.5299301585101,975.43359967667,975.74561549954,0.013654014321098553,0.0029756026510395503,Lift up
-0.5939483642527272,-0.64526367187,-0.53088378906,0.0007194665356840353,0.6081126819920454,0.56896972656,0.68627929687,0.0020173308104514294,0.5601376620177272,0.41027832031,0.62109375,0.0042745957565825925,1.0209484207155681,0.95932674317,1.10124478594,0.0009365771539553888,975.5540347336847,975.2764042348,975.67605307119,0.015051889702646983,-0.0035630467782628325,Lift up
-0.41606987846814825,-0.85827636718,0.02624511718,0.047179879992710935,0.609567901229753,0.31384277343,0.81848144531,0.014799067327481022,0.6276840398298766,0.31213378906,0.91284179687,0.03906158413494633,1.0136161761359261,0.74158285507,1.20092020267,0.011187911162176139,975.3552238601526,975.09633427125,975.64503835341,0.031064061970152268,-0.0037043591402989334,Lift up
-0.49371136675505484,-0.79431152343,0.06030273437,0.07150998756672504,0.7525782323115384,0.56408691406,0.96520996093,0.010728847925918437,0.4042123647794505,0.24975585937,0.720703125,0.008112133440979392,1.0286819825248352,0.88596959333,1.1185833274,0.004736069952266535,975.487961681052,975.40971539208,975.52678716214,0.0007531951520661545,0.0008826163337985818,Lift up
-0.8591545260636732,-0.95825195312,-0.60717773437,0.005353180605864548,0.5681351642187755,0.455078125,0.8974609375,0.010148698120342865,0.2428700972536735,0.16027832031,0.30334472656,0.001757797456472505,1.0657127075357145,0.97728517876,1.1102020579,0.0012628165369093908,975.4900458907118,975.40781595415,975.5626106219,0.002187052172728762,-0.0015584238549561386,Lift up
-0.22544028541920458,-0.60717773437,-0.06652832031,0.019209581496328506,0.08067044344886364,-0.39270019531,1.0400390625,0.2956214226972326,-0.7299471768432955,-1.02563476562,0.22595214843,0.14074633372339035,1.0175761448692044,0.86147109075,1.1589917462,0.005135081565865298,975.8102593234925,975.40985099757,976.53158470467,0.10864651525180778,-0.0012295848979338713,Lift up
-0.060854256867590356,-0.10144042968,-0.00219726562,0.00048287444048362597,-0.2818897660916868,-0.36401367187,-0.17858886718,0.000913971659012965,-0.9553560923333735,-1.00451660156,-0.76684570312,0.0035061223163342335,0.9985957520363855,0.79387434563,1.04524658719,0.003563700641345647,975.062085779842,974.11604774782,975.48773392709,0.06533063121922456,-0.009578861730027506,Lift up
-0.20564225576339804,-0.70812988281,0.32727050781,0.15289287476818017,0.6634782217054368,-0.17858886718,0.96337890625,0.05334966751025692,0.34762188068747574,-0.76684570312,0.86450195312,0.2393436003567185,1.0151359470018446,0.75895417134,1.20725106271,0.014230290814627157,974.3426641088056,973.99827175659,974.60605598653,0.03979155000902062,0.006387448157335077,Lift up
0.3784975798194565,0.28430175781,0.419921875,0.001651432630353235,0.880056630006087,0.82556152343,0.93798828125,0.0007783571553333426,0.3101488196303261,0.255859375,0.44494628906,0.0025040592037987005,1.0091668601422827,0.96492132268,1.05624140956,0.0004194076311982367,974.5863655087933,974.48965232221,974.66234364436,0.002835042500363316,-0.0017364526518776093,Lift up
0.3628807998235366,0.10925292968,0.4775390625,0.011319137750805163,0.713579875662317,0.55017089843,0.84716796875,0.011373424004852214,0.5745417897256098,0.35363769531,0.84741210937,0.03655556704193441,1.0141138506871952,0.96646116959,1.10940383819,0.0010889503418839664,974.33406893315,974.18251098324,974.48965232221,0.010044252247475268,-0.004145233696841784,Lift up
0.1816818435431169,0.10925292968,0.31494140625,0.0014534112695266113,0.4922604251185711,0.42956542968,0.60095214843,0.0027063599776723465,0.8119007457346752,0.68933105468,0.92211914062,0.0024969127546421166,0.9694162754674024,0.87947290591,1.0420934383,0.0013310440438378723,974.1027512579698,974.03992790305,974.18251098324,0.0017948607364395245,-0.0018052362455845956,Lift up
0.4076268122707693,0.31494140625,0.46069335937,0.0009264484355626611,0.81546372633375,0.60095214843,0.92041015625,0.004069469928929647,0.4312708927994231,0.32861328125,0.69873046875,0.009895930723210392,1.0151305453375001,0.90318010221,1.08795936956,0.0014346160209782642,974.0480762744303,974.0104025122,974.0933407879,0.0009032281210791031,-0.0008715440728597621,Lift up
0.3901354061625805,0.3671875,0.41394042968,0.00018197799978064718,0.8290070564490324,0.81323242187,0.84936523437,0.0001117474129278558,0.4433580624118278,0.40759277343,0.48278808593,0.0004940313148283918,1.0182071969539783,1.00807957474,1.03770678137,5.8728071625069934e-05,974.0273545956014,974.01718515749,974.0353447568,1.4864240810593309e-05,0.00013304658464688987,Lift up
0.4055844261502381,0.39135742187,0.51123046875,0.0006776198581886806,0.807582310265,0.67639160156,0.83312988281,0.001163113035112954,0.4537949334966666,0.43041992187,0.517578125,0.0001851659561178535,1.0121725844782141,0.98768600058,1.02963009675,0.00012771693438655497,974.0374562033858,974.03000457161,974.06828075993,4.638568053140163e-05,0.00011432298925823264,Null
0.44825127783968083,0.23974609375,0.62731933593,0.01044001670247932,0.8585685567602126,0.67639160156,1.02136230468,0.007811428468110179,0.318342492931383,0.20483398437,0.517578125,0.005393206624844875,1.0270330023821277,0.89429038357,1.21036453843,0.008093544047956055,974.0622414759827,974.0248816546,974.12638358953,0.0006198575584645486,-0.0005331494613907846,Null
0.4560647551512371,0.20654296875,0.65771484375,0.011053764469482136,0.8414004610944329,0.72326660156,1.04125976562,0.0080680937291504,0.3214866402195876,0.20654296875,0.50769042968,0.007085962979344663,1.018411552397835,0.85980373438,1.23363675603,0.008163160350642724,974.0410831428306,973.98280871699,974.1349436425,0.001513178861855382,-0.001149262530492021,Null
0.432387077941494,0.3798828125,0.47338867187,0.0006060719577579928,0.859379209317701,0.80419921875,0.87805175781,0.0003355413842514247,0.3220874304017241,0.27526855468,0.47192382812,0.0037948062269489396,1.0167249768152875,0.98629355794,1.0649218376,0.00018596036090635733,974.0214816940087,974.00493625663,974.03261210096,5.3691356472955556e-05,0.00024782994846328076,Null
0.46462278727949363,0.3291015625,0.576171875,0.0028862082331003497,0.821352415443291,0.68334960937,0.87048339843,0.0036492358648482557,0.3666049619235443,0.27526855468,0.55859375,0.011390520574550983,1.0205616697184814,0.95633099686,1.09971813931,0.0010596684760749446,974.0252904586416,973.9986229279,974.06590917229,0.00018994178781258497,-0.00018186983608479884,Null
0.3922428179350632,0.11596679687,0.61218261718,0.01705302621620994,0.7989810991855694,0.50366210937,1.06066894531,0.024364261469736873,0.4432434854605063,0.22607421875,0.615234375,0.014675393280026485,1.0129288080468357,0.74444591837,1.30805713981,0.018279272537153553,974.034502471712,973.950930449,974.14460353471,0.0016855678445328948,-0.0007747893619080313,Null
0.303606644414272,0.13818359375,0.5048828125,0.01164291168194093,0.8101937006952427,0.4677734375,1.1064453125,0.025695842245109728,0.5589694421225241,0.30944824218,0.97094726562,0.03521770960249741,1.0510102794080582,0.80212813826,1.39399857592,0.02854421715238752,974.0043435506041,973.95569533329,974.03473986262,0.0005164232560516585,-8.287200973794406e-05,Stairs up
0.24787040378380432,0.01477050781,0.57531738281,0.02340936181460978,0.7861951745043477,0.52697753906,1.10607910156,0.027406624874477196,0.5910087253697826,0.26501464843,0.95654296875,0.03073460892417047,1.0323097946526087,0.74222674015,1.45029531834,0.044316265449018705,973.9807946629734,973.91296721374,974.01899394224,0.000568999618292155,-0.00034664574446793925,Stairs up
0.2781099985844578,0.11975097656,0.47619628906,0.007540310778622784,0.813988375372048,0.52697753906,1.11877441406,0.03478818748700104,0.54945906673253,0.32080078125,0.77624511718,0.018180849282720735,1.0295124991798794,0.75758048566,1.36553991497,0.042220526915759254,973.9052199445837,973.87480009219,973.95885199057,0.0005717570172815764,-0.0005636868921183758,Stairs up
0.19775259366354836,-0.0546875,0.42126464843,0.012369920538257737,0.825881793930645,0.58508300781,1.109375,0.033902089853207494,0.5948906354972042,0.3681640625,0.89306640625,0.019221988545491352,1.0457182066475268,0.75444431572,1.41054153462,0.046848637516694304,973.8367333448308,973.81034955173,973.93774731557,0.0008337039994416332,-0.0005963875810271497,Stairs up
0.2400711993743878,0.01391601562,0.37487792968,0.009104174419879967,0.7824632294281633,0.54919433593,1.134765625,0.033057926799898205,0.5551147460907142,0.32055664062,0.88037109375,0.021595956507966897,0.9982170200580612,0.71710324301,1.37364955172,0.045166395257870195,973.7867940453419,973.74308659605,973.83485620057,0.0005931308831336086,-0.000177322890958528,Stairs up
0.1824908589166279,-0.00085449218,0.31567382812,0.008654581955934092,0.8860700740337207,0.56030273437,1.23657226562,0.04239354037616027,0.5324749613868603,0.31799316406,0.79333496093,0.020289498373753972,1.0554745733653488,0.72986106278,1.44690917718,0.05912167398350127,973.712877853819,973.67865592834,973.75206747155,0.0003430555225910336,-0.000554383434344377,Stairs up
0.2661302783786076,0.13647460937,0.46911621093,0.006922606372618659,0.812274401697215,0.55554199218,1.08996582031,0.02081187111006597,0.5075838113092404,0.27221679687,0.74743652343,0.019786545239296436,1.0062776644756959,0.80420588923,1.32757295467,0.02287060836537511,973.6436481586238,973.61339432867,973.7017082303,0.0002910389839513011,-0.0005598246688249335,Stairs up
0.22421779879961037,0.05859375,0.32922363281,0.006234926745093084,0.8281678038733764,0.58349609375,1.11022949218,0.03355441625397054,0.5227764179141557,0.31591796875,0.8271484375,0.021541736765240495,1.0106988712658442,0.70303517933,1.40807619197,0.049212935574175394,973.6070026754297,973.57961401688,973.64438633475,0.0005250022744277058,-0.0006343012175873816,Stairs up
0.3216625251349506,0.09252929687,0.54479980468,0.012910563892552525,0.807956808860099,0.57653808593,1.13269042968,0.022652701915662096,0.48445356009861373,0.24877929687,0.82397460937,0.015746548945939756,1.010315929810693,0.8115573146,1.40851039946,0.02122995326668929,973.5600937602602,973.52343411522,973.61646977092,0.000295107659311091,-0.0004905800889492202,Stairs up
0.36557170908602155,0.1357421875,0.53552246093,0.014567549266668941,0.8419688235015051,0.63122558593,1.08044433593,0.016760930171900824,0.43416866179053754,0.27111816406,0.57678222656,0.00816943547677056,1.0290902475360215,0.91877896691,1.23553625844,0.011223755234322518,973.547025717791,973.50461309986,973.58231394517,0.00035561874269214784,-0.00031215769247912035,Stairs up
0.3307358685624706,0.10888671875,0.67651367187,0.024051763150584875,0.8485365923677646,0.66638183593,1.1142578125,0.01447066526138038,0.47935719209200006,0.32116699218,0.62316894531,0.007700673534584648,1.0444503799771763,0.8569697011,1.27409825413,0.014153092434783299,973.5437046446572,973.51833173172,973.56544249636,0.00018531156183198942,0.0003741573229315104,Stairs up
0.3139322916635556,0.08166503906,0.51831054687,0.015380790662095356,0.8325263129308887,0.54150390625,1.11242675781,0.023089906593770554,0.49716796874655544,0.27734375,0.63732910156,0.012648358840644518,1.0374426202777778,0.86670283786,1.28229553316,0.013240527810135334,973.568988252454,973.53239367491,973.59400692461,0.000250909238274088,0.0004764857131601078,Stairs up
0.2919165039023,-0.02966308593,0.548828125,0.02699519973205781,0.8467077636677,0.64367675781,1.18078613281,0.020139447322694203,0.46156372069899987,0.22094726562,0.77197265625,0.017406793451981494,1.0283404097416002,0.81995672049,1.41777155952,0.020875815712414827,973.5808205914968,973.528485741,973.64753140724,0.0014478748382308327,-0.0005823155767616335,Stairs up
0.21178239114898875,-0.0107421875,0.36547851562,0.010934894472387654,0.7792406403579775,0.50500488281,1.10607910156,0.037188765019287334,0.5908696892523595,0.30810546875,0.90502929687,0.025812835760786433,1.0146143905407865,0.69985018089,1.42255567145,0.045367884600588465,973.5027177287194,973.46885304008,973.5571494433,0.0005583135778731798,-0.000763931864376355,Stairs up
0.22674407958725,-0.03491210937,0.41186523437,0.012756130360814648,0.7758056640591249,0.44763183593,1.0380859375,0.03271495714976655,0.63153228759425,0.37768554687,0.95922851562,0.022437208058709888,1.0413951219611248,0.7865299809,1.39586260098,0.03511491455138285,973.4765039782327,973.44785248787,973.5076036209,0.0003312412234474602,-0.0006699305457949052,Stairs up
0.20815718801,-0.0009765625,0.4140625,0.013191508689838009,0.8148080926153947,0.54357910156,1.10241699218,0.0309869739127769,0.6090714304034209,0.38659667968,0.86950683593,0.02008122384297542,1.0465221445507893,0.76681776946,1.38815661285,0.047034104804163,973.4085912757705,973.35429670498,973.44785248787,0.0006807147139446489,-0.0011163493730214791,Stairs up
0.19145932404456528,0.01586914062,0.37268066406,0.00829789543698114,0.7834950322655435,0.57580566406,1.1015625,0.02768313064553574,0.6029716159945651,0.36328125,0.84887695312,0.02025528576780663,1.0142157757208694,0.75107653167,1.39900452823,0.041439137586581784,973.3235898208349,973.28011592443,973.3604272796,0.0005748643180458162,-0.0008248780315394201,Stairs up
0.24701799664775506,0.03405761718,0.39733886718,0.009436120692141555,0.8269927355668366,0.53100585937,1.11108398437,0.03679321469138915,0.5847915337970407,0.33142089843,0.89270019531,0.02041840941424679,1.0503187284134694,0.71242184837,1.44054228261,0.050226765883950336,973.250697990281,973.21031154955,973.2904367302,0.00044388122086940065,-0.0005730754030074641,Stairs up
0.2353940813688764,0.01220703125,0.39819335937,0.0113016712737581,0.834705824258764,0.63134765625,1.17492675781,0.024467330981420485,0.4942997278755056,0.28173828125,0.751953125,0.016782599214981767,1.0101791650551686,0.74454390243,1.40162896027,0.028293500602003897,973.1858620630089,973.16092147855,973.23626496343,0.0005687449119765298,-0.0006970273440930435,Stairs up
0.177613830562625,0.00903320312,0.24096679687,0.0040252278475546854,0.8027954101524999,0.59484863281,1.12194824218,0.03215136294103447,0.6239532470665,0.3720703125,0.841796875,0.017410128846374356,1.037501291315,0.75099696018,1.40952820146,0.04238253575252102,973.1425334332438,973.11490766587,973.17404766545,0.00026225792941458084,-0.00047453867107686735,Stairs up
0.2450934845239806,-0.0185546875,0.40551757812,0.01864772540042054,0.8320075470235921,0.68139648437,1.08374023437,0.009964343688647096,0.4353489551693202,0.29858398437,0.61950683593,0.007516205052690226,0.9823835396215532,0.80585519084,1.25581189506,0.012659086258566597,973.0996703560825,973.07593459319,973.12068481013,0.00015860193865597748,-0.00024623452780168085,Null
0.3546877625141936,-0.27001953125,0.57238769531,0.043745571873275,0.74171365717043,0.26000976562,1.03625488281,0.039381393870911836,0.5145316175188172,0.32019042968,1.00866699218,0.035334715996574895,1.0245151140851612,0.83386449376,1.23910691084,0.008331611994382798,973.0719391627101,973.04475103796,973.10052827258,0.00032646772154579207,-0.000382314927290189,Null
-0.39863949729892856,-0.6591796875,-0.08642578125,0.035485291155921125,0.21231224423107142,-0.04467773437,0.71594238281,0.04080781596210422,0.9085286458289284,0.77075195312,1.04565429687,0.007445716115942373,1.0504348990701193,0.88916359177,1.28198908214,0.00884802710267678,973.1104287889136,973.09023483635,973.11592650631,1.7933341210421106e-05,-2.954592532201658e-05,Null
-0.5982184159092104,-0.685546875,-0.50061035156,0.002829065751676055,0.09381745990802631,-0.05932617187,0.20751953125,0.004420362072886037,0.8095317639769736,0.70629882812,0.95690917968,0.004009467049599901,1.0157446092135525,0.96220996778,1.14780233945,0.0014007369252137156,973.1147368789862,973.10670802433,973.12269175299,9.788968647475103e-06,8.112316726722771e-05,Null
-0.5879461115018181,-0.70629882812,-0.48779296875,0.0032538534564560163,0.07151417918025975,-0.14208984375,0.306640625,0.016393999152944906,0.8207072468515584,0.66943359375,0.95690917968,0.004226965298860478,1.0222359587481817,0.89080007405,1.14780233945,0.002992557250396674,973.1171508164643,973.10589978472,973.12971554009,4.095629515521691e-05,-0.00010544719204771703,Null
-0.5485652043230769,-0.60925292968,-0.48107910156,0.001293175651426703,0.18098332331317307,0.0126953125,0.28967285156,0.004512304619616672,0.8368072509734615,0.7900390625,0.91076660156,0.0011485351195159323,1.0197189858278846,0.94958574555,1.09762020662,0.0009950293833784546,973.1159783260507,973.11053010847,973.1230623443,1.5157005390383192e-05,-4.5182429268091236e-05,Null
-0.4718831380177418,-0.49304199218,-0.45739746093,7.106147814503103e-05,0.21087187079623657,0.10607910156,0.23193359375,0.0009472268299064925,0.8625068254326882,0.83288574218,0.87902832031,0.00012399369436438324,1.0060004409984944,0.97056338342,1.0252698918,0.00015342762988060179,973.1160005016729,973.1112658676,973.12639429715,1.2721367534728747e-05,4.609782665808092e-05,Null
