avg_accX,min_accX,max_accX,var_accX,avg_accY,min_accY,max_accY,var_accY,avg_accZ,min_accZ,max_accZ,var_accZ,avg_magnitude,min_magnitude,max_magnitude,var_magnitude,avg_pressure,min_pressure,max_pressure,var_pressure,slope_pressure,Label
0.006347656,-0.028320313,0.041381836,0.000606086,0.713869731,0.668945313,0.797241211,0.001543883,-0.75575765,-0.82421875,-0.726318359,0.000440722,1.040604457,1.00384528,1.083337636,0.000531515,969.9931057,969.9270908,970.0170404,0.000725245,0.000838416,"	Null"
-0.587687988,-1.205810547,0.074462891,0.249721467,0.381472168,0.037353516,0.772216797,0.057771488,-0.521867676,-0.960571289,-0.201782227,0.069869401,1.050418194,0.582315132,1.37587931,0.033792331,969.9944587,969.8234378,970.2435486,0.010580944,-0.001109381,"	Null"
-0.931972656,-1.076904297,-0.742675781,0.00793495,0.363977051,0.128417969,0.897705078,0.049785117,-0.170634766,-0.316894531,-0.045043945,0.008049305,1.04341383,0.884646603,1.186471142,0.006634147,970.0462429,969.9532253,970.1448515,0.003231465,-6.42E-05,"	Null"
-0.976206055,-1.041137695,-0.915405273,0.000847495,0.247509766,0.187744141,0.298461914,0.000982934,-0.207265625,-0.260375977,-0.178466797,0.000567403,1.028702244,0.951856527,1.102055933,0.001357506,970.0383846,970.0280775,970.0500272,4.96E-05,0.000206898,"	Null"
-0.993263038,-1.087646484,-0.963989258,0.001439382,0.248175544,0.204223633,0.302978516,0.000625523,-0.145299963,-0.203735352,0.056030273,0.006176876,1.037471742,1.008447181,1.123068748,0.001071919,970.0460967,970.032027,970.0508924,2.01E-05,-0.00013593,"	Null"
-0.978034921,-1.02355957,-0.93359375,0.00085008,0.298545259,0.232299805,0.380249023,0.002341632,-0.187665005,-0.244262695,-0.137573242,0.000987224,1.041239935,0.979722898,1.096916268,0.001247067,970.1003499,969.8996134,970.2520153,0.014133645,-0.000596139,Lift Up
-0.997136129,-1.049560547,-0.905761719,0.001507106,0.201396889,0.084960938,0.298217773,0.00303553,-0.228391305,-0.317382813,-0.021240234,0.004405715,1.046291012,0.964429342,1.099024548,0.001743947,969.8827004,969.7358002,969.9754389,0.002857267,0.000101439,Lift Up
-0.985775083,-1.039794922,-0.961303711,0.000552781,0.225873061,0.19140625,0.283203125,0.000477124,-0.198919592,-0.255004883,-0.169067383,0.000529836,1.031062485,0.996475042,1.089012301,0.000806515,969.7794197,969.660151,969.8726589,0.003848513,-0.000999506,Lift Up
-0.975398724,-0.992431641,-0.961181641,4.61E-05,0.225846511,0.200927734,0.249267578,0.000159703,-0.175079346,-0.201049805,-0.153076172,0.000201221,1.016571558,1.00255004,1.027730347,4.96E-05,969.5495624,969.423,969.660151,0.00483339,-0.001151306,Lift Up
-0.97041626,-0.979370117,-0.96496582,1.42E-05,0.230690918,0.208374023,0.245727539,7.36E-05,-0.175149536,-0.186157227,-0.15234375,6.47E-05,1.012789182,1.003947432,1.020988643,1.33E-05,969.316561,969.1962368,969.423,0.004803049,-0.001192917,Lift Up
-0.968979668,-0.986938477,-0.943359375,0.000145755,0.23430201,0.21875,0.24609375,3.22E-05,-0.207013002,-0.249755859,-0.159179688,0.000688252,1.018565138,1.0036785,1.036320755,6.05E-05,969.0813887,968.9644444,969.1962368,0.004954049,-0.001245126,Lift Up
-0.962408347,-0.975219727,-0.952636719,2.77E-05,0.235354231,0.217773438,0.256469727,8.38E-05,-0.21925429,-0.245361328,-0.194946289,0.000176791,1.014861407,1.003490978,1.027845355,3.71E-05,968.8449741,968.7224964,968.9644444,0.004905731,-0.001316817,Lift Up
-0.964793967,-0.98828125,-0.945922852,0.000109102,0.226379736,0.197387695,0.266235352,0.000242059,-0.217543618,-0.26940918,-0.174682617,0.000476328,1.014876426,0.987550918,1.058377247,0.000198561,968.6042563,968.4909721,968.7224964,0.004826318,-0.001334952,Lift Up
-0.952527902,-0.977661133,-0.885375977,0.000686397,0.268472377,0.220581055,0.340087891,0.001539138,-0.23453404,-0.293457031,-0.20324707,0.000706499,1.018177735,0.964112696,1.065439548,0.000625993,968.3596868,968.2315313,968.4909721,0.005299386,-0.001428378,Lift Up
-0.935913086,-0.970581055,-0.908203125,0.000415839,0.237297507,0.219238281,0.250976563,8.01E-05,-0.212301097,-0.231201172,-0.192138672,0.00010865,0.988648857,0.953983022,1.02608126,0.000531302,968.1299024,968.0255265,968.2315313,0.004229351,-0.001313577,Lift Up
-0.933818036,-0.969482422,-0.904785156,0.000408708,0.233430058,0.221923828,0.247558594,6.06E-05,-0.211119135,-0.233154297,-0.193847656,0.000121218,0.98549653,0.952514594,1.023324138,0.00046336,967.9749718,967.9492316,968.0255265,0.000384906,-0.000340534,Lift Up
-0.965864972,-0.973510742,-0.952270508,2.19E-05,0.242136885,0.234375,0.248901367,1.61E-05,-0.205291004,-0.240966797,-0.186279297,0.000247174,1.01682171,1.009321325,1.028428133,2.69E-05,967.9582814,967.9512169,967.9626156,1.01E-05,4.76E-05,Lift Up
-0.966244872,-0.997802734,-0.927856445,0.000199931,0.221228258,0.191894531,0.293823242,0.000447097,-0.191768622,-0.227539063,-0.154541016,0.000211445,1.009839438,0.972622829,1.044562026,0.000210644,967.9549483,967.9467905,967.9624378,1.97E-05,-6.14E-05,Lift Up
-0.990737815,-1.084228516,-0.928833008,0.001615747,0.195777644,-0.009521484,0.313110352,0.009557521,-0.144580716,-0.283081055,0.119506836,0.006781522,1.027723867,0.962989028,1.136681363,0.002236575,967.9447689,967.9213375,967.9671902,0.000198553,-0.00011646,Lift Up
-0.978342285,-1.213012695,-0.837280273,0.010390488,0.217236328,0.103759766,0.338989258,0.003603092,-0.118552246,-0.334472656,0.119506836,0.014130759,1.017762996,0.878046412,1.259972944,0.010506529,967.9455352,967.9256722,967.967207,0.00013372,0.000153014,Lift Up
-1.00072998,-1.201660156,-0.860595703,0.01091374,0.230246582,0.121582031,0.301879883,0.001981681,-0.166975098,-0.361328125,0.08203125,0.019070371,1.049708464,0.885483844,1.255342208,0.012235293,967.9416463,967.9128502,967.9687155,0.000283394,-0.00010463,"	Null"
-1.004526367,-1.130615234,-0.904541016,0.003047649,0.220354004,-0.059570313,0.34777832,0.009987525,-0.205437012,-0.266601563,-0.012084961,0.002516747,1.054158398,0.929648407,1.194595452,0.004020151,967.9556472,967.9276989,967.9987104,0.000424412,-0.000133463,"	Null"
-0.969987793,-0.992919922,-0.948242188,0.000151979,0.249401855,0.216064453,0.31237793,0.00060849,-0.184934082,-0.219482422,-0.109375,0.00078319,1.019111439,0.992624172,1.061293232,0.000220523,967.961953,967.954934,967.9685498,1.48E-05,7.83E-05,"	Null"
-0.975507812,-1.047363281,-0.929199219,0.00083271,0.248415527,0.12902832,0.441040039,0.004072091,-0.156030273,-0.251098633,-0.010986328,0.004457864,1.022389499,0.966066227,1.148380894,0.00167673,967.9664641,967.950941,968.0295707,0.000111611,4.42E-05,"	Null"
-1.055690918,-1.392456055,-0.793212891,0.028343548,0.209267578,0.00390625,0.441040039,0.013401686,-0.187416992,-0.408203125,0.070678711,0.025193487,1.107858501,0.801389631,1.423096703,0.032646706,967.9504424,967.8982779,968.0883683,0.002815649,-0.000405579,"	Null"
-1.092893066,-1.441772461,-0.782226563,0.040800288,0.227150879,0.000732422,0.448486328,0.018637142,-0.188479004,-0.411499023,0.013183594,0.015627035,1.144628934,0.783635921,1.511561442,0.046136904,967.954365,967.8921411,968.0384082,0.00165696,-0.000325681,"	Null"
-1.198381348,-2.006225586,-0.62109375,0.111557518,0.218242187,-0.365600586,0.53918457,0.056230323,-0.135708008,-0.343017578,0.116455078,0.020949412,1.263575298,0.802738988,2.02702021,0.093324766,967.9514277,967.8766254,967.9864334,0.001173331,-0.000206082,"	Null"
-0.929726562,-1.619140625,-0.120727539,0.122127672,0.659748535,0.041015625,1.512939453,0.133860584,-0.334511719,-0.582397461,-0.058349609,0.018356593,1.260350784,0.77596089,1.762008867,0.095631316,968.0015679,967.9381935,968.0581438,0.000720317,0.000447794,Stairs Down
-0.999580078,-1.825683594,-0.63659668,0.096766554,0.344284668,-0.022460938,0.698364258,0.029423081,-0.247832031,-0.474975586,0.055664063,0.028003717,1.111420945,0.705017764,1.887810954,0.097482711,968.0498301,968.0003047,968.1159973,0.00120407,0.000769781,Stairs Down
-1.157998047,-1.615844727,-0.839111328,0.048810585,0.279287109,-0.014404297,0.485717773,0.026790174,-0.186303711,-0.413696289,0.10144043,0.026669734,1.227588684,0.919117999,1.656955546,0.048427929,968.1417023,968.0311311,968.2503658,0.003966787,0.000729734,Stairs Down
-1.288027344,-1.923583984,-0.83203125,0.083237053,0.124287109,-0.41418457,0.493652344,0.067629637,-0.104472656,-0.370849609,0.190673828,0.022241847,1.33126864,0.841565244,1.977976557,0.085330829,968.2220505,968.070579,968.6239756,0.012187321,1.02E-05,Stairs Down
-1.359287109,-2.189086914,-0.855224609,0.121463874,0.245273437,-0.18347168,0.706176758,0.071539584,-0.152363281,-0.529907227,0.123657227,0.029046677,1.421873768,0.964775801,2.275767535,0.130444139,968.3053903,968.2507227,968.386093,0.001413547,-0.000251908,Stairs Down
-1.196513672,-1.754394531,-0.753540039,0.083272835,0.289389648,-0.212890625,0.594482422,0.044089729,-0.237766113,-0.521118164,0.099731445,0.021334096,1.286743262,0.917197208,1.792122356,0.064066194,968.3526442,968.2537281,968.5175965,0.004596113,-9.90E-05,Stairs Down
-1.244194336,-1.780517578,-0.814086914,0.073968438,0.229931641,-0.127075195,0.591674805,0.049995967,-0.113347168,-0.383300781,0.111328125,0.017715004,1.295891635,0.826981475,1.790832668,0.075417342,968.3784546,968.3190898,968.4374552,0.001140402,0.000667775,Stairs Down
-1.136350098,-1.507324219,-0.863037109,0.034057422,0.227250977,0.060546875,0.544677734,0.017180205,-0.161184082,-0.401489258,0.00769043,0.014836361,1.180365716,0.865161143,1.573702479,0.04147968,968.3832477,968.3161388,968.489642,0.002528863,-7.03E-05,Stairs Down
-1.101843262,-1.455566406,-0.835449219,0.030954207,0.276281738,0.075805664,0.544555664,0.017819487,-0.204907227,-0.518920898,0.016235352,0.019355995,1.169037181,0.85200092,1.487998876,0.033512732,968.3874042,968.3176701,968.5110423,0.00310217,-0.000353306,Stairs Down
-1.007558594,-1.379272461,-0.630371094,0.039779374,0.268425293,0.08215332,0.447265625,0.011748302,-0.213808594,-0.518920898,0.023071289,0.022456804,1.082632072,0.786131922,1.394132274,0.028508627,968.3932217,968.3178804,968.5431909,0.003926853,-0.000480255,Stairs Down
-1.072519531,-1.501953125,-0.678955078,0.055478591,0.26201416,0.102905273,0.483886719,0.011671321,-0.207116699,-0.555908203,0.119873047,0.033238547,1.142880203,0.697341103,1.510502703,0.056419222,968.3881547,968.3063273,968.5236021,0.003706026,-0.000602968,Stairs Down
-1.084001465,-1.501953125,-0.715820313,0.049671807,0.222000732,0.004516602,0.401733398,0.010359349,-0.136280518,-0.393920898,0.139770508,0.020676906,1.130912047,0.743876613,1.508231594,0.048497755,968.4523704,968.3698663,968.6568313,0.003919367,0.00076746,Stairs Down
-0.957679443,-1.388916016,-0.668823242,0.043021597,0.250570068,0.067871094,0.530883789,0.014051014,-0.22463501,-0.443359375,0.05078125,0.021672593,1.033829082,0.75621065,1.465162527,0.039950853,968.4898078,968.4226819,968.5953554,0.001313688,0.000275002,Stairs Down
-0.977286377,-1.385498047,-0.702270508,0.035356769,0.17746582,-0.068115234,0.37512207,0.01122427,-0.170855713,-0.336547852,-0.012329102,0.007629494,1.016408591,0.744074651,1.415240793,0.036723695,968.5763685,968.5194173,968.6126403,0.000965258,0.000702091,Stairs Down
-1.011181641,-1.461791992,-0.665283203,0.041924361,0.18543335,-0.014038086,0.41784668,0.015021443,-0.10755127,-0.388305664,0.109130859,0.027473813,1.052488212,0.667054482,1.495143369,0.044732423,968.6515594,968.5593218,968.7699566,0.003015205,0.000773484,Stairs Down
-1.086136475,-1.646362305,-0.703369141,0.058218194,0.118450928,-0.24609375,0.470581055,0.029097497,-0.083165283,-0.312744141,0.312744141,0.02483537,1.118313668,0.776614446,1.715608969,0.06166022,968.7426088,968.6875012,968.8249958,0.001540867,0.001008899,Stairs Down
-0.970778809,-1.599365234,-0.260498047,0.092549701,0.547720947,-0.172119141,1.604736328,0.228611193,-0.182788086,-0.55065918,0.117919922,0.038875069,1.238210163,0.676820287,1.820416648,0.100093345,968.770199,968.6885466,968.8448561,0.001893963,0.000798532,Stairs Down
-1.212958984,-1.875732422,-0.722412109,0.110769675,0.324884033,-0.029174805,0.846923828,0.04933225,-0.114044189,-0.342529297,0.067993164,0.015102619,1.286495769,0.725131256,1.925631972,0.109299338,968.8176728,968.7785147,968.8814434,0.00063342,0.000268163,"	Null"
-1.280477295,-1.792358398,-0.861694336,0.083859419,0.288447266,-0.14050293,0.72265625,0.071959928,-0.042264404,-0.287841797,0.361206055,0.031503474,1.35303038,0.871431918,1.892405523,0.080170295,968.8035014,968.7413095,968.8863005,0.001516873,0.000673762,"	Null"
-1.088426514,-1.296020508,-0.849365234,0.014940106,0.253046875,-0.045043945,0.536743164,0.036194031,-0.223703613,-0.473510742,-0.017578125,0.013561496,1.158956402,0.889842183,1.389517027,0.01981519,968.8382975,968.7824167,968.8802348,0.00082158,0.000178373,"	Null"
-0.312312012,-1.364013672,-0.00378418,0.153583878,-0.001049805,-0.216552734,0.49621582,0.030317327,-0.804747314,-1.040039063,-0.413452148,0.053047724,0.968486294,0.565608733,1.530512301,0.04219381,968.8731987,968.529506,969.0071034,0.015140319,-0.003311958,"	Null"
-1.01170166,-1.356567383,-0.836914063,0.014621914,0.268134766,0.16394043,0.48828125,0.009125693,-0.308623047,-0.462524414,-0.235351563,0.002298881,1.094000014,0.919938211,1.470642788,0.019833009,968.7845376,968.6202773,968.8380697,0.003151847,0.00170203,"	Null"
-0.967460937,-1.046264648,-0.868530273,0.002447039,0.216987305,0.020629883,0.337768555,0.006791739,-0.223410645,-0.309936523,-0.066894531,0.006152129,1.022805325,0.89268912,1.09870178,0.002103775,968.8361394,968.8246719,968.846602,2.91E-05,-0.000101114,"	Null"
-1.045576172,-1.301391602,-0.851074219,0.0167954,0.158962402,-0.07824707,0.354370117,0.013048683,-0.135841064,-0.326782227,0.133544922,0.021665314,1.082033832,0.886492763,1.327549546,0.016451722,968.8400634,968.798373,968.8889877,0.000738286,-0.000328304,"	Null"
-0.989624023,-1.194702148,-0.916381836,0.002382925,0.151142578,-0.090454102,0.385498047,0.016039743,-0.247667236,-0.41418457,0.086303711,0.009042947,1.043217212,0.962928794,1.215825717,0.002452175,968.8510861,968.7850751,968.9184302,0.001038199,-0.00011187,"	Null"
-0.969398193,-1.037353516,-0.910644531,0.000685401,0.228555908,0.162963867,0.27734375,0.001348101,-0.208740234,-0.32409668,-0.123413086,0.003200231,1.019888943,0.975829505,1.085403043,0.000556652,968.8485744,968.8275354,968.8700048,9.34E-05,0.000212259,"	Null"
-0.991876221,-1.069824219,-0.910644531,0.002221188,0.189661865,-0.105957031,0.334838867,0.015147405,-0.14529541,-0.289306641,-0.010864258,0.00612865,1.030488794,0.943527246,1.109244366,0.002278719,968.8510738,968.7934042,968.9762835,0.001223728,-0.00011442,"	Null"
-0.948533936,-0.995605469,-0.918945313,0.000287919,0.266629639,0.168701172,0.413696289,0.004350408,-0.244423828,-0.287231445,-0.179931641,0.000641667,1.017640077,0.997763106,1.045058896,0.000188755,968.8456341,968.8063165,968.858082,0.000136613,0.000300274,"	Null"
-0.979769287,-1.019042969,-0.941040039,0.000383254,0.2409021,0.198364258,0.285888672,0.000731302,-0.142756348,-0.225585938,-0.062011719,0.001149837,1.019929179,0.983634284,1.058625794,0.00035078,968.8645798,968.8033283,968.9640088,0.00138149,-9.54E-05,"	Null"
-0.970843506,-0.996337891,-0.941040039,0.000320795,0.218693848,0.013427734,0.31262207,0.004926504,-0.190738525,-0.284179688,-0.104003906,0.002722343,1.016954018,0.974353405,1.051291608,0.00044421,968.9161895,968.8770714,968.9515183,0.000467511,0.000584312,"	Null"
-0.964223633,-1.016357422,-0.937744141,0.00029175,0.230800781,0.127563477,0.286376953,0.002788782,-0.215739746,-0.310302734,-0.119750977,0.004478124,1.01823541,0.99155665,1.059666931,0.00022179,968.9442592,968.9331581,968.9750567,6.18E-05,9.30E-05,"	Null"
-0.95486084,-1.016357422,-0.901245117,0.000726175,0.252982178,0.122192383,0.46081543,0.007266902,-0.215245361,-0.289550781,-0.109985352,0.002562376,1.0159624,0.986146128,1.064024036,0.000363709,968.9371436,968.8982724,968.9750567,0.000296939,-0.000192393,"	Null"
-0.947437744,-0.992431641,-0.931762695,0.000271601,0.225706787,0.186279297,0.252319336,0.000298517,-0.293652344,-0.334106445,-0.218261719,0.000779818,1.017863872,0.993854819,1.046806568,0.000104148,968.9143609,968.8763108,968.940467,0.000228613,0.000437777,"	Null"
-0.967084961,-1.137207031,-0.872070313,0.005064501,0.195389404,-0.016113281,0.319091797,0.009032507,-0.225180664,-0.440185547,0.005493164,0.012589935,1.022230558,0.89720748,1.186743106,0.005658011,968.8995014,968.8772463,968.9300128,0.00025192,0.000204969,"	Null"
-1.01861084,-1.205566406,-0.883178711,0.009919649,0.255772705,0.010131836,0.346557617,0.002864361,-0.272606201,-0.551147461,-0.005126953,0.017837433,1.092987837,0.89720748,1.32780212,0.013125936,968.8603375,968.8189329,968.9194939,0.001121732,-0.000307274,"	Null"
-0.98810791,-1.177001953,-0.819335938,0.00896152,0.203599854,0.046508789,0.300415039,0.004363715,-0.203516846,-0.398681641,-0.021484375,0.01215023,1.03567789,0.845387459,1.263878082,0.011940674,968.8489747,968.8188145,968.8790698,0.000279322,0.000104204,"	Null"
-1.105563965,-1.42956543,-0.863647461,0.025129594,0.201417236,0.071533203,0.354736328,0.007310114,-0.172805176,-0.393310547,0.061523438,0.022078323,1.147742136,0.873264371,1.484215407,0.029659649,968.8539073,968.7849326,968.9286616,0.001739388,-0.000256443,"	Null"
-1.043814697,-1.395507813,-0.824584961,0.022159475,0.238781738,0.009033203,0.583007813,0.015226849,-0.247347412,-0.510986328,0.073852539,0.020791477,1.115068099,0.840694157,1.472349246,0.022187617,968.8611625,968.7801335,969.0305394,0.003961302,0.0001332,"	Null"
-1.026337891,-1.107299805,-0.933105469,0.003338629,0.084429932,-0.054199219,0.233764648,0.007442755,-0.200509033,-0.463989258,0.019042969,0.021651388,1.063274611,0.993952683,1.165456532,0.002280099,968.8563102,968.7907533,968.9668815,0.002475774,0.000186938,Lift Down
-1.017757568,-1.221069336,-0.871459961,0.008739884,0.233591309,0.062988281,0.421630859,0.012506406,-0.197393799,-0.276489258,-0.054443359,0.004774026,1.069515032,0.903431662,1.292357413,0.0113711,968.8615933,968.8366556,968.9439759,0.000481389,5.28E-05,Lift Down
-0.999781494,-1.085571289,-0.885986328,0.00338319,0.217924805,0.082397461,0.350097656,0.005702486,-0.19145752,-0.333251953,-0.13684082,0.002790918,1.044588173,0.911914453,1.147108944,0.004347087,968.8804001,968.8563946,968.9050066,0.000116255,0.000145057,Lift Down
-0.978848877,-1.009155273,-0.953369141,0.000210452,0.219483643,0.082397461,0.260253906,0.001599851,-0.184257812,-0.305541992,-0.147705078,0.000731736,1.021011561,0.988409238,1.048929178,0.000324389,968.8854484,968.8679164,968.9053663,9.76E-05,0.000229967,Lift Down
-0.972523193,-0.993774414,-0.948120117,0.000108601,0.236096191,0.194213867,0.272583008,0.000438426,-0.170025635,-0.188598633,-0.138671875,0.00016319,1.015360693,0.979219416,1.037124504,0.000199259,968.8910979,968.8821612,968.9036575,3.44E-05,-1.18E-07,Lift Down
-0.974046631,-1.001342773,-0.959838867,0.000114155,0.242755127,0.21472168,0.269287109,0.000262973,-0.164672852,-0.184082031,-0.138671875,0.000206111,1.017474196,1.004838036,1.046546778,0.000139096,968.8920574,968.8871578,968.8982712,7.47E-06,-4.10E-05,Lift Down
-0.28092041,-1.036743164,0.094604492,0.127326523,0.820657959,0.20703125,1.0859375,0.06014254,0.275584717,-0.251953125,0.646118164,0.052958268,1.030109462,0.9105348,1.148965954,0.005293186,968.8858721,968.7854007,968.9672073,0.003101991,-0.00107632,Lift Down
-0.189995117,-0.299316406,-0.098632813,0.002438534,0.966199951,0.799316406,1.085571289,0.005760869,0.1453125,-0.10949707,0.490722656,0.023679119,1.008707166,0.861996934,1.105034645,0.004874548,968.8600531,968.7861139,968.9483865,0.002069533,0.000258575,Lift Down
-0.757813721,-0.979370117,-0.231811523,0.073311444,0.433547363,0.176147461,0.913818359,0.053781394,-0.1971521,-0.323974609,-0.010864258,0.007623265,0.959135454,0.590974066,1.143949244,0.014688915,968.8952894,968.6667537,969.1158955,0.017274893,-0.001742367,Lift Down
-0.954750977,-1.053588867,-0.897583008,0.001362686,0.247125244,0.14831543,0.315063477,0.001880255,-0.210275879,-0.320556641,-0.137084961,0.002532514,1.010795073,0.963514973,1.095103122,0.000855837,969.1006699,968.9576894,969.2145388,0.00507378,0.002414004,Lift Down
-1.004425049,-1.02355957,-0.939697266,0.000314473,0.244346924,0.223022461,0.27734375,0.000154305,-0.212081299,-0.230957031,-0.185180664,0.00013673,1.055363785,0.992119314,1.074750942,0.00036395,969.321193,969.2145388,969.3963378,0.003089293,0.001897237,Lift Down
-0.964736328,-1.005004883,-0.916625977,0.000495245,0.257227783,0.227783203,0.321533203,0.000418407,-0.216342773,-0.284423828,-0.172485352,0.000544329,1.022176889,0.996414021,1.051437832,0.000287191,969.4187138,969.3963378,969.4327252,7.70E-05,0.000214333,Lift Down
-0.965767822,-0.973144531,-0.951049805,3.02E-05,0.244902344,0.227539063,0.270141602,0.000115514,-0.200510254,-0.219726563,-0.189941406,6.59E-05,1.016405254,1.008848766,1.026043377,1.91E-05,969.4313483,969.4226158,969.4366705,8.95E-06,3.07E-05,Lift Down
-0.96328125,-0.97265625,-0.955200195,1.74E-05,0.226010742,0.213012695,0.235229492,3.52E-05,-0.21222168,-0.224975586,-0.198608398,3.12E-05,1.01197576,1.002547164,1.02187106,1.78E-05,969.439598,969.4331169,969.4470318,1.61E-05,0.000114085,Lift Down
-0.964130859,-0.976806641,-0.958374023,2.10E-05,0.232685547,0.220458984,0.250976563,6.29E-05,-0.21463623,-0.227050781,-0.206298828,3.64E-05,1.014809074,1.008383678,1.032924939,4.16E-05,969.4516243,969.446893,969.4547935,4.02E-06,4.79E-05,Lift Down
-0.968208008,-0.975830078,-0.958740234,1.93E-05,0.231984863,0.206420898,0.245361328,9.27E-05,-0.208395996,-0.226074219,-0.193481445,8.67E-05,1.017281022,1.009929127,1.02503531,8.66E-06,969.4523128,969.4432038,969.4600771,2.56E-05,-0.000118032,Lift Down
-0.957432861,-0.971191406,-0.933837891,8.62E-05,0.228282471,0.172729492,0.295288086,0.001424211,-0.234932861,-0.298706055,-0.189941406,0.001131542,1.013144428,0.98723882,1.031326017,0.00013935,969.4562238,969.449691,969.4631256,1.48E-05,5.36E-05,Lift Down
-0.969418945,-1.005371094,-0.931884766,0.000540414,0.214587402,0.061401367,0.294067383,0.005585243,-0.174816895,-0.255126953,-0.121704102,0.001065117,1.011293979,0.952847831,1.046902222,0.000793078,969.4601765,969.4471467,969.4691071,4.86E-05,-0.000168015,Lift Down
-1.038371582,-1.189819336,-0.897583008,0.007306167,0.233000488,0.14440918,0.369140625,0.003028941,-0.13352417,-0.325561523,0.088378906,0.012640367,1.078988589,0.920622694,1.245050107,0.008952343,969.4575315,969.4327894,969.4798111,0.000250983,-1.35E-05,Lift Down
-0.986766357,-1.274047852,-0.828369141,0.014386019,0.24567749,0.100585938,0.360839844,0.004954754,-0.221148682,-0.374755859,-0.013549805,0.011353133,1.047418335,0.845959851,1.350318281,0.016438193,969.4669162,969.4123738,969.5244372,0.000674289,-0.000115044,"	Null"
-0.882000732,-1.106079102,-0.386108398,0.037656445,0.421386719,-0.072753906,1.524291992,0.166211763,-0.040771484,-0.229003906,0.265991211,0.017259432,1.048685616,0.392907341,1.714109407,0.077100218,969.4823556,969.3471602,969.6847007,0.00369751,0.000856131,"	Null"
-1.272857666,-1.936401367,-0.68347168,0.062372668,0.237995605,-0.164672852,0.503173828,0.027341941,-0.174455566,-0.563598633,0.262573242,0.06110802,1.337122574,0.685450284,1.979302486,0.06935446,969.4454854,969.3012206,969.7108656,0.015796881,-0.000755028,"	Null"
-1.152744141,-1.647583008,-0.837524414,0.040554027,0.223135986,-0.088500977,0.424804688,0.018211569,-0.204924316,-0.506835938,0.224609375,0.032784041,1.212310198,0.840732947,1.693274125,0.041960426,969.4600728,969.3318503,969.6121871,0.004736224,0.000318884,"	Null"
-1.191223145,-1.559448242,-0.870727539,0.029962571,0.268083496,-0.211303711,0.668212891,0.056239257,-0.093928223,-0.462402344,0.316772461,0.050066807,1.264321914,0.871718546,1.629597423,0.036464545,969.4171889,969.3318503,969.4884687,0.00225313,0.000251124,Stairs Up
-1.0940979,-1.420288086,-0.860961914,0.024661835,0.179584961,-0.028442383,0.41027832,0.015023381,-0.216033936,-0.477905273,0.142822266,0.03995284,1.151799279,0.964195721,1.490651818,0.028456295,969.3749237,969.3001476,969.4782726,0.00243779,-0.000594075,Stairs Up
-1.087000732,-1.420288086,-0.747558594,0.022927417,0.196518555,-0.092529297,0.448120117,0.019181097,-0.181848145,-0.559936523,0.045776367,0.025833369,1.142297971,0.952591379,1.490651818,0.015835041,969.3092607,969.2770806,969.3743568,0.000844185,-0.00029046,Stairs Up
-0.997807617,-1.254638672,-0.791992188,0.019238011,0.300557861,0.009033203,0.642700195,0.026031261,-0.2715625,-0.532104492,-0.069458008,0.015612407,1.093360031,0.864347266,1.356469156,0.024785822,969.2872405,969.2515179,969.3338976,0.000661891,-0.000241551,Stairs Up
-1.081689453,-1.348266602,-0.812133789,0.027909623,0.043946533,-0.33190918,0.360717773,0.045999535,-0.089520264,-0.279418945,0.127197266,0.009961757,1.112266295,0.8407481,1.36015813,0.02615469,969.2519152,969.2018573,969.321872,0.001002031,-0.000654526,Stairs Up
-1.117541504,-1.369384766,-0.905639648,0.015038235,0.199755859,-0.012084961,0.35559082,0.010979839,-0.169038086,-0.512084961,0.071166992,0.026941545,1.161593638,0.960555225,1.450609214,0.02071266,969.1998425,969.1278733,969.2803822,0.002122118,-0.001143876,Stairs Up
-1.094921875,-1.285888672,-0.834838867,0.015457561,0.167302246,-0.334106445,0.339599609,0.025366138,-0.197694092,-0.350219727,0.022094727,0.013027559,1.141578495,0.877569292,1.338611303,0.016200196,969.1151206,969.0591309,969.1742258,0.00112362,-0.000911717,Stairs Up
-1.092624512,-1.474365234,-0.848388672,0.026811732,0.16357666,-0.017089844,0.33984375,0.013938956,-0.206037598,-0.489135742,0.117553711,0.028890839,1.142168584,0.867629111,1.518335892,0.02771028,969.0556258,968.9758625,969.2209392,0.003745368,-0.00128441,Stairs Up
-0.982200928,-1.231689453,-0.721923828,0.028611742,0.211923828,-0.015991211,0.380004883,0.010846639,-0.214494629,-0.394897461,-0.1015625,0.007919248,1.035947953,0.77046952,1.332723208,0.029650514,968.9829205,968.9295926,969.0253611,0.000481867,-0.000518555,Stairs Up
-1.064667969,-1.324584961,-0.793334961,0.018595681,0.156186523,-0.00402832,0.374023438,0.011629394,-0.203254395,-0.426025391,0.011474609,0.01602937,1.10605243,0.825710276,1.407726795,0.021883218,968.9123582,968.8260146,969.0110266,0.002132955,-0.000589535,Stairs Up
-1.12104126,-1.43737793,-0.875366211,0.019682143,0.158847656,-0.134277344,0.425048828,0.029093619,-0.234084473,-0.549194336,0.041015625,0.02634381,1.17796962,0.881380506,1.465254998,0.023755127,968.8838748,968.7908749,969.0124022,0.004542535,0.00037588,Stairs Up
-1.12144043,-1.453491211,-0.934692383,0.019189162,0.180895996,-0.025512695,0.467895508,0.02186723,-0.194003906,-0.482910156,0.048950195,0.023912114,1.169077104,0.935270344,1.560659865,0.025825314,968.8654703,968.810911,968.9621624,0.002222055,0.000490799,Stairs Up
-1.15611084,-1.3984375,-0.949462891,0.020886941,0.191286621,-0.120849609,0.450195313,0.033558496,-0.23659668,-0.58581543,0.073242188,0.04612419,1.223798831,0.952963839,1.522528039,0.031354733,968.8789924,968.7907367,969.0035708,0.004273446,-0.000558293,Stairs Up
-1.09213623,-1.364379883,-0.651245117,0.031958078,0.277683105,-0.120849609,0.588012695,0.033494826,-0.197719727,-0.426635742,0.091064453,0.029310755,1.166949755,0.693872343,1.474491534,0.041421047,968.8836712,968.8096651,969.0237082,0.003837621,-0.000800639,Stairs Up
-1.148311768,-1.401245117,-0.824951172,0.026243713,0.1346521,-0.236328125,0.470581055,0.037301074,-0.171816406,-0.537719727,0.1796875,0.032215662,1.198065113,0.828789615,1.450877359,0.025974557,968.8592918,968.7676906,969.0492479,0.005361156,-0.0006817,Stairs Up
-1.159425049,-1.401245117,-0.994873047,0.011807951,0.102835693,-0.122680664,0.365356445,0.018210044,-0.114853516,-0.3671875,0.05871582,0.01562615,1.18361782,1.002714563,1.450877359,0.012393448,968.7787467,968.7220034,968.8537591,0.001394818,-0.000156849,Stairs Up
-1.098459473,-1.398071289,-0.875488281,0.02270958,0.23010376,0.037841797,0.399047852,0.010305702,-0.185581055,-0.507202148,0.107910156,0.037387264,1.155010163,0.938426839,1.482396815,0.029950833,968.7202933,968.6570433,968.8296441,0.002214983,-0.00093715,Stairs Up
-1.07961792,-1.307617188,-0.822265625,0.019542486,0.148188477,0.003417969,0.278686523,0.005711332,-0.165670166,-0.381469727,0.062255859,0.020119266,1.112274032,0.856904536,1.386370596,0.022976882,968.6594998,968.607168,968.7351363,0.001431439,-0.001024903,Stairs Up
-1.056398926,-1.327514648,-0.817993164,0.02062963,0.203820801,0.067993164,0.309936523,0.00443396,-0.163587646,-0.33215332,0.056274414,0.009430058,1.092611156,0.850644597,1.38863134,0.022645899,968.6199475,968.5648988,968.7054416,0.001821506,-0.000699791,Stairs Up
-1.05335083,-1.249023438,-0.776733398,0.016133391,0.085327148,-0.138671875,0.320556641,0.017228226,-0.175023193,-0.35144043,0.123291016,0.020192293,1.088104494,0.812614268,1.296372282,0.016675549,968.5737991,968.5055616,968.6344976,0.001221413,-1.78E-05,Stairs Up
-1.141097412,-1.364746094,-0.923339844,0.011434043,0.146148682,-0.037963867,0.284667969,0.009288715,-0.139146729,-0.344604492,0.0859375,0.016033681,1.169065741,0.969076325,1.425556243,0.012624971,968.5365438,968.4912906,968.6242374,0.001198522,-0.00044483,Stairs Up
-1.018320312,-1.244506836,-0.839355469,0.01390403,0.202299805,0.016967773,0.383178711,0.007839443,-0.215883789,-0.418334961,0.031005859,0.015969233,1.070680667,0.874003678,1.333601985,0.01564219,968.5031743,968.4350939,968.6207936,0.002088087,-0.000252792,"	Null"
-1.023505859,-1.119262695,-0.950195313,0.003790909,0.12052124,-0.034423828,0.40222168,0.014451486,-0.132492676,-0.32421875,0.201782227,0.0247522,1.057113393,0.965523932,1.174354841,0.004767522,968.4783246,968.4350939,968.5478458,0.000982315,0.000429135,"	Null"
-1.079865723,-1.314086914,-0.747192383,0.016597879,0.192160645,-0.008544922,0.438964844,0.011525114,-0.130830078,-0.427001953,0.178588867,0.022950511,1.119014961,0.770019357,1.362100303,0.018707564,968.4608907,968.3717782,968.616397,0.004838403,-0.000581454,"	Null"
-1.033869629,-1.244628906,-0.838256836,0.012150946,0.179985352,0.014404297,0.338134766,0.007767549,-0.232302246,-0.541259766,0.049072266,0.022043006,1.088256131,0.876660483,1.357302741,0.012612071,968.439473,968.3854839,968.5038153,0.001263557,-0.000489243,"	Null"
-0.996240234,-1.086547852,-0.911743164,0.001379681,0.274099121,0.109985352,0.415649414,0.006920675,-0.083452148,-0.262451172,0.135375977,0.005522929,1.041898094,0.988035948,1.095825025,0.000945485,968.4789389,968.4128272,968.8152568,0.010455812,0.001512544,"	Null"
-0.991845703,-1.080078125,-0.895874023,0.001856983,0.216508789,0.009155273,0.348999023,0.01092572,-0.140390625,-0.262817383,-0.005249023,0.004623833,1.031809516,0.945260023,1.15985492,0.002974825,968.4284455,968.3512078,968.4980437,0.001728931,0.000986771,"	Null"
-0.790029297,-1.522583008,0.332641602,0.297511909,0.356538086,-0.03125,1.473999023,0.157489867,-0.228295898,-0.837768555,0.1484375,0.057723711,1.071620407,0.298761323,1.855109804,0.164255202,968.4770025,968.3427386,968.6546054,0.006837922,0.000587388,"	Null"
-1.054406738,-1.438232422,-0.439575195,0.064192185,0.362111816,0.041259766,0.952514648,0.047339894,-0.293041992,-0.737915039,0.063110352,0.053321252,1.200872854,0.71528893,1.524408339,0.050385185,968.4033803,968.2999526,968.4780055,0.003176603,0.001611588,"	Null"
-1.199663086,-1.591308594,-0.862060547,0.039707061,0.239812012,-0.040405273,0.537109375,0.028746743,-0.187142334,-0.569946289,0.267822266,0.05551187,1.265312135,0.863227739,1.645499554,0.053974539,968.4386065,968.3898219,968.4745047,0.000539685,0.000112371,"	Null"
-1.131192627,-1.434570313,-0.948120117,0.01679399,0.196768799,-0.05859375,0.433837891,0.021932552,-0.210187988,-0.566040039,0.105712891,0.048419984,1.192462668,0.955170149,1.546899588,0.027072278,968.4320474,968.3889284,968.5064747,0.00115869,-0.000114956,"	Null"
-1.199085693,-1.338500977,-1.026367188,0.008773609,0.212786865,-0.159057617,0.522216797,0.027479801,-0.155355225,-0.490844727,0.247680664,0.054643315,1.259303395,1.061475561,1.468476016,0.013766416,968.4285553,968.3715457,968.5044446,0.001142862,-0.00025536,"	Null"
-1.039594727,-1.315551758,-0.781860352,0.021135621,0.128291016,-0.09753418,0.34362793,0.017873007,-0.192626953,-0.413574219,0.051879883,0.018614681,1.083488516,0.854049777,1.342504118,0.017596601,968.3818346,968.342459,968.4277885,0.000586397,-0.000184581,Stairs Up
-1.146591797,-1.422363281,-0.918701172,0.0173227,0.161269531,-0.22277832,0.425048828,0.028994372,-0.142392578,-0.426513672,0.146362305,0.033610222,1.192459682,1.005524055,1.483248378,0.018307258,968.3342574,968.2783395,968.426556,0.002056736,-0.000678707,Stairs Up
-1.073178711,-1.338867188,-0.883911133,0.01463998,0.217109375,0.077270508,0.393920898,0.007331647,-0.145512695,-0.369262695,0.036743164,0.014420862,1.113156595,0.946299904,1.441756069,0.017104979,968.2601143,968.2220761,968.3156074,0.000652587,-0.000442023,Stairs Up
-1.115332031,-1.297363281,-0.92590332,0.01327492,0.205922852,0.040893555,0.356201172,0.00604437,-0.117426758,-0.347412109,0.094848633,0.018580947,1.150009418,0.976372822,1.361756606,0.015311492,968.2024204,968.1334978,968.2888045,0.001997253,-0.000630818,Stairs Up
-1.070039062,-1.421142578,-0.780151367,0.034071622,0.148950195,-0.102050781,0.302734375,0.011308157,-0.134663086,-0.278198242,0.066650391,0.011151915,1.099882937,0.845226876,1.429625692,0.031846268,968.13214,968.0844766,968.2353584,0.001312576,-0.000698961,Stairs Up
-1.035014648,-1.293823242,-0.836303711,0.01508913,0.088037109,-0.166992188,0.338012695,0.025305396,-0.126342773,-0.275146484,0.078735352,0.013529709,1.065261556,0.868426237,1.319087109,0.013708243,968.0883183,968.0397114,968.1223235,0.000909049,-0.000488819,Stairs Up
-1.030429687,-1.278076172,-0.71887207,0.027026865,0.168955078,0.038696289,0.262573242,0.004416675,-0.182016602,-0.333251953,-0.03918457,0.007707549,1.063602625,0.728215235,1.312448256,0.031283067,968.0369325,967.9692453,968.1195319,0.001891901,-0.000447401,Stairs Up
-1.053476562,-1.236816406,-0.922363281,0.007820553,0.162973633,-0.0546875,0.364990234,0.013877238,-0.181728516,-0.392089844,0.022460938,0.015533659,1.093456359,0.93416869,1.288959251,0.010718032,968.0038963,967.9473068,968.1194446,0.001857628,0.000253859,"	Null"
-1.093745117,-1.28112793,-0.873168945,0.01542798,0.258745117,-0.025756836,0.47668457,0.022723533,-0.195356445,-0.387207031,0.083984375,0.022342602,1.157230814,0.895529694,1.383827037,0.022320783,967.9955172,967.9362003,968.1053391,0.002640603,-0.000421532,"	Null"
-1.021791992,-1.236938477,-0.842041016,0.013315466,0.245366211,0.024291992,0.386230469,0.012894031,-0.245151367,-0.385742188,-0.012084961,0.013839432,1.091478259,0.89030706,1.311552921,0.012814441,968.0071877,967.927844,968.1532407,0.002876263,-0.000408161,"	Null"
-1.01128418,-1.182739258,-0.918701172,0.004729454,0.222392578,0.073486328,0.392944336,0.008911659,-0.183920898,-0.381591797,0.127563477,0.027193493,1.068747691,0.95197444,1.210590128,0.004227961,968.007679,967.9611568,968.0639307,0.001060124,0.000171715,"	Null"
-0.987236328,-1.053588867,-0.933105469,0.001224146,0.216494141,0.147094727,0.30065918,0.002027072,-0.222998047,-0.295532227,-0.091308594,0.002736726,1.037146724,0.98006605,1.110627911,0.001503179,968.0103438,967.9754376,968.0384607,0.00022154,0.000101184,"	Null"
-0.973652344,-1.022705078,-0.92980957,0.000764765,0.223789062,0.124145508,0.298950195,0.002120287,-0.201049805,-0.27746582,-0.027832031,0.005893139,1.022728722,0.967883376,1.080250656,0.001230126,968.0096695,967.9913742,968.0464349,0.000203569,8.12E-05,"	Null"
-1.039326172,-1.24987793,-0.88684082,0.009456299,0.203588867,-0.021240234,0.395019531,0.010693185,-0.206152344,-0.36328125,-0.073242188,0.006927241,1.08554806,0.921376805,1.32670979,0.012664116,968.0107291,967.9775549,968.0641695,0.000769275,0.000118771,"	Null"
-0.564882812,-1.06237793,-0.239013672,0.06481696,0.592885742,0.217163086,0.982666016,0.04563545,-0.496162109,-0.784667969,-0.043823242,0.051981915,1.035311133,0.908395488,1.167503653,0.00578159,968.1544314,967.9736294,968.434369,0.020154309,0.00308442,"	Null"
-0.935692139,-1.233886719,-0.482910156,0.029540122,0.233859863,-0.145629883,0.471435547,0.022589525,-0.351568604,-0.812744141,0.031005859,0.067766378,1.071943883,0.812609014,1.484667483,0.023680882,967.8586701,967.626368,968.1338867,0.017934388,0.001693023,"	Null"
-1.015996094,-1.329956055,-0.877563477,0.010547594,0.26690918,0.044677734,0.546142578,0.022338706,-0.21253418,-0.510253906,-0.109375,0.007212638,1.084176943,0.930089102,1.444421158,0.013048136,968.0112291,967.9625238,968.0587473,0.000876778,0.000453047,"	Null"
-0.514145508,-1.224731445,-0.130249023,0.10772171,0.459008789,-0.23059082,0.970825195,0.141834015,-0.550395508,-1.041259766,0.013427734,0.116444206,1.060914212,0.865856584,1.329986754,0.014920052,968.2527342,967.9785845,968.7112048,0.081783247,0.008445631,Lift Up
-0.840493164,-1.287231445,-0.10168457,0.139324343,0.195742187,-0.145874023,0.892944336,0.059787059,-0.332333984,-1.003540039,0.014282227,0.09054686,1.048907253,0.724069338,1.60267494,0.04216656,967.7470836,966.9023691,968.4350765,0.147104119,0.002322261,Lift Up
-0.890986328,-0.986694336,-0.76953125,0.00344349,0.46840332,0.197753906,0.886962891,0.041714311,-0.072636719,-0.159667969,0.12097168,0.00616704,1.031889712,0.957844587,1.205968049,0.004595571,968.0562133,967.7960453,968.3220158,0.035645117,-0.003394494,Lift Up
-0.977729492,-1.043457031,-0.942504883,0.000748306,0.225527344,0.107666016,0.341918945,0.003628591,-0.18652832,-0.267700195,-0.035644531,0.003889806,1.024101404,0.981921947,1.106969145,0.001020917,968.0202616,967.9296242,968.0469441,0.001199016,0.000884439,Lift Up
-0.974921875,-1.002197266,-0.96081543,0.000136314,0.23328125,0.179321289,0.259399414,0.000436954,-0.171791992,-0.254638672,-0.108154297,0.001486898,1.018026762,1.003706693,1.032569424,6.70E-05,968.061571,968.0427655,968.1009338,0.000287194,0.000375742,Lift Up
-0.976762695,-0.997924805,-0.938598633,0.000188378,0.229790039,0.107788086,0.372680664,0.004361497,-0.119501953,-0.19921875,-0.064208984,0.001406858,1.01334251,0.983173765,1.037694173,0.000185522,968.160855,967.8239251,968.586278,0.037220512,-0.000478468,Lift Up
-0.939833984,-0.967285156,-0.916137695,0.000169337,0.321298828,0.243530273,0.39050293,0.001825554,-0.219521484,-0.294921875,-0.164428711,0.001463659,1.018807178,0.996060158,1.044410117,0.000168115,968.0228435,967.8263927,968.2904811,0.02000059,7.59E-05,Lift Up
-0.967949219,-0.983154297,-0.938476563,9.10E-05,0.256850586,0.194335938,0.303466797,0.000637286,-0.179956055,-0.251098633,-0.160766602,0.000378264,1.017996177,1.006325127,1.037469618,6.19E-05,968.0716429,968.0132986,968.2390857,0.004361978,-0.000948602,Lift Up
-0.965810547,-0.973632813,-0.950195313,3.89E-05,0.254624023,0.235839844,0.316040039,0.000447369,-0.186196289,-0.202636719,-0.162841797,0.000111498,1.016305358,1.012115695,1.022376654,7.79E-06,968.0332363,968.0012827,968.0868231,0.00069103,-0.000625582,Lift Up
-0.96871582,-1.000366211,-0.941040039,0.000297505,0.350654297,0.244628906,0.423706055,0.003254975,-0.164394531,-0.187866211,-0.14465332,0.000127698,1.044925505,1.013504228,1.068276711,0.000170104,968.0199762,967.9895672,968.0606853,0.000344306,-2.85E-05,Lift Up
-1.002280273,-1.023071289,-0.983520508,0.000143287,0.214448242,0.151489258,0.263305664,0.001328329,-0.203427734,-0.256713867,-0.163574219,0.000914458,1.046019423,1.022853211,1.066242792,0.000143656,967.9158898,967.8171299,968.0762098,0.009004242,-0.003045178,Lift Up
-0.936723633,-0.979858398,-0.9140625,0.000454204,0.261347656,0.239501953,0.28137207,0.000171267,-0.160703125,-0.172241211,-0.143066406,5.14E-05,0.985740988,0.960058454,1.032595905,0.000569762,967.7281018,967.6381755,967.8282018,0.004719382,-0.002337471,Lift Up
-0.944458008,-0.99597168,-0.91809082,0.000431335,0.265131836,0.165283203,0.486938477,0.005440232,-0.161201172,-0.219848633,-0.076293945,0.001170808,0.997318785,0.963591732,1.05583819,0.000614979,967.6597363,966.838404,968.8390474,0.282927518,-0.003313891,Lift Up
-0.986586914,-1.116088867,-0.918212891,0.00281038,0.203032227,-0.141601563,0.348510742,0.010681404,-0.129790039,-0.216796875,-0.048461914,0.002237873,1.021776876,0.937524509,1.153613855,0.002995611,967.495848,967.1771666,967.6000545,0.013202463,0.003289699,Lift Up
-1.003120117,-1.119384766,-0.890625,0.003682642,0.189321289,-0.018920898,0.308227539,0.00694141,-0.087749023,-0.227294922,0.099487305,0.013128551,1.034077794,0.894149241,1.128095058,0.004030914,967.5890148,967.5511191,967.6071803,0.000233018,-7.98E-05,Lift Up
-0.986235352,-1.093261719,-0.915893555,0.002039194,0.230898437,0.085205078,0.381591797,0.008658966,-0.062084961,-0.296142578,0.197021484,0.023999241,1.030255863,0.945197682,1.179309235,0.002779883,967.6059178,967.5900253,967.6252455,0.000111767,1.28E-05,Lift Up
-1.028730469,-1.206420898,-0.82434082,0.01538806,0.221152344,0.053100586,0.40234375,0.006480568,-0.156132812,-0.367675781,0.100341797,0.020265403,1.075130625,0.843774142,1.294507779,0.017554568,967.5870924,967.557613,967.6632535,0.000580492,0.000282314,Lift Up
-1.01621582,-1.261352539,-0.847412109,0.013928827,0.240117187,0.108398438,0.362792969,0.004822328,-0.220996094,-0.344482422,0.015258789,0.011140792,1.07458781,0.861689727,1.303640305,0.014186059,967.6013149,967.5372813,967.6735375,0.001504844,-4.31E-05,"	Null"
-0.974130859,-1.022949219,-0.931274414,0.000450257,0.241577148,0.187988281,0.291748047,0.001001364,-0.176186523,-0.271240234,-0.026733398,0.004039703,1.021236991,0.966056571,1.092974176,0.000852081,967.5942757,967.5560741,967.6247684,0.000284181,0.000250505,"	Null"
-0.987504883,-1.137939453,-0.869628906,0.00469514,0.18831543,0.080322266,0.400756836,0.006912624,-0.199760742,-0.373291016,-0.080810547,0.006157692,1.029895505,0.89467897,1.262877042,0.00751111,967.5982783,967.5653572,967.6553759,0.000887758,2.99E-06,"	Null"
-1.155078125,-1.467895508,-0.934326172,0.025437391,0.239208984,0.003051758,0.5625,0.025557818,-0.140961914,-0.41796875,0.051391602,0.016071137,1.201486777,0.937111822,1.529542881,0.034466547,967.5818756,967.5154137,967.7660022,0.003749503,-5.79E-05,"	Null"
-1.151748047,-1.443359375,-0.798828125,0.032196735,0.210942383,-0.258422852,0.499633789,0.03247553,-0.143486328,-0.407714844,0.151855469,0.028844789,1.203258765,0.858450167,1.533377984,0.036726068,967.5894832,967.4911275,967.7080518,0.004499325,-2.93E-05,"	Null"
-0.991767578,-1.526611328,-0.59777832,0.055723406,0.323212891,0.006835938,0.923461914,0.050489562,-0.164702148,-0.338500977,0.092285156,0.012413861,1.085095696,0.724277225,1.587848944,0.055761809,967.6261592,967.5089322,967.8059951,0.004979761,0.00176424,Stairs Down
-1.060395508,-1.637084961,-0.723754883,0.066182697,0.298129883,-0.083007813,0.788330078,0.058672938,-0.155258789,-0.419799805,0.12487793,0.01613816,1.144327224,0.76613738,1.653690236,0.068206477,967.6780331,967.5970785,968.1274933,0.010400227,0.001633694,Stairs Down
-1.045102539,-1.860961914,-0.549804688,0.092270478,0.175893555,0.039428711,0.433105469,0.01158022,-0.166972656,-0.481567383,0.116210938,0.041335853,1.097173595,0.609795706,1.892355249,0.091921733,967.7188388,967.5995589,968.0310686,0.012492444,0.000438384,Stairs Down
-1.006943359,-1.398193359,-0.523071289,0.050813928,0.169555664,0.00378418,0.428710938,0.012528274,-0.0925,-0.387207031,0.165283203,0.021025064,1.039324635,0.526116391,1.494596006,0.055119393,967.8101925,967.6991417,967.924916,0.004173656,0.001317118,Stairs Down
-1.040585937,-1.459106445,-0.633911133,0.05400717,0.121796875,-0.14050293,0.403930664,0.018914737,-0.149130859,-0.447875977,0.096191406,0.014982857,1.073178977,0.661594844,1.473094607,0.055763824,967.9104702,967.7774832,968.0860991,0.005254992,0.000338495,Stairs Down
-0.993432617,-1.284545898,-0.690551758,0.030254767,0.195942383,0.071533203,0.457397461,0.009363252,-0.168754883,-0.442871094,0.174560547,0.032758199,1.04579968,0.716834907,1.368925559,0.032056039,967.9650906,967.8769568,968.34518,0.014412262,0.000317952,Stairs Down
-1.141551514,-1.656738281,-0.743041992,0.049007461,0.16081665,-0.150146484,0.526489258,0.028523914,-0.180048828,-0.399902344,0.061279297,0.017344139,1.185318089,0.789626128,1.685386933,0.050875979,968.0120883,967.9130224,968.1760121,0.006068294,0.000544441,Stairs Down
-1.114677734,-1.433227539,-0.872924805,0.028740058,0.308032227,-0.026611328,0.6640625,0.045904133,-0.142128906,-0.318481445,0.024902344,0.010150432,1.187342844,0.874453766,1.482466892,0.032075332,968.0264906,967.9344546,968.1464116,0.003494496,0.000824761,Stairs Down
-1.17965332,-1.467163086,-0.869995117,0.032912443,0.216967773,-0.194702148,0.544311523,0.03045899,-0.164516602,-0.477783203,0.108642578,0.033966036,1.236874453,0.880646817,1.521398118,0.032553904,968.0229046,967.9396489,968.1239088,0.003386292,-0.000152876,Stairs Down
-1.147529297,-1.630371094,-0.723632813,0.054965822,0.245541992,0.02355957,0.665527344,0.034628762,-0.207026367,-0.588378906,0.042236328,0.028666126,1.214087984,0.729641012,1.682680086,0.063679539,968.0349704,967.9388567,968.2419938,0.005442372,-0.000766436,Stairs Down
-1.220449219,-1.561523438,-0.900634766,0.03376005,0.306728516,-0.003173828,0.734863281,0.049443073,-0.148056641,-0.385864258,0.123413086,0.020164698,1.289977656,0.90157448,1.587624958,0.044233572,968.033465,967.9477434,968.1744032,0.00505551,-0.000667014,Stairs Down
-1.103852539,-1.433837891,-0.70324707,0.037312619,0.160615234,-0.304443359,0.537841797,0.05009694,-0.131420898,-0.407714844,0.297607422,0.038798774,1.162342784,0.816342201,1.471764029,0.035822865,968.0578312,967.9572556,968.1197913,0.001936843,0.000449363,Stairs Down
-1.226503906,-1.8671875,-0.555541992,0.138459713,0.343178711,-0.306762695,0.924682617,0.126706794,-0.214077148,-0.518676758,-0.024169922,0.01789545,1.347971254,0.606493802,1.989799377,0.132441738,968.0883423,968.0173504,968.1724938,0.002621999,0.000750985,Stairs Down
-0.997509766,-1.567504883,-0.665649414,0.054086893,0.116030273,-0.220947266,0.532226563,0.040560721,-0.182304687,-0.418823242,0.052124023,0.017947103,1.053472039,0.775233803,1.588872107,0.043827464,968.1533261,968.087227,968.3218547,0.004082386,0.001170281,Stairs Down
-1.033789062,-1.420288086,-0.731201172,0.043459997,0.005756836,-0.127807617,0.252807617,0.011036406,-0.078828125,-0.309082031,0.18347168,0.023051583,1.052853838,0.736388642,1.45184207,0.043674891,968.2419227,968.1597739,968.3360358,0.002406011,0.001186778,Stairs Down
-1.009052734,-1.3671875,-0.728881836,0.034489631,0.109101562,-0.08972168,0.364501953,0.014072308,-0.108022461,-0.381958008,0.15612793,0.017169147,1.035222187,0.741289449,1.380678211,0.035503254,968.3438133,968.2598193,968.459635,0.003536214,0.000693684,Stairs Down
-1.131689453,-1.570922852,-0.779418945,0.046017618,0.167416992,-0.09387207,0.417602539,0.022785943,-0.123300781,-0.285766602,0.108032227,0.013642741,1.166772491,0.790434541,1.592714052,0.044662972,968.4206839,968.3354191,968.5213008,0.002251894,0.000542729,Stairs Down
-1.066547852,-1.645996094,-0.714477539,0.068680188,0.219150391,0.001220703,0.664550781,0.02781842,-0.183583984,-0.563964844,0.141113281,0.048237362,1.131797416,0.738903954,1.784995245,0.082401529,968.4832672,968.2868931,969.181317,0.048304547,-0.000372278,Stairs Down
-1.228476562,-1.550170898,-0.782470703,0.043792278,0.231772461,-0.16784668,0.57019043,0.052498739,-0.189467773,-0.393798828,0.053466797,0.015695681,1.290850001,0.8014762,1.584520247,0.043782102,968.4955184,968.3953947,968.6260652,0.005383997,0.000556775,"	Null"
-1.08605957,-1.335327148,-0.753417969,0.032699076,0.227963867,-0.015258789,0.45690918,0.019932518,-0.150185547,-0.311767578,0.057983398,0.014950125,1.135040886,0.753579153,1.392022524,0.032966365,968.5003428,968.4093484,968.6347833,0.003838642,0.00036483,"	Null"
-0.9990625,-1.145019531,-0.856323242,0.005584638,0.228022461,-0.084960938,0.443359375,0.015840462,-0.22184082,-0.515258789,-0.013061523,0.016884899,1.06397023,0.964486083,1.204825265,0.005280526,968.5092621,968.4660498,968.5652381,0.000561601,0.000215041,"	Null"
-0.979794922,-1.09362793,-0.917358398,0.002625894,0.250063477,0.157592773,0.361816406,0.003200411,-0.18934082,-0.272949219,-0.064331055,0.004607897,1.032287896,0.958928955,1.154576495,0.003122562,968.5142766,968.4958387,968.5339429,0.000117069,0.000199976,"	Null"
-0.610563965,-1.099243164,0.703613281,0.38355885,0.501148682,0.155151367,1.317260742,0.112461684,-0.152086182,-0.422363281,0.156494141,0.018271175,1.042282423,0.48423042,1.682561527,0.073865832,968.5715696,968.4895785,968.8315909,0.010835241,0.002448495,"	Null"
0.656494141,0.190917969,0.899536133,0.029217865,0.739572754,0.484985352,1.037353516,0.030357146,-0.091936035,-0.196533203,0.052612305,0.006380184,1.023174493,0.692095838,1.166125652,0.004862878,968.3812509,968.1478647,968.6480866,0.016013794,-0.002716264,"	Null"
-0.123948975,-1.352539063,0.830810547,0.685074968,0.641053467,0.413574219,1.028930664,0.025541287,-0.235795898,-0.488769531,-0.134643555,0.01231677,1.053440655,0.607356384,1.531480178,0.088766749,968.5116122,968.3852074,968.7663482,0.012541296,0.001730641,"	Null"
0.773321533,0.724487305,0.822387695,0.000827014,0.593967285,0.485839844,0.664550781,0.001493727,-0.237786865,-0.389038086,-0.124389648,0.004297416,1.006692955,0.946341191,1.030942105,0.000492113,968.4265847,968.2626077,968.5942773,0.010485468,-0.000420212,"	Null"
0.75230957,0.680419922,0.794921875,0.000928675,0.629609375,0.525024414,0.678588867,0.001485509,-0.190981445,-0.377075195,-0.096801758,0.0024893,1.001563199,0.950260407,1.046083592,0.000583005,968.4657285,968.3129437,968.6059227,0.007998294,-0.000905021,"	Null"
-0.65644043,-1.026367188,0.579223633,0.242314223,0.525644531,0.302978516,1.052001953,0.047689333,-0.260317383,-0.448608398,-0.023925781,0.011834109,1.023704199,0.701050825,1.298158246,0.026091265,968.4252541,968.1794397,968.5412303,0.013012066,0.003568485,"	Null"
-0.954121094,-1.077880859,-0.843383789,0.003763086,0.29074707,0.03527832,0.427856445,0.007954766,-0.228583984,-0.382324219,-0.131835938,0.005098235,1.030320711,0.949571654,1.143991812,0.002241129,968.5202387,968.5036253,968.5573064,0.000197485,-2.91E-05,"	Null"
-0.953959961,-0.998901367,-0.905273438,0.000623525,0.199099121,-0.001586914,0.274536133,0.00761774,-0.264571533,-0.335083008,-0.19140625,0.002329561,1.01521132,0.953170377,1.078632684,0.001005806,968.5093044,968.4809433,968.5678236,0.000383209,-0.000279639,"	Null"
-0.966782227,-0.972167969,-0.960205078,1.17E-05,0.244542236,0.228149414,0.267211914,9.49E-05,-0.195078125,-0.213989258,-0.159179688,0.00022575,1.016282697,1.007884807,1.027038275,2.30E-05,968.5136728,968.5049653,968.5201504,1.72E-05,-5.41E-05,"	Null"
-0.767064209,-1.19140625,-0.063232422,0.134318008,0.229239502,-0.124389648,0.657592773,0.041554425,-0.428217773,-1.135009766,-0.173583984,0.085234098,1.028193639,0.727999967,1.429416037,0.025880826,968.5720882,968.5072561,968.7641758,0.006121211,0.001553474,"	Null"
0.099615479,-0.063232422,0.186767578,0.003918601,-0.338410645,-0.473632813,-0.076904297,0.011222582,-0.918839111,-1.135009766,-0.395874023,0.009999079,0.994476326,0.583091666,1.139368149,0.004662643,968.5458865,968.3602215,968.6479736,0.005360312,-0.0016107,"	Null"
-1.030980225,-1.750854492,-0.039672852,0.098998763,0.290655518,-0.426269531,0.805175781,0.043233416,-0.230811768,-0.475952148,0.005493164,0.014528061,1.123847595,0.407558114,1.947151162,0.093771865,968.3323583,967.9606034,968.50015,0.030831184,0.00512805,"	Null"
-0.939599609,-1.095214844,-0.758300781,0.003780137,0.312321777,0.14074707,0.571777344,0.010796435,-0.202229004,-0.297973633,-0.034912109,0.004026334,1.01840224,0.869377224,1.126105434,0.002588527,968.564148,968.0968755,968.9426502,0.054230068,-0.002217146,"	Null"
-1.064890137,-1.333129883,-0.909057617,0.014300796,0.19602417,-0.228759766,0.397583008,0.03265096,-0.140084229,-0.37487793,0.10168457,0.017266508,1.112618857,0.923866368,1.405192322,0.016917433,968.4529606,968.2610122,968.6360362,0.00886372,0.001785762,"	Null"
-1.069199219,-1.302490234,-0.906982422,0.013791528,0.253394775,0.03137207,0.423339844,0.014426742,-0.248063965,-0.415771484,0.016479492,0.017181338,1.138759636,0.920209196,1.412398925,0.017276481,968.5207722,968.4262984,968.6095685,0.003446427,-0.000566432,"	Null"
-1.045849609,-1.266235352,-0.876098633,0.010330093,0.236451416,0.03137207,0.497070313,0.021062179,-0.251175537,-0.421875,-0.084472656,0.010173872,1.111762076,0.892677769,1.415154457,0.018116562,968.504617,968.4262984,968.6296767,0.002019891,0.000759548,"	Null"
-0.986804199,-1.362304688,-0.573974609,0.040515916,0.36552002,0.04296875,0.975830078,0.084088586,-0.178300781,-0.432739258,0.098999023,0.021644378,1.123557139,0.876479949,1.431778327,0.021802351,968.4999698,968.4231,968.6257913,0.00344855,0.000394726,"	Null"
-0.589952393,-0.730102539,-0.468505859,0.005871817,0.823155518,0.729492188,0.901855469,0.002633935,0.049066162,-0.107543945,0.251708984,0.007788488,1.021000667,0.934552654,1.092610344,0.001742682,968.5609519,968.4877188,968.7857908,0.006574401,-0.000453785,Lift Down
-0.538747559,-0.608520508,-0.496704102,0.001053427,0.863237305,0.754760742,0.969970703,0.002510601,0.09355835,-0.125366211,0.296630859,0.01879465,1.031279829,0.904581655,1.109722224,0.002805803,968.4981678,968.3996514,968.5694423,0.002068998,0.00104916,Lift Down
-0.405308838,-0.533203125,-0.332397461,0.002696537,0.934439697,0.880004883,0.980834961,0.000955321,0.024466553,-0.06628418,0.134765625,0.004495509,1.022649228,0.987883258,1.05251884,0.000308952,968.5176756,968.4556133,968.5587717,0.000778206,0.000766789,Lift Down
-0.619835205,-0.959472656,-0.367797852,0.043659866,0.763651123,0.411376953,0.949462891,0.030195104,0.019102783,-0.068115234,0.1484375,0.004404215,1.021494933,0.908178071,1.08855546,0.001765991,968.5222081,968.3948537,968.7177309,0.008103255,-0.001035897,Lift Down
-0.762502441,-0.976928711,-0.447387695,0.034712866,0.625296631,0.361450195,0.83972168,0.03014795,0.195214844,0.033081055,0.388916016,0.009311701,1.038506989,0.864619551,1.121096794,0.005503748,968.5332474,968.3657081,968.6792178,0.006638373,-0.001636306,Lift Down
-0.676185303,-0.932495117,-0.308959961,0.04070214,0.708626709,0.348632813,0.940673828,0.028111891,0.098632812,-0.119873047,0.290527344,0.016240833,1.022827777,0.77802946,1.175078642,0.007206527,968.5497074,968.2022793,968.8722365,0.029009912,-0.00079889,Lift Down
-0.766782227,-0.962158203,-0.56652832,0.01097663,0.669825439,0.331176758,0.904663086,0.021026456,0.029976807,-0.110961914,0.134521484,0.00426321,1.034876727,0.95504522,1.175078642,0.002478287,968.4952228,968.0183152,969.0019023,0.079475938,-0.004059083,Lift Down
-0.97432251,-1.013793945,-0.943725586,0.000212436,0.291807861,0.225952148,0.365966797,0.001842314,0.020996094,-0.034179688,0.069213867,0.000872216,1.01854067,0.978206898,1.062778177,0.000373352,968.55032,968.5223157,968.5941132,0.000311926,0.000121296,Lift Down
-0.568944092,-1.020507813,0.036254883,0.165045647,0.615826416,0.251220703,0.936523438,0.056063593,0.084599609,-0.064331055,0.349243164,0.020600727,0.966912645,0.754105596,1.182444761,0.014615609,968.525477,968.4594969,968.5633738,0.000798738,-0.00039835,Lift Down
-0.582419434,-0.932373047,-0.023925781,0.09132137,0.780994873,0.23840332,1.299438477,0.102813422,0.190858154,0.068725586,0.287841797,0.001861168,1.041867776,0.313563302,1.503952392,0.095090668,968.62189,968.5259133,968.7188967,0.002965826,0.001699063,Lift Down
-0.981126709,-0.999511719,-0.92199707,0.000291416,0.261137695,0.188232422,0.487548828,0.004915927,-0.046813965,-0.119140625,0.068725586,0.003148724,1.020342588,0.994757306,1.045229957,0.000169266,968.8286805,968.6365867,968.9334695,0.008582734,0.003072114,Lift Down
-0.989720459,-1.051513672,-0.955566406,0.000737006,0.220810547,0.093017578,0.325927734,0.006881108,-0.017581787,-0.085571289,0.029174805,0.001112673,1.018182301,0.977000451,1.058046051,0.000566954,969.060801,968.9261934,969.1338843,0.003087505,0.001545533,Lift Down
-0.980472412,-1.007202148,-0.954223633,0.000172829,0.25168335,0.142578125,0.339599609,0.00296484,-0.054415283,-0.141113281,0.029785156,0.001982441,1.01603833,0.971515599,1.049111163,0.000370409,969.2604349,969.1276721,969.4111131,0.005276011,0.00238605,Lift Down
-0.988330078,-1.026611328,-0.964599609,0.000231513,0.189854736,0.108642578,0.306762695,0.002489171,-0.097047119,-0.14831543,-0.064208984,0.000678246,1.012598562,0.979463046,1.052339448,0.000271111,969.5055534,969.4092206,969.6150462,0.00359064,0.00183338,Lift Down
-0.993811035,-1.002807617,-0.982299805,2.58E-05,0.165731201,0.139282227,0.225830078,0.000294289,-0.107442627,-0.12487793,-0.072021484,0.000175752,1.013473276,0.994735914,1.021967604,3.43E-05,969.6926695,969.5725409,969.8026886,0.0037052,0.002064345,Lift Down
-1.007121582,-1.048461914,-0.990722656,0.000273161,0.144819336,0.127441406,0.159423828,7.67E-05,-0.09371582,-0.103759766,-0.085083008,3.30E-05,1.021856654,1.004674506,1.060954527,0.000239615,969.9076338,969.8026886,970.0137317,0.003759205,0.002104978,Lift Down
-1.033199463,-1.060668945,-0.996459961,0.000433194,0.13307373,0.11730957,0.146484375,3.18E-05,-0.090466309,-0.105957031,-0.082641602,3.32E-05,1.045696927,1.007432459,1.071956799,0.000409134,970.076253,970.0137317,970.1038263,0.000671613,0.000774959,Lift Down
-0.999224854,-1.010131836,-0.988891602,2.29E-05,0.1187146,0.113525391,0.134155273,2.06E-05,-0.08604126,-0.1015625,-0.074584961,7.01E-05,1.009969644,1.000440218,1.019872367,2.05E-05,970.114789,970.1001338,970.1273201,7.41E-05,0.000256706,Lift Down
-0.995389404,-1.014282227,-0.957397461,0.000113143,0.1465625,0.074584961,0.340820313,0.004798189,-0.074182129,-0.135864258,0.004150391,0.001360971,1.011832589,0.988167768,1.044993867,0.000189914,970.1182676,970.0282676,970.1784152,0.001424221,-0.000196677,Lift Down
-0.952633057,-0.97265625,-0.916503906,0.000259642,0.342739258,0.291748047,0.406494141,0.001415334,0.011842041,-0.024536133,0.041870117,0.00024351,1.013382577,0.994184257,1.028423387,7.60E-05,970.1303178,969.9565842,970.1684532,0.002027497,0.000630775,Lift Down
-0.97769165,-1.002075195,-0.947387695,0.000136344,0.270447998,0.199707031,0.347045898,0.001800402,-0.022425537,-0.083129883,0.037475586,0.001881233,1.016443502,0.99807095,1.039883755,0.000149892,970.143511,970.1064762,970.1564161,0.000223777,-0.000264539,Lift Down
-0.972614746,-0.989135742,-0.947387695,7.61E-05,0.264368896,0.222045898,0.347045898,0.000727158,-0.083575439,-0.115600586,-0.034667969,0.000612322,1.01203964,1.002098028,1.022526794,3.27E-05,970.1493712,970.1341454,970.1889857,0.000217462,-0.000150407,Lift Down
-0.968983154,-0.989501953,-0.912719727,0.00050275,0.277716064,0.213378906,0.408203125,0.00384957,-0.065864258,-0.100463867,0.03894043,0.000390536,1.012395135,0.976874996,1.033068823,0.000145642,970.1442805,970.1017132,970.1982125,0.000600802,4.03E-05,Lift Down
-0.962958984,-1.077270508,-0.846679688,0.003547555,0.339957275,0.236816406,0.541137695,0.007865699,0.072738037,-0.053222656,0.162353516,0.004729841,1.029523817,0.918634417,1.197225866,0.004256718,970.1428887,970.0846371,970.2119528,0.0011971,0.000250763,Lift Down
-0.922200928,-1.063110352,-0.756591797,0.007286415,0.412849121,0.308959961,0.619750977,0.007526632,0.058679199,-0.061035156,0.173828125,0.003953857,1.016320217,0.845150298,1.186824745,0.010115804,970.131779,970.0813701,970.1750942,0.000742549,-0.000129147,"	Null"
-0.967537842,-1.065429688,-0.846801758,0.003177128,0.289294434,0.163085938,0.451049805,0.0060549,-0.011330566,-0.163574219,0.199707031,0.014597216,1.019973241,0.912988578,1.135716905,0.003226935,970.1191631,970.0641252,970.1633441,0.00077931,5.28E-05,"	Null"
-0.981640625,-1.004150391,-0.962524414,0.000113015,0.234455566,0.163085938,0.294799805,0.00071718,-0.12012085,-0.176025391,-0.010986328,0.001647114,1.017561872,1.007615048,1.029134879,3.75E-05,970.1465063,970.1389567,970.1572279,2.48E-05,6.69E-05,"	Null"
-0.981203613,-1.026855469,-0.929077148,0.000632424,0.222469482,0.099487305,0.422241211,0.009493477,-0.079814453,-0.153930664,0.174926758,0.008452956,1.017815528,0.956016664,1.090144762,0.001078957,970.1399569,970.1070703,970.1801794,0.000293315,-9.23E-05,"	Null"
-0.969915771,-1.064697266,-0.835571289,0.002796562,0.309829102,0.177856445,0.478637695,0.00588715,0.015982666,-0.128295898,0.162963867,0.010214307,1.02598023,0.888508616,1.146890318,0.003090634,970.1409486,970.1120061,970.1725378,0.000211185,0.000304928,"	Null"
-0.983677979,-1.016113281,-0.935180664,0.000438316,0.199257812,0.139038086,0.344848633,0.001614231,-0.052453613,-0.188720703,0.114990234,0.009462095,1.010438122,0.968688248,1.063214938,0.000496686,970.1575781,970.122146,970.1803237,0.000279829,-0.000253215,"	Null"
-0.965955811,-1.090454102,-0.849487305,0.004255075,0.259042969,-0.001098633,0.488769531,0.023109432,0.010552979,-0.162353516,0.219238281,0.011683763,1.016983668,0.862721698,1.151287545,0.004734606,970.116988,970.0423125,970.1749089,0.001693068,-0.000523402,"	Null"
-0.968798828,-1.115966797,-0.849487305,0.005709534,0.309953613,0.114868164,0.413208008,0.007228031,0.07855835,-0.097290039,0.413574219,0.023138752,1.034283102,0.862721698,1.171821549,0.00685641,970.1713128,970.1061275,970.2194979,0.000905847,0.000730697,Lift Up
-0.958577881,-1.049316406,-0.912231445,0.001212641,0.335402832,0.219482422,0.413330078,0.003479043,0.022053223,-0.174804688,0.189086914,0.013645349,1.023821225,0.960545266,1.109883561,0.001814867,970.1541898,970.0584533,970.233592,0.001996353,0.000439318,Lift Up
-0.977558594,-1.023071289,-0.954956055,0.000273884,0.251918945,0.228881836,0.30871582,0.000429261,-0.006202393,-0.097900391,0.090698242,0.004916612,1.012134005,0.98707279,1.058599254,0.000273479,970.1502819,970.1022661,970.1841971,0.000591144,0.000589866,Lift Up
-0.974197998,-0.997436523,-0.950317383,0.000146085,0.287558594,0.255126953,0.369873047,0.001431759,0.03177124,-0.000610352,0.092041016,0.000697652,1.017279549,1.002507984,1.053944658,0.000157734,970.1540305,970.1008681,970.182363,0.000283987,-0.000388219,Lift Up
-0.958735352,-1.004516602,-0.91027832,0.000604275,0.296162109,0.219238281,0.382202148,0.00148522,-0.09786377,-0.186523438,0.092041016,0.008341716,1.01319146,0.992834113,1.052939811,0.000235103,970.1234725,970.0786677,970.1545962,0.000375241,-4.41E-05,Lift Up
-0.962679443,-0.981323242,-0.940551758,9.32E-05,0.334904785,0.305419922,0.378295898,0.000454635,0.033184814,-0.081787109,0.084838867,0.002123948,1.021026274,0.991319006,1.045282191,0.000166268,970.1512265,970.1343296,970.1839515,0.000268591,-5.82E-05,Lift Up
-0.977751465,-1.000366211,-0.960571289,0.000119274,0.261171875,0.177856445,0.342529297,0.002047409,-0.012005615,-0.050292969,0.024047852,0.000449098,1.013352659,1.001587033,1.034164277,5.94E-05,970.152223,970.1220335,970.2020939,0.00056319,0.000420427,Lift Up
-0.768796387,-0.988769531,-0.157592773,0.072975881,0.494862061,-0.163452148,0.829223633,0.074218648,-0.200327148,-0.771606445,0.071899414,0.069386131,1.029688406,0.627831257,1.243164212,0.030529241,970.1210576,969.9476007,970.4086731,0.01345919,-0.001173219,Lift Up
-1.023748779,-1.069335938,-0.947998047,0.000508076,0.258162842,0.195800781,0.315917969,0.000814082,0.004001465,-0.054931641,0.066894531,0.00089754,1.056571251,0.976340833,1.101117091,0.000586183,970.1022595,969.9870874,970.1487389,0.001982247,-0.000769945,Lift Up
-0.988873291,-1.000610352,-0.97253418,5.20E-05,0.190446777,0.151245117,0.244750977,0.000696151,-0.095130615,-0.149536133,-0.034301758,0.001267317,1.012462128,0.991675139,1.026927305,0.000106985,969.934802,969.8614104,969.9870874,0.001284207,-0.001113302,Lift Up
-0.977171631,-1.018920898,-0.955688477,0.000345948,0.276970215,0.135742188,0.408325195,0.008284164,-0.032194824,-0.065551758,0.019775391,0.000426047,1.020490708,1.001548306,1.042650231,0.000179511,969.7432562,969.6148888,969.892095,0.007826945,-0.002541687,Lift Up
-0.976121826,-0.98840332,-0.9609375,5.68E-05,0.25592041,0.226074219,0.277099609,0.000187989,-0.05583252,-0.078979492,-0.01574707,0.000231261,1.010865529,0.999608,1.025301292,4.90E-05,969.4932845,969.3717283,969.6647356,0.006929662,-0.002712359,Lift Up
-0.986894531,-1.002929688,-0.973022461,4.94E-05,0.226088867,0.179077148,0.293334961,0.000883041,-0.067008057,-0.092773438,-0.050415039,0.000132275,1.01518235,1.0068474,1.027844267,2.62E-05,969.2959674,969.1498276,969.3808905,0.003848337,-0.002098572,Lift Up
-0.984124756,-1.006713867,-0.966430664,0.00017691,0.22642334,0.114257813,0.302246094,0.002911546,-0.055184326,-0.090209961,-0.015258789,0.000542019,1.012999091,0.978125115,1.040831036,0.000243824,969.0780943,968.9901585,969.1498276,0.001843749,-0.001319922,Lift Up
-0.98108877,-0.994384766,-0.970092773,2.85E-05,0.254904568,0.220581055,0.302246094,0.000360246,-0.041961972,-0.091796875,-0.016967773,0.000435408,1.014917681,1.004306595,1.026031091,3.07E-05,968.8621719,968.7444467,968.9901585,0.005446658,-0.00247736,Lift Up
-0.972731465,-1.009277344,-0.948364258,0.000205249,0.265125621,0.234130859,0.342651367,0.000642603,-0.091274069,-0.166259766,-0.00390625,0.002844303,1.014050306,0.995623414,1.04615888,0.000187789,968.6279217,968.5753172,968.7444467,0.003151113,-0.001601067,Lift Up
-0.96118042,-0.989868164,-0.93737793,0.000172526,0.326210937,0.276245117,0.380981445,0.000792587,-0.035113525,-0.088134766,0.025146484,0.001518043,1.016791379,0.996890225,1.031464049,0.000109042,968.3911534,968.2734831,968.5973962,0.008903472,-0.002107284,Lift Up
-0.977961426,-0.988769531,-0.968505859,3.57E-05,0.274051514,0.248779297,0.311889648,0.000371524,-0.019609375,-0.046508789,0.020507813,0.000431031,1.016219985,1.007915588,1.028482546,2.44E-05,968.2217965,968.0976708,968.3515871,0.005566677,-0.002562634,Lift Up
-0.98182251,-0.988647461,-0.973022461,1.79E-05,0.250147705,0.225952148,0.269287109,0.000152203,-0.053400879,-0.064086914,-0.030883789,5.37E-05,1.014689482,1.006365047,1.023505085,2.81E-05,967.9871394,967.8674379,968.0976708,0.004311955,-0.002255278,Lift Up
-0.974294434,-0.999389648,-0.953491211,0.000140364,0.281888428,0.203735352,0.361328125,0.002580385,-0.025037842,-0.103271484,0.064575195,0.003129111,1.017263371,0.978528554,1.052708564,0.000307292,967.763657,967.6351807,967.8674379,0.004745437,-0.002339381,Lift Up
-0.965443115,-0.993164063,-0.948364258,7.65E-05,0.308649902,0.267333984,0.35559082,0.000620641,-0.040130615,-0.101318359,-0.013671875,0.000383886,1.01486184,0.989459018,1.032781367,8.21E-05,967.5476866,967.4259473,967.6504212,0.006496012,-0.002717009,Lift Up
-0.959281006,-0.993164063,-0.92175293,0.000475995,0.263168945,0.236572266,0.285522461,0.0002284,-0.059698486,-0.095458984,-0.018676758,0.000368183,0.996813313,0.957048953,1.032863785,0.000631281,967.3528018,967.2389829,967.4983597,0.005706807,-0.002155622,Lift Up
-0.957446289,-0.989257813,-0.932250977,0.000340421,0.235205078,0.219970703,0.252197266,7.72E-05,-0.056210937,-0.069824219,-0.044067383,6.06E-05,0.987556579,0.959094979,1.022751003,0.000393878,967.1934749,967.1753714,967.2389829,0.000283225,-0.000527018,Lift Up
-0.97121437,-0.992553711,-0.948486328,0.000162875,0.285904384,0.229248047,0.357299805,0.002160497,-0.018957157,-0.054931641,0.014404297,0.000675068,1.014051431,1.005299488,1.02408129,2.68E-05,967.1640499,967.1269414,967.1914358,0.000383031,-0.000506923,Lift Up
-0.961262207,-1.002441406,-0.947387695,0.000158702,0.329494629,0.255004883,0.35168457,0.000530478,-0.001191406,-0.021972656,0.015991211,0.000109006,1.016504067,0.995820154,1.043152161,0.000103886,967.1768236,967.1490311,967.198586,0.000120461,-4.86E-05,Lift Up
-0.970703125,-1.002197266,-0.952758789,0.000175769,0.303342285,0.215576172,0.358642578,0.001228621,-0.008000488,-0.043945313,0.029907227,0.000593865,1.017916942,0.995820154,1.043404877,0.000170181,967.1625281,967.0944254,967.198586,0.000358809,-0.000532581,Lift Up
-0.962809245,-1.04296875,-0.882568359,0.001730396,0.248141819,0.03894043,0.48034668,0.019405792,-0.029082327,-0.134277344,0.164794922,0.010299502,1.009371193,0.956578175,1.121457755,0.001727185,967.1579405,967.0740948,967.2137625,0.001898514,0.001295838,Lift Up
-0.945345459,-1.17578125,-0.78918457,0.012167689,0.411452637,0.271850586,0.583251953,0.007679552,-0.003391113,-0.200439453,0.085693359,0.004639178,1.035340502,0.86352892,1.297001666,0.015448899,967.1469686,967.0591369,967.2211257,0.001925904,-0.001215004,"	Null"
-0.984837646,-1.172851563,-0.833618164,0.006563711,0.296640625,0.177612305,0.556518555,0.008588053,-0.012772217,-0.422363281,0.207641602,0.026905092,1.043792393,0.863158049,1.363805162,0.011188955,967.1935061,967.1091291,967.2269933,0.001032407,0.000216836,"	Null"
-0.976264648,-0.997070313,-0.913818359,0.000488286,0.207329102,0.16809082,0.27331543,0.001033686,-0.130214844,-0.198852539,-0.012939453,0.001337116,1.007699047,0.956129443,1.0376704,0.000411165,967.1570487,967.1039164,967.214098,0.000984736,0.00042646,"	Null"
-0.982927246,-1.069213867,-0.950805664,0.000707227,0.21878418,0.182250977,0.363525391,0.002314294,-0.092355957,-0.187866211,0.183959961,0.013097989,1.018377404,0.977773572,1.142753953,0.00142211,967.1656456,967.1540536,967.1928229,0.00011676,0.000191979,"	Null"
-0.956245117,-1.069213867,-0.856933594,0.002876389,0.34376709,0.25378418,0.473510742,0.004365839,0.009587402,-0.190429688,0.183959961,0.013334407,1.024556982,0.925114033,1.14186334,0.003359912,967.1607341,967.0870332,967.2097747,0.001588545,0.000158937,"	Null"
-0.962744141,-1.012084961,-0.883422852,0.001366766,0.263981934,0.174926758,0.350097656,0.002299363,-0.101779785,-0.237670898,0.046264648,0.003704437,1.0066587,0.943024088,1.044535207,0.000865645,967.183715,967.1239308,967.2073583,0.000391766,0.000361702,"	Null"
-0.98556307,-1.12121582,-0.907226563,0.002652889,0.237304687,0.149658203,0.343139648,0.002840384,0.035555094,-0.130493164,0.21484375,0.011879456,1.021220753,0.92445869,1.16645581,0.003253353,967.1449252,967.0370694,967.1901443,0.002174887,0.000468759,"	Null"
-0.96673584,-1.091918945,-0.835327148,0.005271133,0.278404541,0.015625,0.407592773,0.011850995,0.070726318,-0.109619141,0.335693359,0.013294027,1.020902063,0.911736578,1.129932538,0.004225241,967.1821297,967.1368487,967.2403913,0.000723632,0.000467541,Lift Down
-0.965772705,-1.074951172,-0.902709961,0.00147347,0.3062854,0.150756836,0.525024414,0.009130569,-0.01026001,-0.23425293,0.152099609,0.013573424,1.024060063,0.949262587,1.118686877,0.001888492,967.1767458,967.0880779,967.2963024,0.003158215,0.000499921,Lift Down
-0.946599121,-0.984130859,-0.874389648,0.001361537,0.331208496,0.220947266,0.526733398,0.012572807,-0.020090332,-0.176635742,0.141479492,0.008620336,1.014058733,0.989475501,1.048630076,0.000168287,967.1493687,967.0995175,967.2088422,0.00080521,0.000798465,Lift Down
-0.969167998,-0.986083984,-0.953613281,6.24E-05,0.302104295,0.272216797,0.352661133,0.000444708,0.005064068,-0.017822266,0.042602539,0.000336248,1.015543215,0.999183165,1.033367187,8.70E-05,967.2162711,967.1841037,967.2934199,0.000970972,-0.000579452,Lift Down
-0.971447754,-1.001464844,-0.958129883,9.25E-05,0.287275391,0.195678711,0.323486328,0.000708204,-0.007648926,-0.065185547,0.018676758,0.000487352,1.013680052,1.00462622,1.026593743,2.45E-05,967.1733066,967.1407473,967.1988692,0.000167652,-1.87E-05,Lift Down
-0.96861084,-1.001464844,-0.951049805,0.000169075,0.29230957,0.15234375,0.35925293,0.003986103,-0.016772461,-0.054321289,0.020874023,0.000442613,1.014068983,0.99657392,1.039640495,0.000150577,967.1849122,967.1460668,967.2287052,0.000528363,0.000565063,Lift Down
-0.97232666,-0.981689453,-0.96081543,3.06E-05,0.286418457,0.254150391,0.321166992,0.000492005,0.00720459,-0.012207031,0.022583008,7.79E-05,1.013936752,1.006651631,1.026722782,3.37E-05,967.1746825,967.1530285,967.2074688,0.000256575,-0.000529903,Lift Down
-0.979299316,-0.989135742,-0.965087891,3.97E-05,0.275456543,0.248413086,0.296508789,0.000160929,0.011762695,-0.008789063,0.028564453,0.000111453,1.017505991,1.009620531,1.030871972,3.27E-05,967.1687334,967.1400877,967.1980753,0.000228604,5.78E-05,Lift Down
-0.938991699,-0.986694336,-0.904418945,0.00078281,0.272805176,0.229858398,0.293334961,0.000318672,-0.016069336,-0.030517578,0.018310547,0.000169935,0.978273256,0.942413306,1.013529001,0.000632766,967.1682014,967.1400877,967.1887843,0.000246325,0.000407679,Lift Down
-0.95814076,-0.984863281,-0.917480469,0.000526949,0.295002852,0.271728516,0.307617188,9.17E-05,-0.020766457,-0.032958984,-0.010375977,3.78E-05,1.002838318,0.961657309,1.026433222,0.000461428,967.2753517,967.1839131,967.3757103,0.003773741,0.002065486,Lift Down
-0.965419922,-0.977294922,-0.949462891,4.05E-05,0.29401001,0.275512695,0.321777344,0.000113369,-0.019451904,-0.034057617,0.000488281,6.69E-05,1.009476224,1.000728119,1.024664529,3.25E-05,967.4801573,967.3757103,967.5851262,0.003823975,0.002120597,Lift Down
-0.968094482,-1.009521484,-0.932373047,0.000408187,0.299335937,0.236328125,0.349243164,0.000844337,-0.0340625,-0.180664063,0.074707031,0.007513702,1.017948454,0.977470449,1.056828057,0.000433023,967.6595025,967.5851262,967.7170215,0.001440449,0.001138029,Lift Down
-0.978336182,-1.004516602,-0.952270508,0.000186002,0.282423096,0.23425293,0.341674805,0.000899803,-0.035588379,-0.17175293,-0.004272461,0.001663671,1.020163285,0.98911737,1.036321927,0.00016149,967.9118672,967.7170215,968.0283423,0.004910525,0.002268496,Lift Down
-0.974732678,-1.000244141,-0.94909668,0.000203802,0.274585454,0.205566406,0.352783203,0.001399925,-0.004782937,-0.040161133,0.026489258,0.000374023,1.013559094,0.982302391,1.039078605,0.000181409,968.1341219,968.0283423,968.2811223,0.006455694,0.002713451,Lift Down
-0.895214844,-1.019042969,-0.683227539,0.008836102,0.472805176,0.296630859,0.583862305,0.008847706,-0.045231934,-0.120117188,0.030151367,0.00209799,1.020963904,0.853957474,1.08448582,0.004259561,968.2878164,968.0829674,968.4693288,0.012378507,0.002433355,Lift Down
-0.958930664,-0.977905273,-0.944824219,7.23E-05,0.332106934,0.288696289,0.362670898,0.000365352,0.036462402,0.006103516,0.082885742,0.000392948,1.015841449,1.00022093,1.037031692,6.16E-05,968.5664338,968.4693288,968.6785421,0.003920706,0.00214427,Lift Down
-0.957558594,-0.984985352,-0.937255859,0.000124738,0.328554687,0.295898438,0.363647461,0.000297672,0.064116211,0.034667969,0.092041016,0.00018315,1.014614487,0.996300567,1.047623964,0.000135838,968.7858978,968.6785421,968.8799385,0.00375749,0.002074114,Lift Down
-0.943146973,-1.062011719,-0.844360352,0.00282846,0.38480957,0.252807617,0.503173828,0.006420016,0.004267578,-0.191772461,0.104370117,0.004929335,1.024810953,0.967975538,1.14462427,0.001435732,968.9953039,968.8799385,969.0833404,0.003425228,0.001334376,Lift Down
-0.982456055,-1.009765625,-0.967041016,0.000121856,0.238234863,0.177490234,0.311157227,0.001354179,-0.059140625,-0.097900391,-0.012817383,0.000485956,1.013563342,0.989668126,1.036749776,0.000106146,969.2135431,969.0824408,969.3385121,0.005595062,0.0025203,Lift Down
-1.008901464,-1.027587891,-0.959716797,0.000457837,0.284593034,0.258178711,0.303955078,0.000163639,-0.003950969,-0.035888672,0.017211914,0.000162008,1.04841919,0.994575653,1.067299619,0.000488737,969.4453316,969.3385121,969.5123454,0.002555332,0.001686303,Lift Down
-0.979321289,-1.021362305,-0.959350586,0.000311613,0.288317871,0.267822266,0.30847168,0.000187045,-0.003338623,-0.016113281,0.016845703,0.000126484,1.021088832,1.003723031,1.056888643,0.000207087,969.5338088,969.5071068,969.5518337,0.000129345,0.000279355,Lift Down
-0.967637939,-0.984741211,-0.951171875,6.55E-05,0.31131958,0.294921875,0.323852539,6.12E-05,0.007828369,-0.001708984,0.021362305,3.24E-05,1.016560662,1.002860723,1.034999195,6.69E-05,969.5306164,969.5154329,969.5421517,5.31E-05,0.000200427,Lift Down
-0.968179932,-0.990844727,-0.954101563,6.48E-05,0.311739502,0.287353516,0.335571289,0.000117053,-0.002272949,-0.051879883,0.020263672,0.000143363,1.017264027,1.005510688,1.040986495,5.55E-05,969.5381706,969.5171643,969.5503037,3.70E-05,3.16E-06,Lift Down
-0.958538818,-0.990844727,-0.909790039,0.00049761,0.30710083,0.187255859,0.385131836,0.00340067,-0.075541992,-0.204345703,0.122924805,0.011652209,1.016758838,0.970197412,1.054375023,0.000414777,969.535437,969.4881498,969.5971432,0.001300141,0.001166395,Lift Down
-0.96564029,-1.115722656,-0.822509766,0.005530294,0.338279031,0.205932617,0.496337891,0.005346471,0.003327957,-0.12487793,0.122924805,0.006204024,1.02811622,0.898951939,1.210002735,0.006859528,969.5878711,969.5221861,969.6209748,0.000956779,0.000243919,Lift Down
-0.959440918,-1.126586914,-0.792114258,0.007850463,0.329033203,0.189575195,0.486083984,0.005783958,0.003896484,-0.10546875,0.125732422,0.00752755,1.020850162,0.882741157,1.203566247,0.007697176,969.5849124,969.5280331,969.6328425,0.000668333,0.000114713,"	Null"
-0.977319336,-1.052490234,-0.899291992,0.001480342,0.272885742,0.171142578,0.360229492,0.002697091,-0.005480957,-0.200073242,0.194946289,0.01313307,1.022583884,0.965925506,1.094338565,0.001120557,969.5885195,969.5368009,969.6385298,0.000570823,-4.65E-05,"	Null"
-0.978256836,-1.021484375,-0.953491211,0.000215971,0.241477051,0.16015625,0.309814453,0.000920548,-0.095424805,-0.147827148,0.065063477,0.001805186,1.013418832,0.982073212,1.065334844,0.000301066,969.5944753,969.531375,969.6110944,0.00030034,0.000126306,"	Null"
-0.977073745,-0.985595703,-0.969360352,1.63E-05,0.243130221,0.230834961,0.259521484,8.07E-05,-0.107908948,-0.126708984,-0.096069336,7.03E-05,1.012709868,1.006211762,1.020370985,1.43E-05,969.564769,969.5473588,969.5865533,0.000179574,-0.00042531,"	Null"
-0.97987793,-0.992553711,-0.973266602,2.24E-05,0.240968018,0.227416992,0.253173828,6.08E-05,-0.095809326,-0.105102539,-0.085693359,1.91E-05,1.0136525,1.007662651,1.023693613,1.58E-05,969.5598261,969.5507981,969.5826138,6.30E-05,0.00019159,"	Null"
-0.978835449,-0.983764648,-0.971313477,6.29E-06,0.246677246,0.233520508,0.28503418,7.46E-05,-0.080258789,-0.139160156,-0.060791016,0.000388787,1.012849306,1.008070728,1.021792495,1.13E-05,969.6006734,969.5817133,969.6165424,0.00014197,0.000363579,"	Null"
-0.971015625,-1.124145508,-0.83215332,0.004930644,0.328519287,0.092163086,0.496582031,0.014539876,0.031031494,-0.139160156,0.24597168,0.015324779,1.040430819,0.959156106,1.197858132,0.003747754,969.5975802,969.5641198,969.678753,0.000769617,0.000118189,"	Null"
-0.949354248,-1.014404297,-0.862304688,0.001378647,0.333659668,0.128295898,0.486572266,0.00872009,0.003387451,-0.141113281,0.273193359,0.01862841,1.019588766,0.947002201,1.126734443,0.001507435,969.6359172,969.582733,969.6634963,0.000406708,0.000342182,"	Null"
-0.961619873,-1.068725586,-0.87097168,0.002935374,0.346816406,0.220703125,0.470214844,0.007400658,0.057069092,-0.118408203,0.231323242,0.012090983,1.033157668,0.924413338,1.13091695,0.003069958,969.5963717,969.526718,969.6545787,0.000949273,-0.000302922,"	Null"
-0.939387774,-1.063964844,-0.802612305,0.006446918,0.379441387,0.231201172,0.5390625,0.007088422,0.07505598,-0.202148438,0.268554688,0.017553875,1.028301475,0.893739183,1.159604208,0.005485222,969.6344973,969.5956456,969.6716191,0.000451193,-0.000126319,Lift Up
-0.931806641,-1.075561523,-0.812011719,0.004045373,0.407316895,0.288085938,0.531738281,0.004501559,0.009401855,-0.182495117,0.167114258,0.011249779,1.024646162,0.939263108,1.149134924,0.00399803,969.5944808,969.5626621,969.6331899,0.000435715,-0.000291672,Lift Up
-0.755283203,-0.938598633,-0.482421875,0.029070845,0.628498535,0.374389648,1.003173828,0.033400391,0.053688965,-0.110229492,0.202636719,0.007284097,1.017851162,0.939780688,1.130153989,0.001396386,969.6169904,969.5717518,969.6789322,0.001133553,0.000441697,Lift Up
-0.64026123,-0.893432617,-0.493896484,0.010939533,0.7728125,0.587402344,1.003173828,0.009987582,-0.029267578,-0.138427734,0.218383789,0.010276029,1.017742755,0.89528942,1.14206551,0.003152517,969.6010008,969.5475065,969.6841641,0.001242902,0.000686992,Lift Up
-0.94546116,-0.999267578,-0.875488281,0.00117773,0.358206267,0.233032227,0.587402344,0.009548993,-0.007161055,-0.087524414,0.090332031,0.004095876,1.018024121,0.978634536,1.069489114,0.000568169,969.6129705,969.5664481,969.643919,0.000512226,-0.00010596,Lift Up
-0.975311279,-0.994384766,-0.965698242,3.70E-05,0.283657227,0.241088867,0.321655273,0.000507785,-0.02300293,-0.049438477,0.009277344,0.000429453,1.016437999,1.00650571,1.029520962,4.14E-05,969.6343921,969.5980747,969.6708876,0.000459078,-0.000504054,Lift Up
-0.974378662,-0.986694336,-0.959960938,5.21E-05,0.282823486,0.240844727,0.312255859,0.000358357,-0.027005615,-0.053466797,-0.009399414,0.000185765,1.015225338,1.005404271,1.03172269,4.04E-05,969.6056164,969.5750489,969.6362,0.00024974,-0.00023375,Lift Up
-0.969677734,-0.989990234,-0.955200195,5.86E-05,0.288591309,0.258178711,0.308837891,0.00012599,-0.033114014,-0.048461914,-0.008056641,9.18E-05,1.012363482,0.998928114,1.031198536,5.07E-05,969.5670459,969.5512139,969.60205,0.000171897,-0.000269149,Lift Up
-1.004852295,-1.047729492,-0.962890625,0.00096586,0.26059082,0.220214844,0.28125,0.000262231,-0.020755615,-0.042114258,0.004150391,0.000156306,1.038601041,1.002364091,1.078163374,0.000752461,969.5433909,969.5132464,969.5593898,0.000156936,-0.000329912,Lift Up
-0.996092529,-1.031738281,-0.961303711,0.000658079,0.289641113,0.262695313,0.330932617,0.000279825,0.006766357,-0.013305664,0.028564453,0.000121822,1.037555823,1.002035558,1.07143712,0.000671847,969.4812626,969.364712,969.5463736,0.002952131,-0.001648222,Lift Up
-0.964661865,-0.981445313,-0.955322266,4.58E-05,0.319416504,0.269042969,0.349121094,0.000474137,0.022161865,-0.009277344,0.052001953,0.000244569,1.016763042,1.005230635,1.028301677,4.07E-05,969.2593841,969.1456418,969.364712,0.003968263,-0.002156678,Lift Up
-0.969328293,-1.009155273,-0.932250977,0.000305872,0.302770133,0.249755859,0.369750977,0.000932094,0.042921895,-0.021362305,0.075195313,0.00097426,1.017305277,0.991182877,1.068315432,0.000393206,969.0525934,968.9029866,969.1456418,0.004216202,-0.002230263,Lift Up
-0.968503418,-0.999145508,-0.932250977,0.000435121,0.317270508,0.265258789,0.35949707,0.000859221,0.008181152,-0.021362305,0.046386719,0.000265885,1.019792376,0.982680308,1.043719782,0.000297486,968.8393532,968.7293326,968.9554476,0.003800638,-0.002072336,Lift Up
-0.963156738,-0.986816406,-0.94909668,4.84E-05,0.310488281,0.262573242,0.365356445,0.000927491,0.035517578,0.004760742,0.060668945,0.000296881,1.013187483,0.996306438,1.025742258,4.70E-05,968.6259392,968.5243602,968.7293326,0.003968407,-0.002143131,Lift Up
-0.973588094,-0.99206543,-0.963623047,6.66E-05,0.282396977,0.235717773,0.33203125,0.000954798,0.00073363,-0.037597656,0.052734375,0.000737391,1.014550721,0.997950853,1.026729284,5.11E-05,968.3897372,968.3243833,968.5243602,0.004056771,-0.001920379,Lift Up
-0.969001465,-0.990722656,-0.953979492,0.000128713,0.30994751,0.26965332,0.351806641,0.000567729,0.001334229,-0.016113281,0.018188477,9.18E-05,1.017688635,0.99868307,1.037070423,0.000124519,968.1971917,968.0827536,968.3366479,0.004730581,-0.00233115,Lift Up
-0.962255859,-0.990844727,-0.932250977,0.000165972,0.30953125,0.281860352,0.348754883,0.000370356,-0.000985107,-0.018554688,0.017211914,9.20E-05,1.011067597,0.986356542,1.031103723,0.000112424,967.9641678,967.8651276,968.0827536,0.003576366,-0.001981709,Lift Up
-0.970147705,-0.99987793,-0.932250977,0.000206835,0.30144043,0.256347656,0.360839844,0.001169801,-0.009221191,-0.039672852,0.017089844,0.000160634,1.016547785,0.987022307,1.058119854,0.000293365,967.7507697,967.6272334,967.8749109,0.005465868,-0.00252336,Lift Up
-0.980019531,-0.991943359,-0.968383789,5.30E-05,0.25444458,0.212280273,0.281738281,0.000408502,-0.023630371,-0.045043945,-0.00769043,8.26E-05,1.013037983,0.998089523,1.019717108,3.17E-05,967.5237523,967.4290905,967.6355448,0.003480604,-0.00170163,Lift Up
-0.967946777,-0.99597168,-0.940551758,0.00047365,0.206827393,0.173461914,0.245727539,0.000432103,-0.008726807,-0.030395508,0.014038086,0.000111181,0.990077577,0.962089979,1.024820878,0.000533181,967.3467964,967.2173248,967.4927136,0.00639676,-0.002681057,Lift Up
-0.958364258,-0.976928711,-0.933105469,0.000253425,0.243239746,0.223876953,0.266235352,0.000178148,0.016331787,-0.00378418,0.030029297,8.17E-05,0.988977455,0.962055494,1.012787148,0.00032936,967.1891728,967.158684,967.2295522,0.000382667,-0.00049919,Lift Up
-0.985029297,-1.011962891,-0.975341797,8.14E-05,0.259311523,0.253295898,0.268066406,1.60E-05,0.026600342,0.010620117,0.041015625,6.03E-05,1.018979488,1.009783872,1.043805133,7.04E-05,967.1993551,967.1915399,967.212416,4.29E-05,4.26E-05,Lift Up
-0.96472168,-1.011962891,-0.928344727,0.000394596,0.285732077,0.220581055,0.370727539,0.00223133,-0.037272135,-0.130493164,0.031494141,0.002297769,1.00910239,0.966133476,1.048104639,0.000440417,967.1643227,967.1251666,967.213282,0.000719965,-0.000226333,Lift Up
-0.978394775,-0.988891602,-0.94909668,6.98E-05,0.25505249,0.236938477,0.305541992,0.00027591,0.019448242,-0.006103516,0.063232422,0.000333871,1.011597976,0.999068944,1.025902074,2.90E-05,967.1868804,967.1741474,967.1986671,4.51E-05,0.000165498,Lift Up
-0.974099339,-1.095703125,-0.844848633,0.004519252,0.312043143,0.130737305,0.508056641,0.008940342,0.025344698,-0.077392578,0.093139648,0.003453635,1.029108272,0.912849975,1.190176038,0.00461038,967.1702917,967.1123863,967.2409532,0.000875266,-0.000368802,Lift Up
-0.942209473,-1.092163086,-0.780761719,0.008546676,0.355775146,0.232299805,0.514770508,0.006441862,-0.037335205,-0.138427734,0.091552734,0.005763288,1.014750368,0.901176036,1.168804182,0.006620768,967.1646089,967.0824543,967.2896059,0.003638669,-0.000762324,"	Null"
-0.950629883,-1.059570313,-0.840698242,0.003922741,0.350213623,0.212524414,0.48425293,0.006728872,-0.02694458,-0.176513672,0.146606445,0.012150934,1.023109701,0.933768069,1.123347658,0.002923058,967.1410454,967.0824543,967.2901573,0.002546253,-0.000669367,"	Null"
-0.980887451,-1.033447266,-0.865722656,0.002061859,0.239942627,0.173095703,0.348510742,0.001749267,-0.03595459,-0.21887207,0.166259766,0.014896296,1.018800653,0.929433203,1.066978818,0.001586834,967.1603668,967.0570407,967.214807,0.001741868,0.001000305,"	Null"
-0.994185791,-1.077636719,-0.959838867,0.000736897,0.256425781,0.201171875,0.347045898,0.001947486,-0.071496582,-0.166137695,-0.01184082,0.001018321,1.03080244,0.987745441,1.127388961,0.001155341,967.1766476,967.1164231,967.2108355,0.000935486,-0.000934066,"	Null"
-0.900634766,-1.024658203,-0.751831055,0.005907239,0.455864258,0.3203125,0.592407227,0.007398371,0.024921875,-0.13659668,0.185546875,0.008632515,1.019554519,0.918968963,1.085730965,0.001821848,967.1312593,967.0687885,967.2064045,0.00120827,0.000795568,"	Null"
-0.932612305,-1.133178711,-0.796386719,0.00840978,0.397490234,0.233520508,0.643066406,0.012633465,-0.022207031,-0.169311523,0.149902344,0.011358537,1.025136889,0.864465514,1.190324793,0.00952472,967.1554586,967.1018145,967.2421337,0.000884275,-0.000270418,"	Null"
-0.946313477,-1.0625,-0.801269531,0.005413913,0.371396484,0.25,0.499755859,0.003807139,0.039775391,-0.116088867,0.338745117,0.01812689,1.02786112,0.892287677,1.138422427,0.005659198,967.1495514,967.1028054,967.2055309,0.000757237,6.23E-05,Lift Down
-0.937807617,-1.043457031,-0.893920898,0.00149656,0.411899414,0.357666016,0.521606445,0.00184439,0.014799805,-0.143554688,0.167114258,0.010975706,1.030588994,0.969929024,1.110980933,0.001437478,967.1608719,967.1257885,967.2027954,0.000524064,-5.55E-05,Lift Down
-0.919700928,-0.94543457,-0.881591797,0.000312611,0.426948242,0.345336914,0.531982422,0.002111837,-0.064067383,-0.190307617,0.138183594,0.009687408,1.021672694,0.996335408,1.067035001,0.000419061,967.1294054,967.0872249,967.1760976,0.000669667,0.000327465,Lift Down
-0.933265381,-0.970336914,-0.869506836,0.000890041,0.379207764,0.198364258,0.504272461,0.007331484,0.005975342,-0.159545898,0.150512695,0.014091637,1.017915307,0.971949562,1.065200389,0.000764609,967.1652448,967.1094324,967.2021055,0.000717094,-0.00025243,Lift Down
-0.980621338,-0.99987793,-0.9609375,0.000107855,0.276976318,0.243652344,0.335083008,0.000714417,-0.01355957,-0.159545898,0.040283203,0.00130436,1.019974693,1.000019736,1.046891241,0.000189624,967.1799324,967.1425718,967.2698572,0.001424215,-0.00088861,Lift Down
-0.987719727,-1.001708984,-0.975708008,4.86E-05,0.225737305,0.192749023,0.279663086,0.000764095,-0.047832031,-0.082397461,-0.0078125,0.000492489,1.01491113,1.001631724,1.040381383,8.39E-05,967.1522033,967.1370428,967.1752006,0.000149144,-0.000277723,Lift Down
-0.990830078,-1.006225586,-0.977294922,4.60E-05,0.188994141,0.176879883,0.213500977,9.96E-05,-0.087709961,-0.12890625,-0.048095703,0.000498254,1.012795234,1.002315768,1.024354378,3.97E-05,967.1531106,967.139421,967.163213,2.93E-05,3.27E-06,Lift Down
-0.994775391,-1.003173828,-0.984619141,3.43E-05,0.182543945,0.174682617,0.189208984,1.59E-05,-0.06097168,-0.072509766,-0.052856445,2.41E-05,1.013243771,1.003915082,1.02203498,2.88E-05,967.1455336,967.1356906,967.1592481,3.51E-05,-0.000181572,Lift Down
-0.966489258,-1.006591797,-0.944091797,0.000478302,0.174570312,0.158935547,0.188110352,4.35E-05,-0.053515625,-0.061279297,-0.045410156,2.16E-05,0.983609496,0.961512115,1.023461902,0.00049555,967.1449671,967.1357258,967.1570415,3.26E-05,8.13E-05,Lift Down
-0.978354492,-1.009521484,-0.932006836,0.000615052,0.167333984,0.146728516,0.177246094,5.03E-05,-0.049848633,-0.064086914,-0.036376953,5.45E-05,0.993867732,0.948104408,1.024563738,0.000608801,967.2445619,967.1570415,967.3344073,0.003316514,0.001970849,Lift Down
-0.941298828,-0.990478516,-0.735595703,0.00335736,0.39546875,0.179931641,0.704589844,0.021717666,-0.040664062,-0.154418945,0.014770508,0.001779929,1.034068443,0.995162895,1.13806574,0.001395396,967.4357644,967.3216867,967.5346512,0.002823226,0.000785588,Lift Down
-0.195888672,-0.685913086,0.030517578,0.046545784,0.914624023,0.688720703,1.062744141,0.011822051,-0.117529297,-0.364868164,0.154296875,0.026121777,0.985286296,0.929443864,1.082139557,0.001594186,967.6579103,967.4772891,967.8344982,0.005146693,0.001801416,Lift Down
0.185184326,-0.018188477,0.383178711,0.021543942,0.912121582,0.722412109,1.0703125,0.009021492,0.039370117,-0.385620117,0.761108398,0.117264873,1.006009192,0.913711154,1.075807382,0.002127809,967.8541573,967.6409657,968.0614044,0.011861548,0.003013809,Lift Down
0.152216797,-0.014038086,0.268432617,0.007052479,0.733476562,0.617797852,0.875,0.005729334,0.637539062,0.353271484,0.806762695,0.025378264,1.001519869,0.857233796,1.0535508,0.002374045,968.2045184,967.961459,968.6024474,0.053803119,0.006867633,Lift Down
0.082314453,0.050415039,0.103881836,0.000194259,0.694858398,0.642700195,0.747436523,0.00132936,0.765126953,0.720703125,0.793945313,0.000359333,1.037469466,1.005608729,1.077365227,0.000549844,968.2501451,968.082086,968.4458389,0.0129198,0.003087186,Lift Down
0.181049805,0.096801758,0.284545898,0.00430157,0.715302734,0.586791992,0.854248047,0.005595694,0.717573242,0.641357422,0.791748047,0.001551334,1.033926432,0.959953432,1.097007539,0.001695593,968.4648934,968.2917433,968.6156136,0.008992207,0.002872311,Lift Down
0.064931641,0.016357422,0.108276367,0.00079932,0.722871094,0.669555664,0.821655273,0.002153541,0.702641602,0.631591797,0.768798828,0.002052492,1.012380764,0.957784333,1.047372202,0.000509539,968.3969017,968.2285456,968.6156136,0.008518962,9.17E-05,Lift Down
0.054614258,0.040039063,0.08190918,0.000173321,0.839287109,0.804077148,0.867919922,0.000436098,0.579921875,0.537109375,0.615966797,0.000506311,1.022085988,0.999748005,1.044248981,0.000141168,968.5225495,968.3986403,968.6212657,0.005247507,0.000839954,Lift Down
0.050620117,-0.085449219,0.187988281,0.002275098,0.83515625,0.787597656,0.923950195,0.001179773,0.584350586,0.460693359,0.642578125,0.002366232,1.023210213,0.995526777,1.067144585,0.000320927,968.4946849,968.3494995,968.6371241,0.008665804,0.002590955,Lift Down
-0.025371094,-0.209228516,0.174194336,0.008585856,1.000673828,0.758911133,1.133300781,0.0066707,-0.011259766,-0.236450195,0.376220703,0.021315117,1.016941634,0.864772682,1.137888683,0.004196217,968.4461729,968.3481243,968.5089734,0.002863567,0.001668752,Lift Down
-0.065107422,-0.297363281,0.080444336,0.008036613,0.981445312,0.799682617,1.120361328,0.007986181,-0.184829102,-0.472900391,0.120361328,0.034919068,1.021838389,0.844822855,1.187432814,0.007994368,968.487917,968.3922359,968.6211165,0.004158986,-0.001277648,"	Null"
-0.002490234,-0.143920898,0.10546875,0.005639667,0.878125,0.747924805,0.986206055,0.00463623,-0.515102539,-0.734985352,-0.367675781,0.012385327,1.028488083,0.973609932,1.103311415,0.001098201,968.4898507,968.406997,968.5710682,0.002718517,-0.00125869,"	Null"
0.136289062,0.090209961,0.171875,0.000888313,0.923657227,0.890625,0.95324707,0.000315955,-0.42605957,-0.513916016,-0.37512207,0.00151761,1.027534575,1.010625049,1.053742862,0.00011262,968.4805771,968.4592031,968.4903686,9.53E-05,0.000284003,"	Null"
0.114501953,-0.067504883,0.154785156,0.003650533,0.932714844,0.846679688,0.971191406,0.000514542,-0.412011719,-0.537841797,-0.376098633,0.001298543,1.028567551,0.981046127,1.074887023,0.000281927,968.4972081,968.4858214,968.5579169,0.000251984,0.00024525,"	Null"
0.05980957,-0.174804688,0.264404297,0.020328235,0.976738281,0.811767578,1.183959961,0.007812658,-0.106113281,-0.556396484,0.284423828,0.058541866,1.024985685,0.900139184,1.218045428,0.004116322,968.5224791,968.43845,968.5882015,0.001464013,0.000737393,"	Null"
-1.011464844,-1.760375977,-0.072875977,0.133907489,0.400200195,0.080932617,1.095092773,0.054134638,-0.049169922,-0.421508789,0.374023438,0.058997247,1.167916419,0.827080031,1.863850688,0.066847702,968.4705478,968.3288418,968.5698816,0.003622031,0.000614421,"	Null"
-1.161928711,-1.48828125,-0.780883789,0.043292774,0.251831055,-0.094604492,0.546020508,0.034656808,-0.210424805,-0.576782227,0.142333984,0.050104475,1.2366832,0.813702445,1.570983388,0.0557212,968.5207146,968.4224865,968.73018,0.007947167,-0.000528344,"	Null"
-1.239726562,-1.599853516,-0.884765625,0.034672297,0.268959961,-0.080322266,0.616455078,0.037846172,-0.193935547,-0.417480469,0.125244141,0.037112262,1.311611326,0.885878413,1.639339906,0.035436929,968.5362601,968.4540496,968.7349042,0.005713852,-0.000523279,"	Null"
-1.154755859,-1.458740234,-0.869628906,0.024976746,0.206401367,-0.026733398,0.430908203,0.016676269,-0.218261719,-0.493408203,0.051635742,0.030529841,1.214744237,1.024504782,1.522147851,0.019755823,968.5003206,968.4239505,968.5983817,0.002457815,-0.000825361,Stairs Up
-1.1484375,-1.454956055,-0.959594727,0.022665675,0.170649414,-0.086547852,0.383789063,0.025138835,-0.196967773,-0.465454102,0.119995117,0.030507187,1.199961624,1.028954711,1.505917584,0.024693837,968.4751517,968.3723923,968.5740945,0.002284529,-0.000250266,Stairs Up
-1.124702148,-1.392456055,-0.875610352,0.017363829,0.216152344,0.104614258,0.417358398,0.006828489,-0.172792969,-0.428710938,0.037475586,0.019386284,1.167976568,0.966340152,1.499087578,0.020714871,968.3711468,968.3217663,968.4608717,0.002004823,-0.000527902,Stairs Up
-1.136953125,-1.388305664,-0.932373047,0.016488102,0.235981445,0.035522461,0.435913086,0.011664272,-0.179418945,-0.425170898,0.080200195,0.021670146,1.186622899,0.997689185,1.501052438,0.022011313,968.296095,968.2442908,968.3951493,0.00181095,-0.001111453,Stairs Up
-1.083999023,-1.339477539,-0.862426758,0.017089397,0.208261719,0.087524414,0.272460938,0.002704076,-0.192084961,-0.353149414,0.018554688,0.014343902,1.127973046,0.906729818,1.400849303,0.016965927,968.2481888,968.1874459,968.3397054,0.001540736,-0.000598144,Stairs Up
-1.023183594,-1.304443359,-0.833251953,0.015210365,0.130014648,-0.072753906,0.287597656,0.010201705,-0.214370117,-0.378662109,0.059326172,0.016170043,1.066712092,0.900956528,1.345116109,0.013186491,968.1991668,968.1468052,968.2846952,0.001104012,-0.000330268,Stairs Up
-1.168881836,-1.400390625,-0.965209961,0.011455325,0.203076172,-0.082763672,0.397827148,0.017061911,-0.157480469,-0.370483398,0.124023438,0.019051989,1.211195701,1.040399487,1.457489013,0.012548772,968.1553648,968.1143557,968.2366966,0.001204511,-0.000492369,Stairs Up
-1.053022461,-1.354492188,-0.856933594,0.021247442,0.221376953,0.063842773,0.417114258,0.00787654,-0.216850586,-0.440795898,-0.021240234,0.009869808,1.104286979,0.89143258,1.468563235,0.024285208,968.1196648,968.0268801,968.2339205,0.002075271,-0.000228026,Stairs Up
-1.13828125,-1.46081543,-0.958251953,0.020895528,0.205732422,-0.074462891,0.536254883,0.035137385,-0.241767578,-0.498413086,0.120361328,0.03571896,1.206670557,0.978333028,1.561981983,0.031557692,968.0968564,967.9838236,968.2350938,0.006178164,0.000522753,Stairs Up
-1.149306641,-1.440673828,-0.92590332,0.018808557,0.209760742,-0.058349609,0.536743164,0.033600294,-0.217578125,-0.591918945,0.122436523,0.04148848,1.214840657,0.934642936,1.595188408,0.029662726,968.0411557,967.9455199,968.2210519,0.007000035,0.000452488,Stairs Up
-1.173818359,-1.442626953,-0.938110352,0.02024967,0.193183594,-0.111694336,0.5,0.039382915,-0.229267578,-0.641357422,0.089233398,0.051341903,1.243149595,0.949173812,1.545756022,0.032501912,968.0502949,968.0006794,968.1344312,0.001619976,0.000428328,Stairs Up
-1.148393555,-1.392456055,-0.989013672,0.012724939,0.191044922,-0.081420898,0.463012695,0.021205197,-0.154428711,-0.509277344,0.111938477,0.042643128,1.199429146,1.001743153,1.521852515,0.016496364,968.0699694,967.9853286,968.2147604,0.003057143,-0.00067763,Stairs Up
-1.069824219,-1.309448242,-0.785766602,0.022511974,0.181928711,-0.044433594,0.37878418,0.01251636,-0.19175293,-0.359375,0.039428711,0.015173853,1.113601858,0.843457321,1.375263156,0.024224412,968.0380101,967.9826896,968.1025207,0.001570392,-0.000783153,Stairs Up
-1.032788086,-1.311401367,-0.719360352,0.024949653,0.136611328,-0.065673828,0.286621094,0.009924217,-0.084775391,-0.341308594,0.089111328,0.018638494,1.058489778,0.726567289,1.320985081,0.02533069,967.9761319,967.9434406,968.0822973,0.000790582,-1.43E-06,Stairs Up
-1.128364258,-1.285644531,-0.866577148,0.014219742,0.120922852,-0.057617188,0.250244141,0.010857121,-0.13112793,-0.288574219,0.102905273,0.01449189,1.153167125,0.903751563,1.338511547,0.014546885,967.8921602,967.8474974,968.0822973,0.002386337,-0.000987748,Stairs Up
-1.115522461,-1.330078125,-0.916503906,0.013534808,0.196157227,0.083129883,0.369628906,0.005462012,-0.137978516,-0.376953125,0.075195313,0.017181495,1.149333209,0.954151617,1.417208533,0.016925046,967.8083379,967.7520565,967.9106676,0.002146206,-0.000992051,Stairs Up
-1.101293945,-1.327880859,-0.888305664,0.014462077,0.201899414,0.108276367,0.350219727,0.003743475,-0.159423828,-0.340576172,0.024536133,0.010420543,1.136219883,0.932477995,1.375918331,0.016537269,967.7459627,967.6754935,967.8890899,0.00184774,-0.000814259,Stairs Up
-1.058300781,-1.270141602,-0.739257813,0.017518035,0.075195312,-0.277587891,0.28137207,0.022669926,-0.191538086,-0.535766602,0.174560547,0.036115389,1.104252658,0.779674095,1.361432212,0.01869505,967.6943776,967.6191695,967.7823678,0.002171522,0.000499184,Stairs Up
-1.117182617,-1.35144043,-0.917480469,0.017352997,0.098339844,-0.169189453,0.289916992,0.017651659,-0.136694336,-0.350097656,0.002441406,0.00977061,1.141505779,0.940190238,1.421556904,0.01792438,967.6274256,967.5670402,967.7068337,0.001485491,-0.000122547,Stairs Up
-1.050888672,-1.387451172,-0.76171875,0.020139678,0.171323242,-0.014038086,0.435058594,0.014513604,-0.198305664,-0.437011719,-0.032226563,0.012526397,1.092264772,0.77058505,1.445771763,0.026979131,967.6227413,967.5649583,967.7238065,0.001571044,0.00054851,Stairs Up
-1.143193359,-1.430664063,-0.923828125,0.021127324,0.11546875,-0.190917969,0.395019531,0.02840993,-0.17675293,-0.552368164,0.151367188,0.043409417,1.19153328,0.929961365,1.47585067,0.023971046,967.5987194,967.489211,967.8672928,0.009751213,0.000212224,Stairs Up
-1.148657227,-1.414916992,-0.894165039,0.023611984,0.233579102,-0.173217773,0.576904297,0.047318042,-0.217373047,-0.497192383,0.052124023,0.026560738,1.218404301,0.907144943,1.529112925,0.033566141,967.591597,967.4972008,967.8131812,0.006703906,-0.00062401,Stairs Up
-1.180629883,-1.403930664,-0.954467773,0.018428771,0.254238281,-0.106689453,0.578491211,0.038582247,-0.225952148,-0.509887695,0.077758789,0.035713242,1.254927311,0.962212693,1.555696031,0.026800866,967.5966813,967.494526,967.7939378,0.006809131,-0.000599606,Stairs Up
-1.131741943,-1.420532227,-0.902099609,0.02432044,0.220385742,-0.068603516,0.460571289,0.033428774,-0.224626465,-0.514648438,0.100708008,0.026261224,1.198280519,0.915009912,1.527467523,0.027435234,967.6059799,967.5018705,967.7491501,0.005856461,4.26E-05,Stairs Up
-1.109990234,-1.27734375,-0.931274414,0.011998605,0.142524414,-0.096069336,0.346313477,0.018447204,-0.1159375,-0.359130859,0.115478516,0.023174331,1.14364982,0.989677536,1.33177615,0.011092991,967.5716457,967.5177324,967.6692368,0.001612738,-4.37E-05,Stairs Up
-1.223461914,-1.427978516,-0.928588867,0.013710288,0.119472656,-0.212036133,0.282714844,0.024119998,-0.13605957,-0.456787109,0.150512695,0.042440032,1.263708302,0.949996857,1.446224961,0.012276686,967.5123013,967.4548571,967.6371575,0.002003441,-0.000827362,Stairs Up
-1.168071289,-1.405883789,-0.982421875,0.013785331,0.189663086,-0.134765625,0.45703125,0.020646747,-0.152807617,-0.342529297,0.022583008,0.010121206,1.205104165,1.042955506,1.473265049,0.015701507,967.4669662,967.3953961,967.5739317,0.002188693,-0.000761185,Stairs Up
-1.110786133,-1.299438477,-0.962158203,0.006943932,0.15890625,-0.00793457,0.364013672,0.009429662,-0.092641602,-0.345947266,0.096191406,0.015621827,1.136502397,0.968077488,1.364826616,0.007795217,967.3958386,967.3327941,967.5543752,0.002912525,-0.000257904,Stairs Up
-1.154697266,-1.32409668,-0.982055664,0.008699146,0.188994141,-0.018920898,0.323608398,0.00769226,-0.082143555,-0.290161133,0.053222656,0.011667917,1.180765332,1.009227661,1.370843685,0.009458673,967.3170185,967.253998,967.4338647,0.002219357,-0.000659922,Stairs Up
-1.082685547,-1.276733398,-0.825317383,0.012696647,0.161191406,-0.07421875,0.279785156,0.01102049,-0.176708984,-0.409545898,0.053466797,0.017262413,1.121743577,0.911971823,1.31848088,0.011795788,967.2555015,967.1867132,967.3338529,0.001845826,-0.00097115,Stairs Up
-1.141137695,-1.428344727,-0.93347168,0.023692371,0.119174805,-0.192504883,0.368286133,0.024090009,-0.202636719,-0.378051758,0.098388672,0.018123265,1.183038754,0.999499777,1.469799413,0.023358998,967.214327,967.1342117,967.284467,0.002106093,-0.000339433,Stairs Up
-1.047789911,-1.29675293,-0.823242188,0.023199031,0.143341373,-0.124145508,0.286132813,0.012206104,-0.133052942,-0.38671875,0.110229492,0.016549228,1.07766714,0.833151739,1.332835606,0.026443747,967.1430349,967.0841548,967.2844078,0.003640532,-0.000345334,Stairs Up
-1.121950684,-1.414672852,-0.837890625,0.021691535,0.181247559,-0.053588867,0.373168945,0.015898168,-0.215699463,-0.430541992,0.137207031,0.023421163,1.171742748,0.846075808,1.459729567,0.024739058,967.1465063,967.0707939,967.2392519,0.002533417,0.000124173,"	Null"
-1.100716468,-1.342529297,-0.82043457,0.025316196,0.199754167,-0.040039063,0.458862305,0.018690707,-0.1752833,-0.411499023,0.095336914,0.022504906,1.149411601,0.840594581,1.393484203,0.027178041,967.1322174,967.0669118,967.2918671,0.003791836,0.000855097,"	Null"
-1.043691406,-1.291137695,-0.877319336,0.014924757,0.190693359,-0.122192383,0.347290039,0.016535124,-0.24105957,-0.497192383,0.161010742,0.029335239,1.109340646,0.915727566,1.320091731,0.01345043,967.1308788,967.0512032,967.2865543,0.004880063,0.00022602,"	Null"
-1.009277344,-1.166748047,-0.940795898,0.004623018,0.235957031,0.043701172,0.374511719,0.007769367,-0.179243164,-0.614257813,0.086547852,0.029064199,1.068291878,0.981149969,1.230700208,0.006302091,967.1381383,967.0639261,967.2488288,0.002193522,0.000817523,"	Null"
-0.971821289,-0.995239258,-0.951782227,0.000106626,0.201474609,0.12890625,0.241333008,0.000894429,-0.235073242,-0.278564453,-0.18737793,0.000536064,1.02061544,0.992592939,1.041923835,0.000155491,967.1590686,967.1465856,967.1739417,4.23E-05,6.25E-05,"	Null"
-1.005864258,-1.131713867,-0.888793945,0.005964901,0.190517578,0.089111328,0.342407227,0.004842247,-0.197021484,-0.280273438,-0.085693359,0.003048804,1.045874174,0.92600814,1.167422866,0.006810024,967.1695768,967.1457944,967.2123209,0.000248606,-5.24E-05,"	Null"
-0.496929747,-1.155883789,0.344238281,0.274307219,0.240775677,0.065429688,0.403442383,0.009453798,-0.69074781,-1.323120117,-0.125732422,0.125797471,1.066908677,0.639017099,1.411363091,0.049161523,967.2923284,967.1441062,967.5240068,0.014745903,0.002004817,"	Null"
-0.636743164,-1.571655273,0.334838867,0.41957041,0.342783203,0.029541016,0.961303711,0.055509189,-0.584057617,-1.720458984,-0.108642578,0.154500826,1.144591038,0.550747593,2.4894059,0.179051978,967.0570968,966.7408405,967.4415663,0.039220362,-0.001542385,"	Null"
-0.974477539,-1.022338867,-0.903564453,0.000673731,0.250859375,0.10925293,0.313842773,0.002267519,-0.195698242,-0.408081055,-0.122680664,0.00382066,1.027950788,0.964352919,1.10618403,0.000854718,967.1681653,967.1013573,967.2796177,0.00199594,0.000374302,"	Null"
-0.981083984,-1.012817383,-0.955200195,0.00032432,0.238085937,0.135986328,0.362548828,0.002690802,-0.156645508,-0.269287109,-0.018676758,0.004969848,1.025114424,0.981599141,1.096200548,0.00080207,967.1693815,967.1456596,967.1970971,0.000195933,-7.77E-05,"	Null"
-0.98875,-1.050048828,-0.928588867,0.00097662,0.201298828,0.068359375,0.331542969,0.004247258,-0.19753418,-0.337524414,-0.145141602,0.002326326,1.031122278,0.960308567,1.101704751,0.001443517,967.1735862,967.162142,967.2030948,8.66E-05,0.00017364,"	Null"
-0.972383103,-1.129760742,-0.737548828,0.007927318,0.160835493,0.029052734,0.44128418,0.011318728,-0.258618648,-0.567749023,-0.073730469,0.015041525,1.032158109,0.812094294,1.174212299,0.006947071,967.1749998,967.0825315,967.2832598,0.002352521,-0.000474631,"	Null"
-1.089448242,-1.477050781,-0.813110352,0.025688432,0.155380859,-0.11730957,0.366821289,0.020950695,-0.167333984,-0.379638672,0.146850586,0.022682445,1.132354993,0.817081455,1.488776503,0.02569886,967.1703423,967.0969397,967.24504,0.001779027,0.000203573,"	Null"
-1.080203857,-1.306152344,-0.909179688,0.014678418,0.257546387,0.08215332,0.460449219,0.012330483,-0.180186768,-0.37890625,0.038330078,0.016710661,1.138514087,0.933785782,1.394294323,0.019160707,967.1656346,967.1083313,967.2432208,0.001872423,-0.000428199,"	Null"
-1.047556152,-1.222412109,-0.931274414,0.007399406,0.230926514,0.041870117,0.414672852,0.013917783,-0.233850098,-0.400390625,0.028930664,0.012674931,1.108479697,0.953256832,1.310252405,0.010415934,967.1752483,967.109338,967.2850341,0.002197806,-3.61E-05,"	Null"
-1.04010498,-1.242675781,-0.818725586,0.012622458,0.144677734,-0.030761719,0.28137207,0.006931619,-0.144066162,-0.36315918,0.078491211,0.012877997,1.068583155,0.849742616,1.288358878,0.013881687,967.1635229,967.1131849,967.3075981,0.002091399,0.000307348,"	Null"
-0.541398926,-1.297729492,0.308959961,0.335172276,0.539702148,0.140258789,0.989135742,0.084911115,0.086751709,-0.366088867,0.687011719,0.128560022,1.056802389,0.829992348,1.356891693,0.018427025,967.1793835,967.1153567,967.417387,0.005666692,-0.000165867,"	Null"
-0.741445312,-1.245361328,0.326049805,0.329647169,0.395019531,0.040405273,0.700805664,0.037766155,0.179665527,-0.289306641,0.793823242,0.097753598,1.072076337,0.477157565,1.388015807,0.049726126,967.1536776,966.9020695,967.5720056,0.026813915,-0.002494099,Lift Down
-0.975227051,-1.104858398,-0.851318359,0.003430692,0.254873047,-0.139892578,0.429443359,0.018609688,-0.221424561,-0.477416992,-0.096801758,0.009204242,1.044933104,0.937805809,1.211696744,0.004145344,967.173355,967.1501202,967.2015365,0.00024052,9.64E-05,Lift Down
-0.949908016,-1.056152344,-0.837768555,0.003242319,0.320118914,0.099365234,0.526000977,0.014946809,-0.158242582,-0.277832031,-0.0625,0.002093162,1.023858652,0.970641574,1.121747674,0.001649614,967.1753709,966.9402346,967.7565555,0.053267237,-0.00365176,Lift Down
-0.978081732,-1.05871582,-0.921508789,0.001148184,0.198481494,0.056274414,0.290893555,0.004459355,-0.180293017,-0.296020508,-0.060668945,0.004271752,1.01836561,0.950701674,1.101876248,0.001269883,967.1697787,967.1322609,967.2501965,0.001090059,-0.00038718,Lift Down
-0.956977539,-1.006103516,-0.8671875,0.001396662,0.272520752,0.0625,0.444213867,0.010712116,-0.151550293,-0.330200195,-0.037109375,0.007725055,1.015538194,0.909769541,1.05996445,0.001372457,967.3019222,966.8376468,968.0923995,0.109024575,0.00148616,Lift Down
-0.961317139,-0.986206055,-0.9140625,0.000332558,0.281485596,0.180175781,0.477905273,0.005015549,-0.160076904,-0.234008789,-0.043945313,0.001908445,1.017853332,0.991565569,1.052692002,0.000149473,967.0861545,966.6042016,967.9717406,0.096850368,0.000286631,Lift Down
-0.970605469,-0.979492188,-0.960327148,3.03E-05,0.249737549,0.230102539,0.272460938,7.99E-05,-0.174084473,-0.193847656,-0.16015625,8.51E-05,1.017303426,1.005847027,1.028229915,3.67E-05,967.1760467,967.1680879,967.1808422,1.31E-05,7.57E-05,Lift Down
-0.972073975,-0.978393555,-0.963012695,1.36E-05,0.249929199,0.238647461,0.26159668,3.80E-05,-0.164007568,-0.174560547,-0.142089844,7.96E-05,1.017057323,1.00799604,1.023993094,1.53E-05,967.1815226,967.1770083,967.1897681,1.42E-05,0.000105681,Lift Down
-0.9665625,-1.026733398,-0.934326172,0.00027609,0.270528564,0.24597168,0.332519531,0.000466149,-0.13576416,-0.174926758,-0.071166992,0.001099342,1.013605177,0.984550914,1.077008,0.000291301,967.175195,967.1675369,967.1900909,3.76E-05,7.75E-05,Lift Down
-0.983221436,-1.059204102,-0.923828125,0.001443214,0.190006104,-0.037719727,0.297851563,0.009961959,-0.170288086,-0.260986328,-0.072875977,0.002987794,1.022017046,0.955202013,1.091535602,0.001570646,967.1908402,967.1724828,967.2421052,0.000247443,-6.56E-05,Lift Down
-0.977620443,-1.005371094,-0.915527344,0.000521641,0.174512459,0.135620117,0.313598633,0.001648617,-0.157871439,-0.291259766,-0.091552734,0.002746269,1.007890865,0.983683366,1.03749866,0.000144044,967.1878717,967.1478244,967.2764758,0.001695946,-0.001002215,Lift Down
-0.949472656,-0.978393555,-0.879516602,0.000932065,0.327915039,0.240478516,0.465942383,0.006333391,-0.138442383,-0.261962891,-0.026000977,0.002330744,1.018624844,0.993152262,1.038285826,9.75E-05,967.1882886,967.0319052,967.5719666,0.014037784,-0.001537857,Lift Down
-0.96919598,-0.987182617,-0.959960938,4.42E-05,0.250601891,0.239746094,0.276611328,5.06E-05,-0.161184783,-0.17565918,-0.145629883,4.88E-05,1.014013945,1.003176004,1.029545886,4.10E-05,967.1880766,967.1798136,967.1932685,1.42E-05,7.80E-05,Lift Down
-0.974776611,-0.987670898,-0.96484375,3.98E-05,0.261289062,0.23828125,0.305053711,0.000333319,-0.149121094,-0.17578125,-0.118652344,0.000202469,1.020395347,1.004018109,1.038526612,6.24E-05,967.1892474,967.1756058,967.2065742,6.70E-05,-8.88E-05,Lift Down
-0.971560059,-0.98034668,-0.962280273,3.22E-05,0.256051025,0.240356445,0.277954102,0.000120452,-0.148901367,-0.170166016,-0.132446289,0.00010985,1.015805925,1.002734878,1.029046081,6.15E-05,967.2021589,967.1882993,967.2649103,0.000528374,0.00016488,Lift Down
-0.97322998,-1.000854492,-0.956176758,0.000141398,0.259310303,0.221435547,0.290161133,0.000456883,-0.142285156,-0.182861328,-0.08605957,0.000738301,1.017733845,0.991546206,1.047065902,0.000206598,967.1856932,967.1729918,967.1990883,4.87E-05,0.000124546,Lift Down
-0.969542236,-0.974365234,-0.961669922,1.27E-05,0.255026855,0.240356445,0.272216797,0.000101799,-0.168406982,-0.179931641,-0.151489258,7.73E-05,1.01665424,1.008747074,1.024496281,1.59E-05,967.1909239,967.1790671,967.1970141,2.01E-05,4.10E-05,Lift Down
-0.97097168,-0.985717773,-0.965820313,1.16E-05,0.24309082,0.232299805,0.251464844,2.69E-05,-0.172139893,-0.186767578,-0.156982422,5.78E-05,1.01567215,1.008816131,1.027694947,1.68E-05,967.1916753,967.1799345,967.1963192,1.61E-05,-2.92E-05,Lift Down
-0.936936035,-0.985717773,-0.900512695,0.000755134,0.247230225,0.215209961,0.271728516,0.000250988,-0.169335937,-0.211669922,-0.12487793,0.00037287,0.984023338,0.947412263,1.030535205,0.000717021,967.1866112,967.1803355,967.1989881,3.02E-05,3.77E-05,Lift Down
-0.948806152,-0.972045898,-0.900512695,0.000619293,0.255239258,0.24597168,0.264160156,2.92E-05,-0.167084961,-0.180541992,-0.14050293,0.00010318,0.996727242,0.952669105,1.020869477,0.000582369,967.2781559,967.1989881,967.379435,0.002960526,0.001864669,Lift Down
-0.994763184,-1.021850586,-0.957885742,0.000563496,0.264688721,0.256225586,0.276611328,3.16E-05,-0.164083252,-0.186767578,-0.135620117,0.000154188,1.042468493,1.006530382,1.070647229,0.000543862,967.4860957,967.379435,967.5859065,0.003809294,0.002117568,Lift Down
-0.986125488,-1.018188477,-0.965820313,0.000345791,0.257507324,0.244628906,0.271850586,5.09E-05,-0.155692139,-0.168945313,-0.137573242,5.87E-05,1.031071057,1.010832328,1.064100694,0.00034027,967.6170431,967.5859065,967.6263256,0.000124592,0.000329148,Lift Down
-0.974046631,-0.9921875,-0.952636719,9.00E-05,0.254832764,0.227050781,0.331054688,0.000846362,-0.162785645,-0.19921875,-0.13684082,0.000212284,1.020315712,0.993987853,1.062323282,0.00030178,967.6351274,967.6250715,967.6459452,2.63E-05,0.000146437,Lift Down
-0.972054443,-0.988525391,-0.962768555,4.27E-05,0.243145752,0.184814453,0.28515625,0.000791998,-0.154536133,-0.19128418,-0.100219727,0.000742804,1.014524907,0.991225813,1.035979609,0.000193969,967.6399836,967.6358499,967.6458087,6.60E-06,-1.86E-05,Lift Down
-0.979379883,-1.017089844,-0.939819336,0.000320698,0.17762085,0.024780273,0.267333984,0.006405355,-0.158973389,-0.235717773,-0.1015625,0.00137194,1.011741478,0.963786693,1.039791597,0.000406923,967.6396743,967.6232281,967.6457899,2.93E-05,-6.97E-05,Lift Down
-1.031047363,-1.275390625,-0.917236328,0.006425597,0.071921387,-0.118408203,0.251831055,0.006621302,0.023044434,-0.209106445,0.233154297,0.015812036,1.044368658,0.929217653,1.299057755,0.006693787,967.64158,967.6244921,967.6708371,0.000163386,0.000223198,Lift Down
-1.070300293,-1.287353516,-0.886352539,0.012652976,0.225264893,0.004882813,0.432495117,0.015134328,-0.158078613,-0.431640625,0.134765625,0.030203746,1.123928496,0.893076109,1.373576446,0.015627991,967.6335734,967.5697001,967.711265,0.002070654,0.000257762,Lift Down
-1.020887451,-1.220336914,-0.907470703,0.007739596,0.242037354,0.158935547,0.414306641,0.003835648,-0.163409424,-0.362915039,0.040771484,0.018232652,1.071595686,0.932176272,1.285464369,0.008776172,967.6315128,967.5938391,967.6890657,0.000662895,-4.23E-05,"	Null"
-0.98786499,-1.130004883,-0.922119141,0.002554877,0.186916504,-0.049316406,0.404296875,0.011610413,-0.202434082,-0.336791992,0.012451172,0.007520837,1.034606363,0.965249922,1.178516906,0.002882339,967.6461059,967.6100401,967.6961432,0.000347489,-2.21E-05,"	Null"
-0.990415039,-1.118164063,-0.906982422,0.003026634,0.213216553,0.139160156,0.301513672,0.002076707,-0.193613281,-0.517578125,-0.019897461,0.015609579,1.039045176,0.930819279,1.230173469,0.004808346,967.6401863,967.6196626,967.6698909,0.000196068,0.000145496,"	Null"
-0.97048584,-0.986083984,-0.933349609,8.54E-05,0.218822021,0.197143555,0.237182617,8.58E-05,-0.216879883,-0.26171875,-0.188354492,0.000210254,1.018356352,0.99316404,1.034043495,9.16E-05,967.6462,967.639223,967.6537373,1.41E-05,1.16E-06,"	Null"
-0.974094238,-1.00793457,-0.924072266,0.000692732,0.228287354,0.143798828,0.318725586,0.002526111,-0.189962158,-0.268188477,-0.116699219,0.00228003,1.020671449,0.97979654,1.069503221,0.000741414,967.6473146,967.6386033,967.6642333,3.24E-05,0.000152051,"	Null"
-0.979421387,-1.05065918,-0.900512695,0.001597585,0.249008789,0.147583008,0.334106445,0.002231294,-0.171864014,-0.357543945,0.033447266,0.014134437,1.032767719,0.950698092,1.120688634,0.002003426,967.6504681,967.6307001,967.7165683,0.00044428,0.000328555,"	Null"
-1.01380249,-1.143676758,-0.850585938,0.00701764,0.252355957,0.100830078,0.428955078,0.010683793,-0.209770508,-0.336425781,-0.058837891,0.007687688,1.07288325,0.881570609,1.198482032,0.009635805,967.6466057,967.6149934,967.6988495,0.000436242,0.000171217,"	Null"
-0.98819458,-1.072631836,-0.913208008,0.002042404,0.226462402,0.024169922,0.407470703,0.007019692,-0.210957031,-0.338012695,-0.044067383,0.006121087,1.041405424,0.956564388,1.154713054,0.002851223,967.6370909,967.6063953,967.6595106,0.000267405,0.000216056,"	Null"
-0.976412354,-1.007446289,-0.924926758,0.000382191,0.227376709,0.169677734,0.318725586,0.00150297,-0.182009277,-0.311279297,-0.115844727,0.001593565,1.020217697,0.959211793,1.072960502,0.000816584,967.6399566,967.6215267,967.6497437,5.76E-05,0.000158181,"	Null"
-0.978172607,-1.11706543,-0.865966797,0.002570918,0.24260498,0.118041992,0.495727539,0.004316493,-0.171126709,-0.255859375,-0.080932617,0.002188637,1.024989144,0.891663139,1.245769034,0.003379515,967.6475478,967.6165751,967.6905706,0.000285831,5.34E-06,"	Null"
-1.050731201,-1.38293457,-0.875732422,0.018736473,0.261151123,0.086425781,0.583496094,0.018536303,-0.171174316,-0.378417969,0.049438477,0.01443301,1.109137829,0.887883342,1.433466617,0.022766279,967.6423603,967.5794815,967.7343443,0.00151754,-3.16E-05,"	Null"
-1.015870361,-1.835083008,-0.585205078,0.114413354,0.360456543,-0.219482422,1.021362305,0.159386284,-0.255020752,-0.917114258,0.389160156,0.154049118,1.24748098,0.959746499,2.105639145,0.095271281,967.7195115,966.7806961,968.8008217,0.36417403,-0.006362329,Lift Down
-0.979024658,-1.281982422,-0.785644531,0.020794205,0.474932861,0.267456055,0.744995117,0.019476282,0.024206543,-0.581542969,0.383544922,0.055631782,1.121317967,0.909416111,1.429735475,0.022450227,967.6120581,967.3765237,967.8343251,0.012508951,0.001769162,Lift Down
0.510554199,-0.988769531,0.929199219,0.281638594,0.146965332,-0.19140625,0.78527832,0.080315708,-0.560269775,-0.728271484,-0.438842773,0.008710063,0.973089181,0.679360826,1.340564284,0.016385645,967.6313271,967.5909351,967.6713143,0.00050792,-9.76E-05,Lift Down
-0.610654297,-1.458007813,0.765869141,0.534813203,0.167443848,-0.403198242,0.452026367,0.071288422,-0.353708496,-0.621704102,-0.065063477,0.038261811,1.04801442,0.452842262,1.613208806,0.066294332,967.6401264,967.5855958,967.7256838,0.00181628,-0.000366147,Lift Down
-0.953421631,-1.064697266,-0.907104492,0.001690644,0.269078369,0.153442383,0.377441406,0.003758729,-0.249752197,-0.363037109,-0.154296875,0.003567159,1.024849143,0.948954863,1.154106951,0.002427007,967.6863464,967.654909,967.7430756,0.000758255,-0.000298996,Lift Down
-0.934428711,-0.970458984,-0.857055664,0.00068271,0.266300049,0.18737793,0.342285156,0.00123965,-0.224468994,-0.321289063,0.053100586,0.007154624,1.000980496,0.878905326,1.050373622,0.001498305,967.6707427,967.6063995,967.7651456,0.002712969,-0.000947632,Lift Down
-0.971384277,-1.041870117,-0.875488281,0.001451341,0.254346924,0.149536133,0.342285156,0.002117827,-0.183303223,-0.240478516,-0.087402344,0.002147285,1.022945559,0.932056302,1.088492338,0.001132844,967.6455231,967.6153598,967.700682,0.000325283,6.87E-05,Lift Down
-0.956043701,-0.970581055,-0.930664063,0.00012592,0.206860352,0.149536133,0.244018555,0.000474708,-0.269135742,-0.292480469,-0.22253418,0.000231018,1.014893381,0.996183391,1.033163968,6.02E-05,967.6506932,967.6337431,967.6672402,0.000119304,0.000246655,Lift Down
-0.933806152,-0.977294922,-0.850341797,0.000835059,0.201982422,0.104858398,0.242797852,0.001197445,-0.245407715,-0.288452148,-0.13684082,0.001416119,0.987693572,0.889614477,1.020858354,0.000900323,967.6626182,967.6266554,967.7340119,0.000954697,0.000665285,Lift Down
-0.942265625,-0.96472168,-0.915405273,0.000173702,0.263410645,0.142700195,0.334716797,0.001961719,-0.145087891,-0.220825195,-0.069580078,0.001814939,0.990948724,0.959568475,1.017126426,0.000233995,967.7154259,967.6324756,967.8066869,0.003488094,0.001273066,Lift Down
-0.974747314,-0.987426758,-0.96105957,5.36E-05,0.248049316,0.2265625,0.286132813,0.000271895,-0.128876953,-0.199829102,-0.082519531,0.001065799,1.014690638,0.999759541,1.0296121,5.08E-05,967.9479061,967.8066869,968.0405328,0.006743169,0.002636251,Lift Down
-0.975444336,-1.000854492,-0.955200195,0.000138243,0.249777832,0.212036133,0.302368164,0.000558134,-0.135701904,-0.204101563,-0.095825195,0.000920299,1.016780824,1.005476173,1.039069233,5.34E-05,968.1430177,967.9979429,968.2662646,0.006162472,0.00236531,Lift Down
-0.96673584,-0.990966797,-0.952636719,6.98E-05,0.256671143,0.202392578,0.282226563,0.000623535,-0.171021729,-0.204101563,-0.141967773,0.0004175,1.015270433,1.001026923,1.023920993,3.27E-05,968.4198449,968.2662646,968.5745923,0.005890225,0.002445645,Lift Down
