avg_accX,min_accX,max_accX,var_accX,avg_accY,min_accY,max_accY,var_accY,avg_accZ,min_accZ,max_accZ,var_accZ,avg_magnitude,min_magnitude,max_magnitude,var_magnitude,avg_pressure,min_pressure,max_pressure,var_pressure,slope_pressure,Label
-0.9768600463834375,-0.98388671875,-0.97045898437,1.1882283977736224e-05,0.2530848185184375,0.23852539062,0.26403808593,6.031691374324344e-05,0.09955342610385416,0.08361816406,0.119140625,7.723567256769281e-05,1.0140743255542708,1.00522130338,1.02318767963,1.970601083544407e-05,969.6191803258668,969.61346204247,969.62671251221,1.2249539978618174e-05,-3.99729429005728e-05,Null
-0.9711193847618,-1.02185058593,-0.9306640625,0.0004983815565820474,0.27731933593400004,0.23840332031,0.34375,0.001548550345596788,0.06386840819959999,-0.00769042968,0.103515625,0.001441886718380481,1.0134735884809998,0.98300614624,1.07621819038,0.00038713433857478574,969.6182246549544,969.61391059994,969.62312289482,7.935388241869327e-06,-6.205470906539022e-05,Null
-0.9804638671835,-1.00476074218,-0.93762207031,0.0002324773566962816,0.2671435546841,0.234375,0.310546875,0.0004257608904679475,0.04140258788750001,-0.02917480468,0.08190917968,0.001005082134811291,1.0177339499075004,0.97351591581,1.04692070419,0.0002561033627372976,969.6199262513188,969.61525262545,969.62348074955,3.7737745429471806e-06,-1.447468796910347e-05,Null
-0.9729028320268998,-1.03051757812,-0.89233398437,0.0008456032625358135,0.28994750976110006,0.13049316406,0.5234375,0.01670581986663953,0.07038208007520001,-0.13305664062,0.20361328125,0.006971273835782716,1.0287857545497001,0.97252261151,1.10514007777,0.0014550074863057373,969.6179229201418,969.61229060815,969.62542085711,1.2402345396038455e-05,2.243937796342698e-05,Null
-0.9796301269494999,-1.01037597656,-0.93188476562,0.00036385765432542423,0.2549536132781,0.13891601562,0.34204101562,0.0026954452136348623,-0.07280273437129998,-0.1552734375,-0.00671386718,0.0015676918656457716,1.0169235885675,0.97832635659,1.05754959158,0.00042819038739410606,969.6176560813509,969.61132382401,969.62167403702,6.406257801152824e-06,-2.7748402488068986e-05,Null
-0.9747436523398,-0.98266601562,-0.96337890625,2.7946601008099184e-05,0.27110351562089996,0.25402832031,0.28735351562,0.00010890047958818113,-0.0400744628893,-0.09155273437,0.01879882812,0.0013674953051062645,1.0132581396085998,1.00233485663,1.02070639106,2.5765670752312743e-05,969.6168329577695,969.61215601624,969.62167403702,8.40472743241962e-06,-3.27160565105128e-05,Null
-0.9232238769492999,-1.94750976562,-0.30053710937,0.10612652288973208,0.5540063476529,-0.20324707031,1.23608398437,0.14768550768609462,-0.19017333984110002,-0.4814453125,0.13293457031,0.02559123240911431,1.1435775955871,0.3198884157,2.30092214985,0.16593007336115298,969.6061674526214,969.57681133513,969.64071036815,0.00023623433985987818,-0.00041149082219145476,Null
-1.5326049804647999,-3.08911132812,-0.43090820312,0.5135528636396102,0.3822717285133001,-0.28125,0.99560546875,0.16745928539462843,0.4453576660120999,0.13293457031,0.75,0.025570947610839816,1.7149200871867,0.72901947147,3.28241878991,0.4564843550363346,969.5544664876085,969.49749406001,969.61322079208,0.0013173303859977269,-0.001104238834660062,Stairs Up
-1.349711914058,-1.81921386718,-0.88537597656,0.06262885642777632,0.2091857910134,-0.07934570312,0.47509765625,0.02381923444734256,0.21338989257590002,-0.11218261718,0.47644042968,0.025026294044936087,1.3998789188273997,0.9577262768,1.85296591756,0.06233822834217644,969.4994419622195,969.47439587999,969.54038364411,0.000258750615132587,-0.00047035058965753186,Stairs Up
-1.3763403320271999,-1.81970214843,-1.06237792968,0.0537063193381941,0.23935058593480008,-0.06286621093,0.62646484375,0.041371984349135735,0.32065917968359997,0.06591796875,0.46887207031,0.01487460693913801,1.4547427669960995,1.10906561043,1.8862643988,0.05092108155939719,969.4326055274164,969.39716410721,969.47439587999,0.0005829092170380503,-0.000821259708103362,Stairs Up
-1.3264013671832,-1.68395996093,-1.13146972656,0.020081738414218717,0.20736816406119993,-0.01696777343,0.59680175781,0.033979655852873276,0.28076660155880007,0.0576171875,0.42700195312,0.011756984248153319,1.3876733694156003,1.17208930281,1.7484233813,0.020903880231107803,969.3504746198646,969.30394432037,969.39750609978,0.0006732030872340923,-0.0008835481041227017,Stairs Up
-1.2438037109327997,-1.64575195312,-0.77478027343,0.031378276757588586,0.22106445312159997,0.02099609375,0.50305175781,0.01790142357948752,0.23109863280920004,-0.04418945312,0.43408203125,0.01809354464195932,1.2982542919044,0.83868692257,1.70376984173,0.030867725183585524,969.2681842940173,969.21835812993,969.30623307459,0.000674730092182478,-0.0008735900665689609,Stairs Up
-1.1229248046844,-1.4951171875,-0.78137207031,0.03409749570526944,0.2432910156216,0.02587890625,0.51818847656,0.018261334486361698,0.19502929687280002,-0.12805175781,0.5185546875,0.033293944078779315,1.1867739456172002,0.82566050221,1.55809873593,0.034899909522997444,969.2178235669743,969.20610205832,969.23041268368,5.499128678659864e-05,-0.00013593597789698618,Stairs Up
-1.0997216796836,-1.51391601562,-0.58251953125,0.07403995523470963,0.19928222655879996,0.09350585937,0.37084960937,0.005684510770464588,0.16264648437239998,-0.05456542968,0.38391113281,0.015050102965359708,1.1409398153656,0.65088033711,1.54922480752,0.06832143278903408,969.1710812320816,969.14510239175,969.20610205832,0.00039558470403670566,-0.0006539030597601127,Stairs Up
-1.1145751953088001,-1.41345214843,-0.8037109375,0.027054064201577677,0.29066894530840004,0.06274414062,0.66918945312,0.027308481726891657,0.0995898437488,-0.12426757812,0.44274902343,0.0269541820843294,1.1767518603776,0.81458763457,1.51140432513,0.03277076623496643,969.1362475999981,969.12663780529,969.14745260001,4.558629450835286e-05,-0.00012029987928305353,Stairs Up
-1.1095898437464,-1.28356933593,-0.96264648437,0.007277660032629773,0.21137695312160004,0.02575683593,0.39147949218,0.014248815449812222,0.12832519531040001,-0.12731933593,0.32702636718,0.01858908754309511,1.1501488512167999,0.99793796728,1.34122337067,0.009302243278215449,969.1403432997431,969.12709910166,969.15008114659,4.805885471030996e-05,-0.00014354932662999034,Stairs Up
-1.0771630859340002,-1.30944824218,-0.9326171875,0.010117608272632259,0.2496533203088,0.06762695312,0.41943359375,0.012928029118207196,0.1193115234352,-0.04028320312,0.26708984375,0.009296490688347888,1.1211064076700004,0.96295760813,1.35539131602,0.012102488023952472,969.1381042791742,969.13334970719,969.14595291737,1.3591744097477955e-05,-6.883692304178167e-06,Stairs Up
-1.1470117187472,-1.50366210937,-0.95593261718,0.02016659303150423,0.25926269530920004,0.05480957031,0.49841308593,0.021879021952635934,0.09329101562320002,-0.16528320312,0.27917480468,0.023280912311485234,1.1956834058888,0.98752044523,1.58593213028,0.02683908749440745,969.1417804640533,969.1357218845,969.18447721266,7.362710409195483e-05,0.0001358663751619195,Stairs Up
-0.9700830078095999,-1.81372070312,-0.37646484375,0.13944903758991425,0.2402880859348,-0.19323730468,1.22009277343,0.09907208678606742,-0.0004199218752,-0.80236816406,0.53466796875,0.1461180557841373,1.1201969504048004,0.49994744084,1.89461735795,0.12601127604100804,969.1251716237696,969.08376782136,969.18447721266,0.0005286944795269457,-0.00044240279988206607,Stairs Up
-1.2280615234344001,-1.70910644531,-0.89697265625,0.052737198116968184,0.23086914062199995,-0.34130859375,0.68298339843,0.06283486433643504,0.17350097656160002,-0.29064941406,0.43518066406,0.04778150563143094,1.3051028286792004,0.92881763057,1.78175986254,0.05046958916636665,969.0683692719518,969.04929979675,969.10670058451,0.0003117039830085159,-0.000553814783830114,Stairs Up
-1.3205419921840003,-1.83972167968,-0.77856445312,0.0661693020540789,0.1537646484364,-0.19067382812,0.58984375,0.05100292855932706,0.22590332031000002,-0.17102050781,0.44396972656,0.026989311882540515,1.3771686852956002,0.84204995229,1.90162075881,0.06528623198859829,969.0264274999988,968.98660908715,969.05765498402,0.0004980571056986392,-0.0007493706808574223,Stairs Up
-1.4361718749964,-2.12072753906,-1.05236816406,0.06673459370921382,0.1566601562496,-0.46130371093,0.74145507812,0.11109001091986957,0.3434130859331999,0.07434082031,0.58654785156,0.012483729593757185,1.5271763986692009,1.20818756789,2.20622939337,0.06182030798577129,968.9425323498156,968.90215280594,968.98660908715,0.0006652362812270661,-0.0008745117738800598,Stairs Up
-1.2914453124968,-1.44995117187,-1.20629882812,0.004800891779827342,0.1513378906236,-0.39111328125,0.51403808593,0.05511620463604557,0.2599707031212001,0.10290527343,0.3671875,0.005467781779872599,1.3485413993184,1.24913322676,1.48937682129,0.004531356086360611,968.8624008147913,968.82616822749,968.9031855483,0.0005087343038420747,-0.0007672624981250487,Stairs Up
-1.1485693359344,-1.45068359375,-0.87609863281,0.02774926137474216,0.21063964843400004,0.05236816406,0.53479003906,0.018279886101486603,0.2543994140596,-0.19763183593,0.60510253906,0.04196238214227244,1.2186241820020003,0.94526411358,1.58291040646,0.030673091085846208,968.7816382329751,968.76123614565,968.81947591354,0.0003547797749708737,-0.0005949052750030593,Stairs Up
-1.1057763671832,-1.97778320312,-0.62951660156,0.10739811637146571,0.24507324218479998,-0.12573242187,0.85815429687,0.07014947332400177,0.3000732421848,-0.00146484375,0.60900878906,0.019850741733273884,1.2092653041783998,0.73306951753,2.01057826184,0.10701817288556262,968.724778595205,968.67864823273,968.76287973267,0.0009428159244355344,-0.0009894473168949147,Stairs Up
-1.2942236328087997,-2.10424804687,-0.95239257812,0.09647433266511514,0.2836621093712,-0.12231445312,0.67846679687,0.051216838672211835,0.17093261718599997,-0.27758789062,0.56872558593,0.07610864653584973,1.3808753213799998,1.01884732746,2.19530380491,0.10044659609188747,968.666420594907,968.64953044288,968.68751781137,8.548996309681772e-05,3.251019235433297e-05,Stairs Up
-1.0738427734344,-1.67663574218,-0.49938964843,0.09647618992131538,0.32502929687119997,0.02880859375,0.67883300781,0.02705546085271798,0.0299560546872,-0.20849609375,0.30932617187,0.01922986362833225,1.1445618700855997,0.59660803431,1.73757027648,0.09191084434189253,968.6737335295128,968.65931749431,968.69177366753,7.099599898706602e-05,-9.685831272265735e-05,Null
-1.0650537109336,-1.4296875,-0.85693359375,0.01763684571406395,0.2945361328096,0.18835449218,0.61352539062,0.014601934654650468,0.07669433593639999,-0.26513671875,0.46752929687,0.04709042144412515,1.1335415579543997,0.91555616002,1.51292740264,0.02080041217553163,968.676653442726,968.66303767232,968.68756664191,5.0082481012829156e-05,0.0002062523065674785,Null
-0.9930859374967999,-1.04956054687,-0.93017578125,0.0009423504935500149,0.21642089843360005,0.07702636718,0.40417480468,0.009751123514968825,0.0007128906248,-0.11694335937,0.14038085937,0.005323652883444251,1.0231955698556,0.94047637379,1.09397562288,0.0020060345398734934,968.6859432711208,968.68036935031,968.69119414472,5.0431744588417235e-06,2.2822780300183557e-05,Null
-1.015415039058,-1.1943359375,-0.80871582031,0.010357405826569199,0.15641113280959998,-0.00646972656,0.31591796875,0.011593131970877383,-0.06107910156119999,-0.25244140625,0.06201171875,0.009186781873305907,1.0387388746811999,0.8125159372,1.21881025727,0.011222522586244923,968.6905610629196,968.68512417909,968.69973563084,1.5574519877292373e-05,5.3011583625820053e-05,Null
-1.0235791015592,-1.28051757812,-0.82141113281,0.00993446229657558,0.1452880859344,-0.04577636718,0.3212890625,0.008746059253752271,-0.012656249998,-0.14721679687,0.1552734375,0.008700710016589197,1.0425312385628,0.85536424878,1.29852989616,0.009312143029603646,968.6951799825038,968.69040320515,968.70056196247,7.869949921282466e-06,6.366709547488207e-05,Null
-1.0477099609336,-1.181640625,-0.83569335937,0.007272550168791595,0.22578124999560006,0.05908203125,0.42846679687,0.011568454780873831,0.13730957030879998,0.02233886718,0.25048828125,0.0038168257897151707,1.0860997994708002,0.84272596241,1.24578304064,0.010450233546119778,968.6973501542794,968.69486186857,968.7028297718,4.912295040020627e-06,4.1186296060335476e-05,Null
-0.8699658203092,-1.25036621093,-0.50061035156,0.03056316337186312,0.4697851562459999,0.13134765625,0.66455078125,0.038594667502006054,0.017280273438,-0.18994140625,0.15881347656,0.008656682485882439,1.0179187987788,0.61022631771,1.2717704744,0.018903956266475015,968.6986022482891,968.64291512836,968.76289457041,0.0009099715211489726,-0.0005518931386997008,Null
-0.7766503906208,-0.86572265625,-0.75305175781,0.0007956277481467369,0.6581445312468,0.63134765625,0.71691894531,0.0005440845874910887,-0.03489257812200001,-0.16259765625,0.154296875,0.007630627178922508,1.0227415630363996,0.99520315111,1.08190097093,0.00044229962410723925,968.693663237826,968.67332685487,968.71640120878,0.0001962741258207597,-0.0001350160101591236,Null
-0.7248925781211998,-1.14501953125,-0.26428222656,0.0732861308373787,0.7184374999968,0.31604003906,1.11462402343,0.04321853931465716,-0.27949707030959997,-1.22277832031,0.18103027343,0.09837342618661811,1.1417282761943996,0.98557998686,1.53209336566,0.029218345702045925,968.6839423530432,968.64365149775,968.76265814732,0.0010984143398885236,-5.086918834753593e-05,Null
-0.7520214843699997,-0.95385742187,-0.65258789062,0.004252518162555733,0.6468994140595999,0.34423828125,0.83825683593,0.01811024034839978,0.0012841796900000002,-0.15454101562,0.26586914062,0.02431706240540722,1.0127430276887999,0.86821021524,1.13541031611,0.004627673294057398,968.6840746990798,968.63554530141,968.72292095501,0.000520378063318037,-0.00023697690650120173,Null
-0.7132714843711999,-0.76184082031,-0.68041992187,0.0007636707479588749,0.7318749999963998,0.67114257812,0.767578125,0.0012842478415308284,0.001318359376,-0.16369628906,0.14538574218,0.016293725581261888,1.0307364414615998,1.01026058794,1.06073629328,0.0001409899828433132,968.6765831658416,968.65422187926,968.68883627645,0.00013410529899875022,8.66281829616776e-05,Null
-0.7346923828091999,-0.84252929687,-0.63891601562,0.004959039013853792,0.6896093749967999,0.51440429687,0.81188964843,0.010259828808259397,-0.0153857421852,-0.10473632812,0.12194824218,0.005596350515200168,1.0174839713452,0.97374475996,1.09679189432,0.000913275465565327,968.6946170856394,968.67419575085,968.72064394388,0.0002062593545152569,0.0003012576437910237,Null
-0.9454101562464001,-1.08312988281,-0.6943359375,0.01340266189208656,0.0126953124996,-0.3310546875,0.59741210937,0.04470413501701516,0.2133593749968,-0.0693359375,0.57861328125,0.03577787669000411,1.0144251036091998,0.90356899653,1.11546088889,0.0034053468924552873,968.6868907844864,968.48816976906,969.04424669764,0.02354365551449391,0.00014852545711667727,Null
-1.0031005859336,-1.080078125,-0.88659667968,0.0036106278198781657,0.240292968746,0.05725097656,0.36291503906,0.006297375361114591,-0.04122558593559999,-0.1416015625,0.16955566406,0.009207602124682709,1.039847367884,0.93081178723,1.12468340843,0.0033262081050569195,968.6866589165164,968.62798280172,968.70453393665,0.00041132371120266637,0.0006127615177503339,Null
-1.0022216796848,-1.03930664062,-0.97412109375,0.00029550176677834,0.13846679687160002,0.06823730468,0.23876953125,0.0024557471517252572,-0.0073681640628,-0.08996582031,0.08471679687,0.0018090128654926695,1.0138321993739998,0.98360534885,1.0479632031,0.0003379490738770611,968.697751495045,968.69322385867,968.70245557059,8.571897235775079e-06,-2.3866098376786614e-05,Null
-1.0059472656208,-1.04223632812,-0.96887207031,0.0002765998936673681,0.14750488280840002,0.04162597656,0.23522949218,0.003705890347224731,0.0131982421876,-0.04565429687,0.07946777343,0.0012053206951746437,1.0191699313623996,0.97754706532,1.04894903043,0.00029330211274499824,968.6994394814614,968.6944587936,968.70297108547,5.9726518287428316e-06,8.987209226207569e-06,Null
-1.0153710937456,-1.08715820312,-0.92517089843,0.001685843226956096,0.21975585937119996,0.10534667968,0.31555175781,0.0038897103493043266,0.11710449218519997,-0.05627441406,0.26586914062,0.010272751817435173,1.0516649251067998,0.96312765643,1.13663454169,0.002702288356190665,968.6983884154678,968.69245943503,968.70484121781,1.485743264874095e-05,1.6028940080728624e-05,Null
-0.9756689453083999,-1.00622558593,-0.94177246093,0.00036925465170952414,0.21343261718280007,0.14379882812,0.2978515625,0.001321928766054112,0.17866699218360002,0.05383300781,0.25842285156,0.002755413007211419,1.0165476321859999,0.96893077363,1.04337829949,0.0004427363349566982,968.6992896624556,968.69274816065,968.70243043852,5.942912052875173e-06,3.84271233605671e-05,Null
-0.969003906246,-1.02465820312,-0.91223144531,0.0011127969471408964,0.211713867184,-0.02404785156,0.35034179687,0.01462829580188525,0.1851904296844,0.05310058593,0.22607421875,0.0014479339966373078,1.0169989913292001,0.95146272665,1.05947912148,0.000825267917361335,968.7059972197604,968.65280128941,968.75738457476,0.0005579609193662719,6.903273791199533e-05,Null
-0.8789453124959999,-1.06005859375,-0.50866699218,0.022893587411119885,0.09472656249919996,-0.25891113281,0.41662597656,0.046693768162850674,0.3953613281219998,-0.01904296875,0.86315917968,0.06915685504308047,1.0352950045464002,0.9355436098,1.15967267808,0.0033834200496864323,968.720188738188,968.52650249475,968.97470512928,0.008583433743165718,0.001234948950238727,Null
-0.6690087890588,-0.69018554687,-0.56762695312,0.000492629523240911,-0.4663378906212,-0.50720214843,-0.23645019531,0.0047584932018500965,0.5748242187455999,0.5302734375,0.78930664062,0.0023251368300616824,1.0013545488104,0.95465996916,1.02224120627,0.0002588232984540275,968.6547117732246,968.52650249475,968.67645830758,0.0008486318129596688,0.000669752133573232,Null
-0.7945068359339998,-1.48254394531,-0.54553222656,0.0462602798386483,0.027807617187200036,-0.47705078125,1.07934570312,0.3102219899443419,0.4875732421843999,0.1923828125,0.65661621093,0.0171857795326726,1.0913268220167998,0.77000383688,1.6038325388,0.04917088766260539,968.6634251195255,968.60912476932,968.68792801567,0.0004995079280845575,-0.00040453562482881654,Null
-1.0973974609339998,-1.60852050781,-0.76257324218,0.032677271534822534,0.3463720703087999,0.15979003906,0.55480957031,0.010674322638891722,0.0474853515616,-0.14428710937,0.20397949218,0.007649192905840189,1.1582163761087998,0.83299426194,1.70396277619,0.03589420433172628,968.6835132889257,968.66077472904,968.71612519185,0.0001705847952495921,0.00011794750137783126,Null
-0.9975781249972,-1.30139160156,-0.70751953125,0.03565977761209573,0.39259277343359983,0.08044433593,0.88806152343,0.055904735603135636,0.11278320312040002,0.00427246093,0.26452636718,0.005175634971798091,1.1122668234883997,0.80247648417,1.37111379603,0.020855062831873432,968.6966092726079,968.68730437074,968.70436876755,2.3308753367699365e-05,9.966802225115526e-05,Null
-0.9080908203092,-1.09631347656,-0.75451660156,0.011922183566632256,0.4069335937468,0.15930175781,0.830078125,0.043637156486548555,-0.0437109374988,-0.3466796875,0.166015625,0.025359408926972037,1.0338717783876001,0.92207971821,1.1511344189,0.0033871121718610764,968.6994774566024,968.69272622919,968.70667639768,1.2975478156601158e-05,1.882833075698497e-05,Null
-0.9985253906211998,-1.06335449218,-0.94775390625,0.000854747367547915,0.23070800780919992,0.15930175781,0.30651855468,0.0018839480660068871,0.10781738280999999,-0.00634765625,0.25744628906,0.0072017754929156585,1.0346319177196,0.97030626162,1.10659917584,0.0012945350203866176,968.7091913908661,968.70661198498,968.7177808168,6.367966789682135e-06,-3.0686199455089195e-05,Null
-0.9881445312463998,-1.06677246093,-0.93566894531,0.0010643213926831469,0.22842285155880007,0.16003417968,0.35656738281,0.0033895852349093442,0.1293847656232,-0.05798339843,0.25512695312,0.006481622107885336,1.0271530810575997,0.97389578065,1.11660477305,0.0011411644869158762,968.709046690485,968.70281353643,968.71305708274,8.3390180275962e-06,-2.237721754808744e-06,Null
-1.006665039058,-1.10656738281,-0.94873046875,0.0017593159820206217,0.2105664062452,0.01684570312,0.35327148437,0.009900606617825426,0.11643066406,-0.06970214843,0.26159667968,0.011281859994608808,1.0447830326916,0.96810268494,1.16634321483,0.002433930509250995,968.7103248222581,968.70561293477,968.71652820205,9.629568699902492e-06,4.957122534413976e-05,Null
-1.0166894531216,-2.03491210937,0.31140136718,0.18619707560152135,0.3855078124963998,-0.28857421875,1.41906738281,0.12387040277886127,0.03157226562359999,-0.79675292968,0.38366699218,0.044788017271631765,1.1705423307832001,0.45012232257,2.4842545762,0.16606880614075764,968.7106375856451,968.69206927379,968.73006156985,8.149153040800847e-05,-5.9594622038382783e-05,Null
-0.7794824218732,-2.10717773437,0.66845703125,0.7072621175937588,0.36633789062199995,-0.07958984375,1.48278808593,0.14399669565252465,-0.05489257812560003,-1.19934082031,0.49645996093,0.2218793061265146,1.2513002770376003,0.31056685953,2.14769737673,0.24390287486072224,968.6660789963657,968.63055810296,968.70185479259,0.00031403295472854953,0.0002989681125819582,Null
-1.0166259765583998,-1.38159179687,-0.86743164062,0.016384756926483442,0.31776855468439996,-0.04968261718,0.86450195312,0.05349100560796472,-0.0048535156231999995,-0.21411132812,0.54907226562,0.06601868287297497,1.1128877966964001,0.91783018486,1.52433432077,0.030853575849723664,968.7003932332522,968.69350097367,968.7041148156,1.0533225541372341e-05,-4.4962839828523415e-06,Lift Up
-0.9502148437460001,-1.52392578125,-0.51550292968,0.07103598199764022,0.4510302734339999,0.10400390625,0.85095214843,0.05070783716220451,0.07697753905959999,-0.04174804687,0.22180175781,0.005340706218224689,1.0981498428048002,0.78751339257,1.55330367298,0.032467374970595785,968.7072250519539,968.69660066077,968.71308605385,1.6582468601065752e-05,-6.36736177352223e-05,Lift Up
-0.868856600010891,-1.07373046875,-0.73645019531,0.01091814133789071,0.3575838296701982,-0.07263183593,0.7685546875,0.08417788508663633,0.24216695350881187,0.04284667968,0.53369140625,0.02271304013445996,1.0278443896048517,0.97648764514,1.10638307024,0.0016173846207848002,968.7478374173733,968.58492597378,968.99765885935,0.00756158438217897,0.0014874676094871078,Lift Up
-1.0043078613251,-1.06945800781,-0.90124511718,0.0018016558388784087,0.09002197265599998,-0.18090820312,0.29479980468,0.01715961833689474,0.1438342285123,0.03674316406,0.41357421875,0.008304978950762166,1.0308611335972002,0.95426374948,1.10750154346,0.0017630656590227679,968.6700309494114,968.55337400379,968.71592073435,0.0024028266713757877,0.001511455890659142,Lift Up
-0.8721097695663638,-1.05163574218,-0.60180664062,0.017149299026769076,0.31422747987404037,0.10546875,0.58227539062,0.014862533845355363,-0.2483193753909091,-0.71911621093,0.10021972656,0.07910392990654341,1.0121763771423233,0.85258385015,1.12806074033,0.006535246965231956,968.7227374807575,968.61885059631,968.86966470053,0.0042245407306907325,-0.00011611262664289468,Lift Up
-0.9889648437459999,-1.06591796875,-0.91784667968,0.0018149686582563669,0.294121093746,0.04138183593,0.61181640625,0.01901168303074834,0.12170410155920003,-0.10876464843,0.18078613281,0.0037274023496682647,1.0489572890136,0.94242269006,1.14920875705,0.0034017046581223784,968.6995071418409,968.63454253366,968.72535679896,0.000535241393254308,0.0006923465938162485,Lift Up
-0.9810888671819998,-1.11413574218,-0.87536621093,0.004722144772308395,0.22499511718479995,-0.03393554687,0.48962402343,0.015381482730738496,0.20747070312160001,0.02587890625,0.35766601562,0.01087825828121063,1.0410556371196003,0.9816470418,1.16153382225,0.003108573808736074,968.7233310680327,968.67543154027,968.78931202549,0.0010027008885958371,-0.00013975640703841802,Lift Up
-1.0036181640583999,-1.06494140625,-0.92309570312,0.0012477261611160242,0.20147460937159997,-0.00952148437,0.47741699218,0.017633762166398663,0.0462744140628,-0.12634277343,0.23413085937,0.01583577998833591,1.0400511142331998,0.93932045775,1.13186731039,0.002673266931400678,968.7119829568808,968.69092177424,968.72464256452,7.93321296027386e-05,0.0002785914912248735,Lift Up
-1.0453955078091999,-1.06762695312,-1.0078125,0.00020573394466123738,0.13293457030920003,0.095703125,0.18200683593,0.0004547003543426453,0.0638964843724,-0.01745605468,0.15563964843,0.002409938706212626,1.0570665340771999,1.01253005677,1.08159108625,0.00025872752906823523,968.71457477856,968.68442523867,968.72841503638,0.00016739206448303213,-0.00037458311400923993,Lift Up
-0.9424218749964001,-1.28588867187,-0.59606933593,0.027699140249819988,0.39867675780959994,0.09362792968,0.69653320312,0.029463344728257464,0.09547363280959999,-0.05285644531,0.16882324218,0.004257395194950985,1.0463481135684003,0.76467915908,1.35149558127,0.022402695812858184,968.5804716777973,968.4748545561,968.67360854652,0.004051051486454007,-0.002179649320769606,Lift Up
-0.9376672363243,-0.98596191406,-0.87194824218,0.0006495749273425381,0.2846630859346,0.24328613281,0.3486328125,0.0009844621986198863,0.09645019530959999,0.080078125,0.15087890625,0.00013257917730393485,0.9849310400914001,0.91945322008,1.04958003279,0.0009581529937003945,968.3866082167893,968.33693334773,968.46987118752,0.0018957714105416945,-0.001456004588624453,Lift Up
-0.9602697753863998,-0.99523925781,-0.9140625,0.0003639569351873684,0.29616577148019996,0.23815917968,0.34497070312,0.00099141299583166,0.1679150390586,0.09533691406,0.25695800781,0.0017942937696778542,1.0201689505270002,0.9790598713,1.05600021049,0.00040519747884642534,968.3044174842246,968.29419635713,968.3312579143,8.344654465727912e-05,-0.00017670384667503656,Lift Up
-0.9631142191329701,-1.04113769531,-0.84448242187,0.0032783118097426,0.3237872737430693,0.20007324218,0.44860839843,0.005312674511727971,-0.009554117032475247,-0.1220703125,0.15185546875,0.0037138589888617724,1.021055421539406,0.93029298219,1.1027289836,0.0021687933928614526,968.2941545754875,968.28360058885,968.30307250757,3.397143143522405e-05,-0.00016930237506022019,Lift Up
-0.9787121581996,-1.0732421875,-0.86413574218,0.0010812336433018224,0.2523071289033,0.21948242187,0.3388671875,0.0007286250892498947,0.0189807128903,-0.0185546875,0.17370605468,0.002320582365248334,1.0124016408530998,0.91060345022,1.11042479422,0.001039088530895511,968.2815195660869,968.27396112224,968.29283000971,2.1098402919909494e-05,-0.0001329345775660948,Lift Up
-0.9340295410118,-1.0732421875,-0.64990234375,0.01076392189864946,0.31891113280769995,0.10546875,0.55895996093,0.009789889051408582,-0.0092321777353,-0.68188476562,0.2255859375,0.07396980176398614,1.031303364993,0.88910982009,1.15163100878,0.0042348213738315444,968.2836785599497,968.24502428751,968.32276944365,0.00020265158810171883,4.087072941000997e-05,Lift Up
-0.9708449238448486,-1.09143066406,-0.73889160156,0.0053394195701736155,0.33790788746464634,0.19323730468,0.5595703125,0.013707016502955544,0.036008276118484846,-0.53942871093,0.18176269531,0.020399353935033445,1.0458456394892928,0.90698970006,1.15457711472,0.0033058408923880953,968.2549936508992,968.23751575521,968.2664096693,8.26570630772929e-05,0.0002733213014602794,Lift Up
-0.9322949218715999,-1.0400390625,-0.79907226562,0.00460435751727722,0.3501464843704,0.13122558593,0.64526367187,0.02918189944666741,-0.12018066406000003,-0.22216796875,0.03442382812,0.005667560172610922,1.0211186022391998,0.91733972628,1.13656935086,0.002622073741722841,968.260549827876,968.25332563718,968.2650132729,9.177048225244509e-06,-8.074220453541917e-05,Lift Up
-0.9600671386683999,-1.07189941406,-0.80419921875,0.005955659576902519,0.3719396972618999,0.06945800781,0.64318847656,0.01692300530867153,-0.0578503417952,-0.22631835937,0.13037109375,0.014893869887972746,1.048045229871,0.89715724617,1.17490774005,0.004964872194490556,968.2535832262593,968.24755250448,968.25857458238,1.0795451069266051e-05,-4.941301507522842e-05,Lift Up
-0.9924084472618,-1.31555175781,-0.76977539062,0.017818181712150494,0.27473388671609994,0.05322265625,0.48718261718,0.016710082924672697,0.0195788574215,-0.10412597656,0.20910644531,0.006292923199085157,1.0418814447055,0.88063588658,1.37164644366,0.015790502524777008,968.2521558351332,968.23905637417,968.26024928876,3.7588166505859644e-05,-0.0001536103064263943,Lift Up
-1.1186572265586,-1.65258789062,-0.78100585937,0.05764851844664647,0.26587524413689995,-0.03881835937,0.5595703125,0.024309710232506155,0.08782958984230001,-0.07092285156,0.23828125,0.008732959326622823,1.1678283828837,0.83686336154,1.70183392243,0.056322037457132906,968.2484591944902,968.23857413599,968.25377779008,1.6679994662784592e-05,-0.00010736446278751168,Null
-1.0190112304656997,-1.26428222656,-0.830078125,0.00810314748628721,0.28550903319959997,-0.00244140625,0.51818847656,0.010731516731739851,0.08433837890290004,-0.03125,0.21032714843,0.003896313333581927,1.0668428851869998,0.83686336154,1.36652303079,0.011476953646074716,968.2495755119181,968.23857413599,968.25976649779,3.320511545488947e-05,0.00013867027315961006,Null
-1.0466113281211,-1.564453125,-0.85717773437,0.02744803426263352,0.5089318847621,-0.01135253906,1.53100585937,0.21902393904922324,0.09790405273279999,-0.1923828125,0.4169921875,0.02830951787397757,1.2389376292268002,0.85962781655,1.87706332324,0.10208016786073053,968.2444389680509,968.22384065137,968.2537053413,9.302758877506917e-05,-0.00026434282103517934,Null
-0.9744764271303961,-1.10852050781,-0.75268554687,0.009170486062524954,0.3828886428642574,0.08361816406,0.7119140625,0.03244828458184383,-0.07254964998306931,-0.29541015625,0.14794921875,0.014445180924900738,1.068118903380495,0.76611287279,1.32668345139,0.016263366192244992,968.2328802645713,968.22355028716,968.23977404678,1.819900197426543e-05,5.0239595878887694e-05,Null
-1.0487109374966999,-1.22058105468,-0.84484863281,0.009633432108966675,0.26075805663699997,-0.10949707031,0.49340820312,0.02522220143550977,0.0074243164067,-0.17333984375,0.25012207031,0.0144880162278448,1.0953138513066,0.85769727971,1.32274518128,0.014162750452835982,968.237401831876,968.23120486696,968.24832380256,2.1726547047629972e-05,0.00013854991789156217,Null
-1.0058398437468,-1.17431640625,-0.90148925781,0.005766034945234743,0.22320556640239997,0.08605957031,0.37158203125,0.006878114258447608,0.031540527342999995,-0.23461914062,0.25219726562,0.019064447427242892,1.0430866744760001,0.94123520622,1.22546270594,0.005950526464541585,968.2430633421408,968.23499077832,968.24811377096,8.067343114583328e-06,3.0794307778966643e-05,Lift Down
-0.888581542965,-1.27600097656,-0.52380371093,0.03595323804060543,0.3188745117164,-0.1103515625,0.86340332031,0.0983349351501004,-0.0183032226574,-0.37805175781,0.15893554687,0.023535334948324597,1.0114642182564004,0.66468003674,1.31716092491,0.02502881709673477,968.2360792299339,968.22326108852,968.24859877429,3.9682269045698024e-05,-0.00011301823669385667,Lift Down
-0.9289119219512121,-1.3466796875,0.24914550781,0.11253291742856349,0.4233262803784848,-0.22863769531,1.23229980468,0.10338480949675517,0.02724140822232323,-0.18310546875,0.21765136718,0.012512828228649388,1.0744610820840406,0.12756207479,1.8207684793,0.11564932663704028,968.2435437529488,968.23523067341,968.27322551888,5.65439439805028e-05,0.00014937808691450254,Lift Down
0.6726867675743,0.24914550781,0.83740234375,0.03389136549648863,-0.4379150390585999,-0.59924316406,-0.22863769531,0.009301572135159817,-0.47097900390129976,-0.80590820312,-0.15539550781,0.02873779867035126,0.9595217484568999,0.37215110322,1.06318745392,0.01679569090971627,968.1761769355782,968.12667662718,968.26788949982,0.0023225554047075275,-0.0010548233394372664,Lift Down
0.8011645507785999,0.73291015625,0.86193847656,0.0013960910023867483,-0.3819409179653999,-0.44641113281,-0.32348632812,0.0013045147874139512,-0.45368774413699997,-0.5224609375,-0.39501953125,0.00138902149267479,0.9986835764129002,0.97296715941,1.04260248189,0.0002585016520188308,968.1618838802981,968.14960448727,968.17476585315,3.175408927386777e-05,8.635948004314349e-05,Lift Down
-0.1619177246095999,-1.95727539062,0.89587402343,1.0824913169484953,-0.12643920898320002,-0.38269042968,0.31530761718,0.05621038461271779,-0.034405517578200005,-0.44140625,0.41491699218,0.08252193270508315,1.0584709597293998,0.23646900612,1.98646980388,0.13337231119927423,968.178766620466,968.14217202153,968.22526523238,0.0006283560100870489,0.0006498794292198489,Lift Down
-0.9438330078088998,-1.03259277343,-0.822265625,0.004166836473615603,0.061524658202300006,-0.15246582031,0.23425292968,0.015742084742907492,0.3169177246048001,0.08471679687,0.52087402343,0.023333456689474102,1.0185727735517003,0.98957391115,1.07500724291,0.0003659934060520689,968.2277573087919,968.20175714744,968.25237922938,0.0001606982463176536,1.4056065947479042e-05,Lift Down
-1.0004701519921781,-1.03759765625,-0.97314453125,0.00043173741884881925,0.17440221805029704,0.07238769531,0.39025878906,0.006891025169086178,-0.08630250231683169,-0.18505859375,0.18579101562,0.011123530415951545,1.0277266968636634,0.98756058995,1.10234234983,0.0008547363213058849,968.2335738926123,968.22638752016,968.24027179741,1.8270158807958547e-05,-4.28109882480642e-05,Lift Down
-0.5702905273402,-1.05944824218,-0.23962402343,0.07195376729107252,0.1396142578124,-0.06018066406,0.48315429687,0.025760845125722576,-0.7100903320272,-0.94665527343,-0.05834960937,0.08044568902967306,1.0107090518412,0.91056960055,1.16786927019,0.003835976924035147,968.2182449950333,968.16841372455,968.25795342758,0.0007196983065996172,-0.0007563123696385016,Lift Down
-0.246474609371,-0.37878417968,-0.185546875,0.003354860459852055,0.0065356445314,-0.09448242187,0.46362304687,0.014235892806811435,-0.9255224609338001,-1.04663085937,-0.6689453125,0.006765991533603541,0.9683221037366,0.81037747554,1.09207076184,0.0038886405803514636,968.2392384932228,968.18307116941,968.33149044494,0.0018889693535349328,0.0014718406176566102,Lift Down
-0.8120996093712001,-1.17004394531,-0.27136230468,0.0744608972046851,0.4957202148399999,0.09155273437,0.97399902343,0.04823771595325721,-0.0526660156268,-0.89929199218,0.23571777343,0.1008768359554612,1.0544767871138,0.80291174346,1.26285614499,0.017612541621161257,968.4404936784957,968.32546715314,968.55288056343,0.005266782530643176,0.0024717985878755402,Lift Down
-0.36858154296479995,-1.01452636718,-0.00537109375,0.1153518251034339,0.8675219726528002,0.38818359375,1.22045898437,0.05731934116950572,0.12198730468380001,-0.02844238281,0.31481933593,0.009630084302415841,1.0290092438356,0.67455676944,1.27577609652,0.025197821741314224,968.6608273461592,968.55288056343,968.8184172509,0.00582902215470501,0.002520444281992512,Lift Down
-0.9510781644534344,-0.9921875,-0.888671875,0.0006499493693932666,0.3273001006111111,0.20300292968,0.44055175781,0.005947915294632288,0.10352672229777776,-0.03576660156,0.23413085937,0.008386658493948118,1.0181805581615149,0.96793751331,1.08306577095,0.000539780641296869,968.8559735386516,968.75749776557,968.97822701474,0.005348013612415115,0.0024276954334499206,Lift Down
-0.9889782714806,-1.03332519531,-0.92041015625,0.0006866407801091118,0.23454101562010002,0.15832519531,0.39831542968,0.0018360137698065647,0.04374389648189998,-0.03833007812,0.11791992187,0.0025590024133482136,1.0195548313877998,0.96551692505,1.0679623914,0.0005452769031042546,969.0891374399275,968.97822701474,969.20386131047,0.0035913072271397373,0.002054050512668123,Lift Down
-0.9967932128871999,-1.00988769531,-0.98156738281,4.065152822605871e-05,0.18417968749590002,0.13293457031,0.2119140625,0.0006194132746576681,-0.0129479980459,-0.05700683593,0.08959960937,0.0019449616484577812,1.0149885977377,0.99053092142,1.02439819265,6.428267193485183e-05,969.3001149711714,969.20386131047,969.41282240391,0.0036109534237245377,0.0020646505672090782,Lift Down
-0.9959960937457001,-1.0126953125,-0.98034667968,5.848299374889272e-05,0.2017077636674,0.15759277343,0.23217773437,0.0004341650174954976,-0.027561035154300004,-0.06591796875,0.01293945312,0.0005179245001608266,1.0170597014014,1.00752376885,1.03602963436,4.4325164278081976e-05,969.5087604585485,969.41282240391,969.60860959085,0.0034598483543823197,0.002020262321801746,Lift Down
-0.9983093261685002,-1.01684570312,-0.97180175781,0.00013056408727067507,0.16313476562110002,0.13000488281,0.19897460937,0.00023531612724560306,-0.0124682617167,-0.03759765625,0.01147460937,0.0001330378741581771,1.0117939113913,0.98547756421,1.03419954246,0.00015851494720345064,969.7113934339887,969.60860959085,969.82221102062,0.0037994398083667246,0.002114979233801739,Lift Down
-0.9905486154038615,-1.02233886718,-0.95715332031,0.0004042471487634341,0.23172571163029695,0.17297363281,0.30102539062,0.001373919410877194,0.0013246441819801979,-0.09240722656,0.08544921875,0.001993309672306655,1.0188940069350496,0.97460905392,1.05384885859,0.00047899967985058585,969.932443293793,969.82221102062,970.04367534852,0.0048376312957631685,0.0023439266369287555,Lift Down
0.03012695312359999,-1.16333007812,0.59143066406,0.44503152069008434,0.7527416992152002,0.23596191406,1.02404785156,0.038885250362678,-0.12421874999880002,-0.52331542968,0.11486816406,0.0304190432175283,1.02821308494,0.66450294025,1.51557249784,0.035281116139491066,970.1124913630503,970.03982332473,970.22791414638,0.0033165138816850623,0.0019345657655081003,Lift Down
0.26283691406000004,-1.02490234375,0.66760253906,0.3782265176412432,0.6459130859339999,0.48107910156,1.00537109375,0.01834292089106002,-0.4280224609346,-0.52551269531,0.02551269531,0.016664167702881955,1.0275551490777999,0.73660202396,1.32443282835,0.022951384660837598,970.3009555149166,970.22791414638,970.40004326708,0.0019887689858421056,0.0014773392381298425,Lift Down
-0.9758178710893999,-0.99682617187,-0.96520996093,7.406223303013719e-05,0.26999267577799996,0.18908691406,0.599609375,0.006635679313731319,-0.0064526367176,-0.037109375,0.0390625,0.00046038869046909563,1.0155694649143998,0.98617974099,1.15926345998,0.0008841312144523822,970.5473881801527,970.40004326708,970.65840619266,0.0054015095630000525,0.0025206494153355912,Lift Down
-0.9912988281214001,-1.00830078125,-0.9775390625,6.651459318297525e-05,0.22915283202799996,0.17834472656,0.298828125,0.0013494950894237855,0.0346093749974,-0.00036621093,0.08056640625,0.0006462878891680604,1.0189174162006,1.00030892785,1.05076505513,0.0002335045025934479,970.7519408683713,970.65840619266,970.85898431947,0.003216300147595374,0.0019383964222860243,Lift Down
-0.2041748046874,-1.033203125,0.70593261718,0.5645493461569041,0.6061010742149999,0.19738769531,1.19567871093,0.07826274674933607,0.0966333007802,-0.0673828125,0.38879394531,0.0161544047757736,1.00996628085,0.57106780633,1.5726634926,0.05124121424792206,970.9471688111412,970.85898431947,971.01079110013,0.0023323240003365075,0.0016195380085103925,Lift Down
-0.7775151416471715,-1.39221191406,0.68994140625,0.3023835113185114,0.42547422466464646,0.10424804687,1.07446289062,0.0874330262635258,0.13553750394343436,-0.08349609375,0.3681640625,0.01350373389343725,1.0668455716010103,0.49438829208,1.75339540123,0.06567880428363865,971.083939236668,971.00478793611,971.21374080358,0.0032004073540840565,0.0017347938078061775,Lift Down
-0.9692736816369001,-1.01599121093,-0.87561035156,0.0015235775934759224,0.22309936523130003,0.12463378906,0.30078125,0.0019757803807761167,0.12351806640449998,-0.01770019531,0.45104980468,0.02529450709713813,1.0160684669390998,0.98315400132,1.07080948561,0.000638693255327027,971.0945910394211,970.98418328746,971.22929165356,0.003820782255321423,0.0001744933448070866,Lift Down
-1.0055114746062,-1.01696777343,-0.994140625,4.0988842338817405e-05,0.12865112304360002,0.07495117187,0.2041015625,0.0018440936837438291,-0.0021032714829999997,-0.04016113281,0.03088378906,0.000376374689783723,1.0147844430991,0.99889996493,1.0293799915,6.0845920739071443e-05,971.1312951832474,971.12051979098,971.14219018035,3.396497833047176e-05,0.00017684647871531268,Lift Down
-1.002000732418,-1.01159667968,-0.97436523437,8.485771641641219e-05,0.1292968749958,0.08264160156,0.24841308593,0.0027240803747191488,0.0069702148425,-0.01184082031,0.04260253906,0.00012614194185003416,1.0117064762519,0.98264316319,1.04003463529,0.00012875624866925337,971.1494290147774,971.13772504778,971.16558050735,5.918998892205879e-05,0.0002516297659972975,Lift Down
-0.9864973313702969,-1.01037597656,-0.96948242187,0.000156513443677342,0.2692713973505941,0.23999023437,0.28161621093,9.012897711185721e-05,0.041942634202376254,-0.04370117187,0.08435058593,0.0013415024213439082,1.0241512461412876,1.00817646433,1.04496787852,0.00013119946243947962,971.1641055053122,971.158312078,971.16864349224,7.190617429505438e-06,9.14397469115966e-06,Lift Down
-0.9995776367158001,-1.02880859375,-0.96606445312,0.0004073033489254742,0.1430786132772,0.087890625,0.23999023437,0.001148236670812043,-0.044733886717399994,-0.11730957031,0.07409667968,0.003501574926718265,1.0130733652104,0.97082092061,1.03857010812,0.0003201641550386657,971.1629830833692,971.15976158237,971.16951792863,7.426877283739827e-06,4.8284790440029186e-05,Lift Down
-0.9927709960899997,-1.03393554687,-0.90148925781,0.0004543248390909553,0.17504882812119998,0.03112792968,0.33129882812,0.007329794493658152,0.08344726562119999,-0.05236816406,0.11535644531,0.0015238981053040611,1.0159227328542004,0.94590327033,1.04805541744,0.0003189163409134928,971.1688691093757,971.16417219114,971.177442247,1.5460083249633767e-05,5.990410914867914e-05,Lift Down
-1.0452563476526,-1.34399414062,-0.84838867187,0.020801492297264038,0.19709960937139998,0.05883789062,0.39379882812,0.010887917099402955,0.04928710937179998,-0.12756347656,0.16979980468,0.00690800948513267,1.0724024341847997,0.86284718022,1.37401570505,0.022225021534878625,971.1682486994889,971.16365366817,971.17770531762,9.80376673464019e-06,1.2936069663733532e-05,Lift Down
-1.0608471679651998,-1.40478515625,-0.83264160156,0.029655529519410914,0.21968994140300002,0.04296875,0.44641113281,0.011110246934165046,0.1432910156212,0.00952148437,0.29858398437,0.006538222149168883,1.0997895884703999,0.86180383602,1.45076909386,0.031804564643578656,971.168667552763,971.15766796766,971.17780866075,3.286425839438167e-05,7.814910063030894e-05,Null
-1.07841552734,-1.599609375,-0.78625488281,0.04281589592969904,0.20643310546540003,-0.21447753906,0.43237304687,0.030524134786077572,0.28087402343459994,0.0576171875,0.95568847656,0.040350258856126156,1.1645737119876,0.82070699924,1.64360115225,0.04121853505555936,971.1843413624003,971.16815705361,971.40070135017,0.0010517246332644786,0.0004246957945161522,Null
-0.7959643554647999,-0.8623046875,-0.65673828125,0.001372168286870646,-0.34001464843419993,-0.41381835937,0.0302734375,0.0119869576557345,0.48441162109059993,0.28186035156,0.95568847656,0.013352567649975944,1.0018821476970003,0.77657613761,1.30495611155,0.006566236113639123,971.1759375014874,971.14025084878,971.40070135017,0.002847965804194943,-0.0009973224365650154,Null
-0.9048480409529291,-1.69482421875,-0.41064453125,0.10511260931658974,0.30989336726323236,-0.39172363281,0.60131835937,0.07512467075013825,0.5210577454199999,0.13330078125,1.17138671875,0.09990971105879581,1.1780066966235354,0.7117326398,1.77315035356,0.07667701187535518,971.1485301695784,971.09958053485,971.18812866831,0.000668027661041749,0.0005063762901166741,Null
-1.1896606445278,-1.61364746093,-0.79846191406,0.058509641072991905,0.2300903320303,-0.33764648437,0.74780273437,0.09539927662492988,0.2730688476521,0.11535644531,0.47241210937,0.009232691436124095,1.2831279524633,0.83507640553,1.69902783779,0.058478238626975716,971.2060270889691,971.18297355615,971.23034246093,0.00010091325576726182,0.00027259489617013395,Null
-0.7370690917920999,-1.46362304687,-0.13500976562,0.17348472375290364,0.6679187011689001,-0.09350585937,1.46655273437,0.23510728523436303,0.7228039550748,0.03942871093,1.93420410156,0.21847196940738067,1.3359708135100004,0.32886911214,2.36709785291,0.35132032220038134,971.228222891782,971.14922913327,971.57857074148,0.006234038274722599,-0.0006082776022699988,Null
-1.2406996925242573,-2.83984375,0.06457519531,0.6500774731363392,0.44446525951287125,-1.18359375,1.90051269531,0.7389921056644265,0.4360617458201979,-0.24633789062,1.36145019531,0.20361276197476502,1.7045424690675246,0.41636546294,3.22092472375,0.6044679511478561,971.1789159063136,971.09622774781,971.28158543391,0.002695616216704154,-0.0015142843128235248,Stairs Up
-1.7198120117153999,-2.88110351562,-0.271484375,0.5060078924656,0.34805664062459996,-0.86682128906,1.88818359375,0.6942803089262521,0.47227050780979996,-0.10473632812,0.822265625,0.0766914856308255,2.0457515051008,0.92571024884,3.22360312914,0.3848958412151662,971.016492654848,970.92488698732,971.15270738728,0.004091742718967028,-0.0019158276282764464,Stairs Up
-1.1128637695267998,-2.63403320312,-0.28503417968,0.31726384951038256,0.5042187499986,-0.7099609375,1.57543945312,0.35801164559370263,0.40769287109060004,0.11328125,0.86706542968,0.04662049279617743,1.4544026327442003,0.52967613961,2.64903227842,0.2609149539449669,970.8399366444489,970.75038013096,970.92488698732,0.0016934465867279648,-0.0011944863828635378,Stairs Up
-1.6656811523405997,-2.994140625,-0.69714355468,0.4015101723068389,0.2539355468738,-0.72814941406,1.10571289062,0.39550314560908834,0.3874560546850001,-0.34436035156,0.97546386718,0.13807824462239093,1.8853197543012,1.1600638266,3.13653406428,0.364049725753928,970.6928479968913,970.61941539655,970.75402020037,0.002247416241271006,-0.001421829338281285,Stairs Up
-1.0525878906205999,-1.62097167968,-0.41430664062,0.12675134702155197,0.601572265622,-0.10559082031,1.32922363281,0.17433361022142888,-0.03315185546820001,-0.46008300781,0.390625,0.08204975097296764,1.3133489590286,0.67112234008,1.89750856662,0.12661351184165218,970.6461237088051,970.40655220464,970.96505784713,0.017808566483554198,0.0006683279004594341,Stairs Up
-1.1869873046832,-1.74267578125,-0.64636230468,0.09081295885255762,0.4787792968709999,-0.05639648437,1.10205078125,0.11273869502342704,-0.05156005859459999,-0.45556640625,0.16674804687,0.026641758336245214,1.3254232420186003,0.65231654401,1.89867362371,0.11310265034788293,970.6204912378867,970.40655220464,971.07737173013,0.027407169505424555,0.0016582438445233677,Stairs Up
-0.9391186523409999,-1.5927734375,-0.46948242187,0.11274198258154124,0.7191235351522001,0.13464355468,1.92980957031,0.19268123574376284,-0.29105468749860003,-1.11950683593,0.23901367187,0.11712364923904456,1.2989519011916002,0.62937555513,2.72731231009,0.21701079836545356,970.6943907806807,970.32407095434,971.65606823946,0.12620291739321277,0.0006783960789342886,Stairs Up
-1.3906835937464002,-3.01049804687,-0.26831054687,0.6195543831272802,0.24455322265560006,-0.87805175781,1.64929199218,0.3974650597830913,0.3377026367149999,-0.3193359375,0.89831542968,0.08623107527726959,1.6156060005858002,0.33403534528,3.1871461064,0.5958439104554121,970.5003342358286,970.32407095434,970.56811382268,0.0034266575432662857,0.0012514204662301069,Stairs Up
-1.723688299001414,-3.15393066406,-0.27185058593,0.6807803111030282,0.10490895280939393,-0.87963867187,2.12524414062,0.5222552862691178,0.5740091343085858,0.16162109375,1.40478515625,0.14657746621555268,1.9588506275321211,0.60959203229,3.81230045992,0.8187487435143316,970.4435535617247,970.39315829655,970.46710377,0.0004734070678331185,-0.00042385918078040416,Stairs Up
-1.8503771972621,-3.15393066406,-0.70556640625,0.4803949875345364,0.30904541015590004,-1.02136230468,1.79309082031,0.7695663322942254,0.6590624999968,-0.11083984375,1.29541015625,0.1623832643393634,2.2138489294884,1.0881890824,3.56589371924,0.45541643668427945,970.33342371165,970.24655898426,970.46310322902,0.004187309762108956,-0.0019051018016442915,Stairs Up
-1.6519267771466337,-2.85998535156,-0.42309570312,0.535754053076098,0.3157789777984159,-0.96228027343,1.60510253906,0.7142302450569049,0.5739347250126732,-0.11083984375,1.15783691406,0.10288257900021275,2.0094319810682175,0.90292868708,3.2697874878,0.46423112526460086,970.2226813882245,970.15063323861,970.31321721397,0.0018370552317099626,-0.00032574241983485,Stairs Up
-1.3814941406221999,-2.19909667968,-0.45166015625,0.21168368031229434,0.32551513671719995,-0.44885253906,1.31188964843,0.3034219373864185,0.3345288085924,-0.50268554687,1.30651855468,0.18994372312859045,1.6252620896422,0.79881380809,2.50315203146,0.18476532926729852,970.1156965827563,969.98999510297,970.40574243781,0.005492858059025008,-0.00013179246593739494,Stairs Up
-1.1093749999964,-2.13037109375,-0.49682617187,0.1884296987996581,0.6321997070279999,0.09094238281,1.10095214843,0.08550793202821537,-0.1885205078112,-0.63977050781,0.23303222656,0.06313758712678164,1.3545820269093998,0.5864758879,2.27774432014,0.16640539413995165,970.0972076339992,969.79355812419,970.65332204884,0.0877074207765475,-0.003312532757467298,Stairs Up
-1.0717700195273998,-1.85681152343,-0.44799804687,0.14657797440680723,0.580578613279,-0.177734375,1.21826171875,0.20589570219282413,-0.0337255859372,-0.35559082031,0.33850097656,0.03986466956740688,1.3241788402632002,0.71145948174,1.85958115452,0.12309624020995007,970.0878705922258,970.00450565005,970.12721945369,0.0007943931281925247,0.0006996143256723553,Stairs Up
-1.290253906247,-2.24499511718,-0.564453125,0.24025279558018348,0.19036376953019996,-0.54064941406,0.86145019531,0.1364302082531686,0.1824316406226,-0.31945800781,0.73022460937,0.06847892098880728,1.3894134314744002,0.572682512,2.47508955875,0.2469852857031044,970.1036711970019,970.04248030386,970.13257897746,0.0004606261920285534,-0.0005148531499983055,Stairs Up
-1.389531249996,-2.49975585937,-0.66577148437,0.1974075418291125,0.30860839843719995,-0.41442871093,1.7041015625,0.2973834147577749,0.2816308593726,-0.15014648437,0.69189453125,0.05902149438750215,1.5561902019762,0.88320246666,3.07315015094,0.23424097069922112,970.0143274017397,969.99036594403,970.04248030386,0.0002183376002232623,-0.00039953142149180674,Stairs Up
-1.9107177734330003,-3.15649414062,-0.51208496093,0.6101369448380348,0.30948486328179997,-0.92590332031,1.75561523437,0.7430060760177551,0.5558251953096,-0.2958984375,0.99841308593,0.1280571875178288,2.2442185100106,1.22952918859,3.50251472127,0.49033982189323644,969.8986754880596,969.78252596305,969.99496445419,0.003838502370598128,-0.002002840127196531,Stairs Up
-1.2888305664016,-2.10913085937,-0.54663085937,0.16744784649565045,0.34109619140340003,-0.28002929687,1.09228515625,0.10708158293701155,0.0333422851558,-0.53076171875,0.5380859375,0.11791741366766739,1.4156824673022,0.6128322999,2.14690325314,0.16455361121546894,969.7586083536764,969.67126575696,969.89711068418,0.005215858475855172,-0.0014389138949987281,Stairs Up
-1.2639862985274748,-2.11608886718,-0.60229492187,0.17243406057713892,0.25511092368848487,-0.50610351562,0.806640625,0.14114959526968482,0.3723625414253535,-0.04443359375,0.75939941406,0.04613088886899742,1.4071413560576769,0.83306792423,2.31060527169,0.1663454497192671,969.6878164372653,969.64568421617,969.72501566236,0.0006668036932287195,-0.0008434267917532049,Stairs Up
-1.32435302734,-1.77258300781,-0.888671875,0.06591272007949447,0.32126953124660007,-0.09350585937,0.87976074218,0.11285891578475821,0.17736083984099998,-0.13818359375,0.50927734375,0.03687091933913007,1.4227753737022,0.91510331977,1.92372093482,0.07856392513198786,969.6489603677452,969.64146316827,969.66929736762,4.337734094478674e-05,-0.00011377930867127429,Stairs Up
-1.26417465964901,-1.67651367187,-0.86206054687,0.040511104252286996,0.3119597482190099,-0.1015625,0.68872070312,0.07070360164180726,0.09630743347653467,-0.14685058593,0.37976074218,0.027210860363414576,1.3397393280218812,0.8792358967,1.74893393146,0.047353976653686514,969.6505898188111,969.64451756999,969.65925064293,2.2372962965132203e-05,5.725997616272637e-06,Stairs Up
-0.6923120117151998,-1.43798828125,-0.17797851562,0.1377484311312135,0.2610742187484,-0.22973632812,0.7646484375,0.1010367178178256,-0.5257543945287999,-0.94995117187,0.14440917968,0.15535184318853826,1.0795122757400002,0.8315162856,1.61029673078,0.049214365018518856,969.6488865404158,969.58130330616,969.68966710337,0.001373124318222648,-0.0006659580397174328,Stairs Up
-0.5509008789035998,-1.52795410156,-0.18322753906,0.1322799881841074,0.4818090820267999,0.26940917968,1.04113769531,0.04514185376222751,-0.5072656249990001,-1.08288574218,0.34851074218,0.21840128346855306,1.0651183943431999,0.62200436324,1.60458328722,0.05084634787522077,969.6173016258747,969.40129581552,970.00890670252,0.021054399565309433,-0.0023117894554330683,Stairs Up
-1.1040747070272,-1.57604980468,-0.52111816406,0.06743227899097307,0.2916650390606,-0.13635253906,0.66467285156,0.06939584464645324,0.3311108398414001,-0.64099121093,1.27612304687,0.22530769230523898,1.3091182526907996,0.95879883534,1.75109446735,0.058997676993860264,969.614166642535,969.58920290029,969.70406618187,0.000706356011952383,-0.0006108774704639287,Stairs Up
-1.0240454101528003,-1.86572265625,-0.39489746093,0.16911058021990152,0.5338867187470001,-0.13671875,1.27038574218,0.13205211391338703,-0.041652832030600016,-0.56884765625,0.78186035156,0.10197226103337854,1.2659397471186,0.7496269212,2.25947235565,0.13327186990342957,969.5360566395748,969.46919501093,969.59320433803,0.0011125836941880628,-0.0011025159828519755,Stairs Up
-1.6479602050742,-2.89038085937,-0.67272949218,0.4306347849083457,0.5443908691390001,-0.6572265625,1.50085449218,0.47934298183044055,0.34478759765339995,-0.69543457031,1.06921386718,0.2298911772272582,1.9805970995045996,1.00757517718,3.1021548001,0.39914328425734885,969.3652246422121,969.27512892425,969.49367187746,0.004732543856540404,-0.0022359986631808036,Stairs Up
-1.0138623046841,-1.51196289062,-0.55810546875,0.049901047836602125,0.0036303710952999934,-0.89587402343,0.83813476562,0.2094688682278803,0.127565917966,-0.12634277343,0.52526855468,0.023279529622831138,1.1249104419448999,0.66853090244,1.73046530988,0.05919440880058785,969.2914957633599,969.20111264514,969.34612790199,0.001122762616267105,-0.0005862403548638447,Stairs Up
-1.5241320800733995,-3.00671386718,-0.56713867187,0.3941321531611492,0.3182678222652,-1.04504394531,1.64904785156,0.5001987587215693,0.4820959472625999,-0.10778808593,1.08776855468,0.10915037298788167,1.8013233724018003,0.79022226932,3.46951309178,0.4094647339682991,969.2174580237933,969.1553560592,969.30262389733,0.0018375905861529051,-0.0010143479266209218,Stairs Up
-1.2583508300749,-2.02478027343,-0.5546875,0.13850505005572616,0.5603735351535,-0.18774414062,1.37561035156,0.19562985836035404,0.35072021484120003,-0.17236328125,0.76025390625,0.05616962533369368,1.5165869772033003,0.83932765805,2.11827042111,0.10791455408088273,969.1701801494669,969.15397491824,969.1981863475,0.0001820671865659986,-7.185524554871993e-05,Stairs Up
-1.0033740234339001,-1.67358398437,0.3359375,0.21903238498734182,0.8283105468718999,0.02697753906,1.89904785156,0.3258196842433641,0.2453710937489999,-0.33862304687,0.74182128906,0.09434731490532264,1.4937874796477997,0.92462924312,2.46564545568,0.15603143691970803,969.1813360293258,969.1507265179,969.23477595786,0.0003583550844967051,0.00040083420858398795,Stairs Up
-0.38031005859059985,-1.14331054687,0.3359375,0.11047198329738578,1.0829785156214,-0.07849121093,1.99487304687,0.27342853977154585,0.10701416015600003,-0.2255859375,0.49890136718,0.05012596111568275,1.2542925901594,0.56201927518,2.0553423487,0.18723894348538575,969.1725960380322,969.13347125341,969.23917843039,0.0008044863037431234,-0.00012667474191465464,Stairs Up
-0.8546862792939,-2.70483398437,0.10668945312,0.6346126861310172,0.3832678222637,-0.4560546875,1.54626464843,0.42067260358213254,-0.017733154296799974,-1.25524902343,1.42126464843,0.6024278907571166,1.4049135944588,0.62977120053,3.06689357408,0.552893073629018,969.148436734128,969.00743466901,969.22572878852,0.0022409486587466262,-0.0012499423664511554,Stairs Up
-1.4508093261679,-2.67443847656,-0.56115722656,0.26423230690618427,0.4179382324197,-0.59973144531,1.51123046875,0.31958174114573484,0.2936633300773,-0.25988769531,0.92236328125,0.13466994500133597,1.6728660968903997,0.66333997351,2.88734443191,0.28139029640607527,969.0544366852799,969.00743466901,969.09945516253,0.0007636877572428547,-3.1005854577355805e-05,Stairs Up
-1.8187561035109,-2.85363769531,-0.67260742187,0.44566510915033547,0.5212390136693,-0.74951171875,2.09875488281,0.645675859813063,0.5908142089808,-0.08984375,1.29516601562,0.18067077716502009,2.1482465917244995,0.71075232682,3.62563347625,0.5787409220008023,968.9440351968617,968.79956458,969.03395665564,0.005725674800925976,-0.00234986056086406,Stairs Up
-1.7931115722614002,-2.98156738281,-0.95812988281,0.3908272900528322,0.3985058593739999,-0.90234375,1.4853515625,0.6052969821493612,0.4622570800759,-0.49560546875,1.11303710937,0.1856602302968881,2.0901823296960997,1.10868169719,3.47172405788,0.39276982294502866,968.7832867251377,968.68759065344,968.8600279443,0.0023554273984467797,-0.000623004719773,Stairs Up
-0.8682360839809999,-2.50354003906,-0.32531738281,0.28773192718032375,0.7789587402306998,-0.02233886718,1.63696289062,0.23837757347029145,-0.08347167968679998,-0.43969726562,0.32653808593,0.058540594696621914,1.3096608247297,0.6594310479,2.52724734598,0.2335053094757034,968.676156951283,968.65419188083,968.72620177702,0.00042149262725194037,0.00011525896724206651,Null
-1.2600292968715001,-2.17846679687,-0.87414550781,0.09920935339339142,0.4569116210917999,-0.04235839843,1.27563476562,0.14134575561396578,-0.0096887207029,-0.56481933593,0.55102539062,0.09542953716668255,1.4052516451821995,0.9818134737,2.40270079773,0.15598842747092773,968.6871084316573,968.53913306255,968.98746412507,0.013603329786250706,-0.0006813488229484877,Null
-0.9761401367153,-1.14636230468,-0.70373535156,0.011113096794639397,0.20926635742060004,-0.18664550781,0.74865722656,0.08029650247813902,0.11036010741939999,-0.150390625,0.26403808593,0.012723985420675687,1.0482729480867,0.81225422663,1.32279990148,0.013169094263044754,968.7187253789152,968.68997910321,968.75942874316,0.00037742193814786876,0.0004176933658942771,Null
-1.0005407714815,-1.24865722656,-0.79553222656,0.011621961766561823,0.24036987304309998,-0.00427246093,0.45263671875,0.01499454779294216,0.1490380859348,-0.11865234375,0.34716796875,0.014937752328209087,1.0553217376899,0.90463561928,1.2620897899,0.0085925369183445,968.7136713181887,968.68286459752,968.75005525302,0.00028332296608339733,0.0002083080033435476,Null
-0.9725439453088001,-1.23486328125,-0.79553222656,0.009177667528744802,-0.0829418945306,-0.28454589843,0.33435058593,0.028046683053867993,0.2095471191371,-0.04248046875,0.42468261718,0.017231728661820905,1.0220687209234003,0.88346711085,1.2439150164,0.005977905785194986,968.7297659132435,968.70634260828,968.76481371347,0.00019484074416859353,-9.268839927943728e-05,Null
-0.949960937496,-1.28356933593,-0.68676757812,0.010923141084465657,-0.10261108398160002,-0.29870605468,0.45434570312,0.07543279428896998,0.17521972655749998,0.009765625,0.23217773437,0.004464725653273174,1.0108637222416001,0.7649294847,1.36671656535,0.011842181185674991,968.7193836629169,968.70413816262,968.73366271076,4.6454502003471676e-05,-5.76778142711302e-05,Null
-0.9398681640589001,-1.23669433593,-0.30517578125,0.05933979364343334,0.39667358398029995,0.10705566406,1.04833984375,0.06800971740895506,0.16658813476159998,0.03247070312,0.31433105468,0.006061192020947464,1.0863209925503003,0.7649294847,1.28417111818,0.020643436232355178,968.7153810985371,968.70797333504,968.72379607608,2.564847317736943e-05,-0.00011995073953523603,Null
-0.7702490234334999,-1.77673339843,0.21057128906,0.28791418439027466,0.6851574706999998,0.15502929687,1.068359375,0.058373087191478726,0.11363403320260002,-0.2451171875,0.38403320312,0.04916444477688081,1.1807458896623002,0.80877465145,1.79697750047,0.07371045909163425,968.7124951818228,968.60277073859,968.8520716838,0.0025402788053219046,0.0002511556340263772,Null
-1.2593872070271999,-2.24768066406,-0.69018554687,0.1471757429725401,0.4034863281231999,-0.20288085937,1.33056640625,0.14866674774668046,0.139003906248,-0.12329101562,0.48181152343,0.028406890979190323,1.3963028648792002,0.75067154304,2.28027704798,0.14093397734512444,968.6856761037307,968.60277073859,968.71010124483,0.000531000659687813,0.0006414402116497049,Null
-1.0417395019500004,-1.4169921875,-0.86120605468,0.023389504791366245,0.3543811035124999,-0.15600585937,0.87658691406,0.07733854714433966,0.1423669433563,-0.07495117187,0.37390136718,0.018766957657750553,1.1470780839688999,0.89600009345,1.56161208196,0.03392669877377822,968.7079923487274,968.69683012978,968.71504516453,1.866792683409523e-05,6.593279544732868e-05,Null
-1.0770690917933,-1.89929199218,-0.15600585937,0.30263070066111436,0.4697656249969,-0.05834960937,1.06311035156,0.13088034646635555,0.023385009764800003,-0.77758789062,0.39465332031,0.08755392415621725,1.3162949036909,0.5232964653,2.01760090596,0.16618836130665107,968.7010575504352,968.68372596114,968.74347656439,0.00014479893277133548,-0.00017740583955277062,Null
-1.2271252441375,-1.53637695312,-1.01831054687,0.026016700416654007,0.2859777832008,-0.11364746093,0.6298828125,0.05316325475835011,0.23785156249620004,0.03503417968,0.42822265625,0.011389750567506024,1.3047233118659003,1.03807108052,1.61676777354,0.03187283961912142,968.7001845513286,968.68540533152,968.70967853566,3.177465310493545e-05,0.00010545259886689625,Null
-1.0155029296828,-1.69201660156,-0.595703125,0.0902339123714408,0.4773718261677999,-0.01574707031,2.08544921875,0.2665935835022578,0.32308227538729994,0.01879882812,1.64697265625,0.16503457761060636,1.3039673974536001,0.65178024486,2.27311232951,0.18164110748685447,968.709985971532,968.69569726844,968.78897418189,0.0002977648116482987,0.00013737740839507345,Null
-1.1773864746053,-1.77893066406,-0.30651855468,0.13445593924723687,0.28350952148210007,-0.34533691406,0.78955078125,0.10170571686380316,0.1944311523406,-0.22497558593,1.35803222656,0.051438865510700794,1.2973827794925001,0.4464375856,1.83969203461,0.10701259822364428,968.7429734123843,968.66260380671,968.8452802895,0.002152469850137118,0.0007862459756926171,Stairs Down
-1.3107128906208998,-2.10778808593,-0.56640625,0.2201051933351876,0.24835327148209999,-0.11450195312,0.50109863281,0.044705516006867015,0.1692810058563,-0.00402832031,0.46435546875,0.016415372754117162,1.3695669738536,0.57465337018,2.16698113361,0.2131351650961673,968.8080534743343,968.7812222947,968.8459772288,0.0003646351108840921,0.0006183020102562226,Stairs Down
-1.3468457031217003,-2.25427246093,-0.5,0.2620982706898859,0.22081298827960003,-0.17297363281,0.62536621093,0.061216585412033564,0.23367309570030004,-0.02319335937,0.55651855468,0.028236556647165494,1.4151086557275996,0.52958267491,2.31342071491,0.2655133642117574,968.874311640026,968.83563211115,968.92382596255,0.0006623897268879118,0.000828218588668917,Stairs Down
-1.2864465331993,-2.3662109375,-0.5576171875,0.2552130099666474,0.2833056640593,-0.1181640625,1.15393066406,0.09342761013183466,0.2764294433559,0.03649902343,0.78149414062,0.0312872834561197,1.3767894595717005,0.57116709654,2.74613242033,0.2951509371239124,968.9564795073383,968.91426561968,969.09745302222,0.0015282043178833037,0.0006852961566042345,Stairs Down
-1.2266906738257,-2.05126953125,-0.56921386718,0.1908670102043168,0.3914318847628999,-0.08361816406,1.02453613281,0.12027664223437008,0.22412719726209995,0.02954101562,0.53881835937,0.019250805743519676,1.3542266108435,0.57589276552,2.12567687824,0.20341689928594575,969.0320815770247,968.9862784722,969.07489333132,0.0007586335301069319,0.0009147539684574799,Stairs Down
-1.3221801757779,-2.24780273437,-0.69201660156,0.15932486439541185,0.2708508300762,-0.16174316406,0.68041992187,0.060689563609938324,0.34113037108979993,0.07763671875,0.61120605468,0.02176656850042448,1.4234236799787,0.90730746004,2.28795558282,0.15264518512023323,969.0864044820638,969.07489333132,969.10487739281,6.266164792463386e-05,0.00014964631313065603,Stairs Down
-0.38558105468369996,-1.75891113281,-0.01184082031,0.1668332119427256,0.22568725585569996,-0.08166503906,0.49780273437,0.020430887303606624,0.8428405761682,0.20935058593,1.22534179687,0.06655584482755728,1.0483837796389999,0.65950226979,1.81414658469,0.0627888073203191,969.132213311705,969.0946995204,969.16613132377,0.0005397763349665315,0.0004236185148259457,Stairs Down
-0.2730627441365,-0.54321289062,-0.13623046875,0.010825188549698491,0.4405883789016999,0.10083007812,0.68225097656,0.023158904127389086,0.850513916012,0.6005859375,1.20434570312,0.02814113253753963,1.0154017938447,0.78632252933,1.32602102014,0.02274593253584735,969.1845183928784,969.07239217373,969.62777471657,0.020564221751038635,-0.0016308079345934104,Stairs Down
-0.8731665039016999,-1.22766113281,-0.19006347656,0.08826062293342925,0.3131494140594,0.04382324218,0.60900878906,0.02047593632145215,0.3342089843715,0.11169433593,0.91088867187,0.07676159273507226,1.0656599538099,0.84016804311,1.39532224944,0.020393916781187755,969.1578323562803,969.12081787182,969.20025508879,0.0003007705056162454,-5.3410427117511185e-05,Stairs Down
-1.1172595214806,-1.36791992187,-0.89721679687,0.014705848541879646,0.22302856445010005,-0.01098632812,0.48254394531,0.022687391011073817,0.1654589843719,0.08972167968,0.26342773437,0.002059276152167331,1.1609975253912,0.90279727949,1.41293874104,0.016696960598696454,969.1555736299513,969.1512257004,969.16181019931,7.004263306283265e-06,-1.891366548391171e-05,Stairs Down
-1.1692590331997998,-1.49621582031,-0.81665039062,0.03711097446792357,0.1763024902312,-0.0234375,0.42553710937,0.01912791616221282,0.21943603515340002,0.10729980468,0.3759765625,0.005391432414190442,1.2123410796375997,0.82654417951,1.55048908585,0.03802480276896919,969.1564078285887,969.14389560785,969.16442958649,2.733080854448618e-05,-3.208566992318317e-05,Stairs Down
-1.0810388183561002,-1.56372070312,-0.73449707031,0.046305065099183605,0.20006347656069998,-0.18505859375,0.55090332031,0.04447540601035991,0.29214843749589997,0.103515625,0.54235839843,0.012373519690171983,1.1624709303032,0.8290829516,1.65626247869,0.04525739198892807,969.1855311499598,969.15149719232,969.22911560074,0.0005219055368944713,0.0007710141490174213,Stairs Down
-1.1230273437455,-1.6337890625,-0.64392089843,0.07679588647849438,0.1449926757789,-0.10400390625,0.37609863281,0.01950146802099204,0.22650634765269995,0.07275390625,0.38745117187,0.007302597742953142,1.1656437267939002,0.65623767023,1.66906829345,0.07813845582141292,969.2431155540825,969.22911560074,969.28056462904,0.00010681007117411282,0.0002900827643992806,Stairs Down
-1.1092431640587,-1.63073730468,-0.64636230468,0.07783202621659664,0.2156652832014,-0.11755371093,0.67895507812,0.03735285180135436,0.15132568359020002,-0.0107421875,0.400390625,0.016283712067851806,1.1610594781328,0.65275536759,1.68254967729,0.08275370336230682,969.3125737668424,969.27658947918,969.46010056608,0.0012808969091607763,0.0008685529604862292,Stairs Down
-1.0512646484344002,-2.26867675781,-0.275390625,0.2538435103679807,0.2044958496078,-0.30627441406,0.83837890625,0.06271188212497462,0.16572753906219997,-0.701171875,1.548828125,0.35945834520742426,1.2443524577758,0.56244581014,2.74420026938,0.29826473929966857,969.3911430054379,969.32197267602,969.43605435154,0.0008096420643266472,0.0007470820422822255,Stairs Down
-1.1510192871058,-1.40148925781,-0.90734863281,0.01977142100836839,0.131697998044,-0.07690429687,0.36120605468,0.016604877376808318,0.21151367187169995,-0.04760742187,0.35766601562,0.010915942890102177,1.1880749737204999,0.90900807958,1.46554395089,0.022449465704017225,969.4929632832493,969.4158819428,969.54416222769,0.0012564939279070338,0.0012076143994041054,Stairs Down
-1.0508654785126001,-1.43579101562,-0.8916015625,0.015675215015000923,0.08274780273219999,-0.2578125,0.34436035156,0.02320583771372358,0.1538842773398,0.03137207031,0.24401855468,0.0036945682522325518,1.0781795222947,0.92734161897,1.45668409164,0.014671319263593541,969.5661945999807,969.54416222769,969.5778688617,7.742421871739041e-05,0.00028766914137661945,Stairs Down
-1.0173181152294,-1.58386230468,-0.6533203125,0.08761376704076124,0.1262707519506,-0.2578125,0.35693359375,0.015827356292057847,0.13733398437240002,-0.03588867187,0.39367675781,0.014746693023501544,1.0479934563039002,0.6621284257,1.62517657604,0.08935022967116212,969.5922035065348,969.57069519484,969.61096534111,0.00016860778105662425,0.00041592929829466723,Stairs Down
-1.4255639648402,-2.06237792968,-0.67004394531,0.1759218909463521,0.1705297851546,-0.14050292968,0.56237792968,0.04655663713518231,0.3380688476527,0.03918457031,0.58312988281,0.03117616592637766,1.5008369874363998,0.68377825835,2.1083366028,0.17596975296977815,969.6322566201098,969.60686401179,969.67784929691,0.00022314779746964437,7.654532268976182e-06,Stairs Down
-1.2427233886677,-1.94580078125,-0.59265136718,0.16974957750849223,0.2309875488266,-0.0986328125,0.48754882812,0.04317224909942514,0.3013000488238,0.025390625,0.54528808593,0.022239943759068993,1.3242545122907998,0.59761114511,2.01782530076,0.16935204769436776,969.6170512277122,969.60288717251,969.6335036658,6.391921399016631e-05,-0.00014240161786200782,Stairs Down
-1.2966088867157999,-1.82836914062,-0.74694824218,0.11017301840614202,0.19680297851419998,-0.16687011718,0.54113769531,0.04437706545491117,0.3073937988232,0.15270996093,0.49475097656,0.009200073268460332,1.3645002951229,0.76298454944,1.93836133792,0.11582683351961594,969.6082736794486,969.59442195504,969.65268932443,0.00012718602314938668,0.000191220111395093,Stairs Down
-0.5800109863255,-1.80688476562,0.10412597656,0.3350986080855598,0.4834460449189,0.10559082031,0.92150878906,0.045156491794620106,0.46870239257399987,0.07788085937,1.09497070312,0.09247348793093245,1.0883547105544003,0.76276496051,1.84159597957,0.07404048621762144,969.6169914183239,969.58106791475,969.66109928349,0.0006448811556651928,0.00020433754698041904,Stairs Down
-1.1369726562477,-1.59008789062,-0.626953125,0.05795519089482488,0.1606018066375,-0.03002929687,0.40771484375,0.01806902204298511,0.12839233398039998,-0.03723144531,0.30297851562,0.00653572434566829,1.1652360564167998,0.6293921637,1.61320362412,0.05953901364508369,969.6350625462163,969.62305022854,969.65132740739,5.2008855032788266e-05,0.00015145136411664293,Stairs Down
-1.2316101074176,-1.74890136718,-0.88220214843,0.04884587555632198,0.27839111327719995,-0.1787109375,0.80834960937,0.06362998220006844,0.0670739746066,-0.24487304687,0.29443359375,0.013035165075585562,1.2931371478431002,0.96647186981,1.78993958624,0.051430521399369766,969.67464798049,969.63655910809,969.70437427343,0.0005546397382558047,0.0007768355604317297,Stairs Down
-1.2142712402301001,-1.88488769531,-0.74108886718,0.10158353131669227,0.12070068359199997,-0.43212890625,0.51733398437,0.061405769374290146,0.08524169921589998,-0.11413574218,0.28076171875,0.010308515995036942,1.2527012367177996,0.75390990656,1.91394371909,0.09958979514985848,969.7194661155696,969.69804585672,969.75439996906,0.0003396589431264365,0.0005915234376098345,Stairs Down
-1.1484582519502,-1.6455078125,-0.740234375,0.0627137467886103,0.06997314453049999,-0.61279296875,0.4296875,0.07072068391896598,0.10279174804380001,-0.068359375,0.27124023437,0.006297929495952791,1.1870272726649,0.77605547135,1.64570552645,0.06436366812280159,969.8009635536105,969.75439996906,969.83975276103,0.0007451004879917524,0.0009251946730430622,Stairs Down
-1.2356030273404,-1.67956542968,-0.60827636718,0.08345186343608202,0.2287731933565,0.01916503906,0.39660644531,0.014005736237609753,0.0585278320279,-0.01086425781,0.18981933593,0.002006317455204604,1.2613290117603,0.61973830535,1.72656610324,0.09090497408220109,969.8792349463489,969.83975276103,969.92104351623,0.00043502044818879954,0.0006858325995855608,Stairs Down
-1.183826904294,-1.82397460937,-0.81750488281,0.0627768602919251,0.15611572265339999,-0.10400390625,0.45886230468,0.0317548710584007,0.13015624999580003,-0.18518066406,0.47985839843,0.021230761787642244,1.2232944760281002,0.84532183361,1.83268780523,0.06152969770406928,969.9597066929002,969.92104351623,969.98788660636,0.0003274179980401322,0.0005732431932961748,Stairs Down
-1.2602368164032998,-2.06921386718,-0.55285644531,0.17127463161936865,0.17213134765570004,-0.21459960937,0.85144042968,0.08245158360902725,0.15362792968520003,-0.17517089843,0.634765625,0.0361612904184883,1.321535059588,0.55355932457,2.15468288224,0.18379928475943888,969.9976977099425,969.96354724553,970.03132475918,0.0005522067493609192,0.00037434828851637744,Stairs Down
-0.909082031246,-2.06921386718,-0.50671386718,0.16398493810155293,0.46895385741959983,-0.083984375,0.9931640625,0.08382698985442541,-0.40100830077829996,-1.099609375,0.50988769531,0.1700963768737195,1.2209329377214997,0.77402629019,2.15468288224,0.13152272786611063,970.0381234514385,970.01750888244,970.08650023755,0.0002749435542199802,1.7132038158831365e-05,Null
-0.9999926757775,-1.50964355468,-0.57885742187,0.0734362619755071,0.4637170410124999,0.09143066406,1.10266113281,0.06663521096365788,0.1155175781233,-0.54943847656,0.67590332031,0.09277344227906162,1.1669918188914,0.68849943948,1.76454245033,0.09798961343071226,970.0733003695942,970.02984515457,970.40400143379,0.005213770751679661,0.0012124034700542446,Null
-0.9423937988237,-1.25207519531,-0.59069824218,0.030160381666228957,-0.036231689451800005,-0.32507324218,0.24340820312,0.025410754419319986,0.29737060546590005,-0.04406738281,0.88818359375,0.0655179685472538,1.0350365983637002,0.76840699072,1.35464488779,0.026692462637704306,970.0185607301329,969.79747175728,970.40711949907,0.023678544343664735,-0.000578869218820343,Null
-1.0419116210894999,-1.25207519531,-0.78430175781,0.010815048524878119,0.22916015624699998,-0.05407714843,0.40148925781,0.014489458690829814,0.04900512695239999,-0.169921875,0.23107910156,0.013474117738190638,1.0805369402160003,0.8119670422,1.28046870833,0.011440874114425357,970.0546216711655,970.047422645,970.06089188216,1.4341118215164071e-05,9.663246390508066e-05,Null
-0.9972595214803,-1.05126953125,-0.93933105468,0.0009101184856872097,0.2413610839804,-0.02001953125,0.38110351562,0.00702521170470769,0.05465209960799999,-0.11901855468,0.2919921875,0.009038684432515808,1.0346127986425,0.94705281177,1.13671332944,0.002170918583927464,970.0561185036728,970.04959736136,970.05982763602,9.452432924690795e-06,4.395067573710335e-06,Null
-0.8290454101528999,-1.21423339843,-0.3916015625,0.07689885883002046,0.31382812499669993,-0.05432128906,0.56066894531,0.030343272251967444,-0.30911254882629996,-0.74340820312,0.25708007812,0.11101724775446534,1.0414601574812,0.84505351359,1.25881116328,0.012921694348880958,970.0531000136732,970.03531604627,970.08115267979,0.00013430540504395523,-0.00011926747394258797,Null
-0.8083508300739999,-1.28649902343,-0.16259765625,0.11817451844751409,0.5054931640588002,-0.10729980468,0.93395996093,0.06184244336448698,-0.11289428710970002,-0.6123046875,0.27648925781,0.10058346181485323,1.0884214191451,0.86110148832,1.37870608273,0.014982583021419693,970.0300829372057,969.98016122159,970.09851671522,0.000800006082391847,9.072056537848765e-05,Null
-0.9854431152301,-1.18432617187,-0.87646484375,0.005904427795307483,-0.045388183592099986,-0.35070800781,0.29321289062,0.03643447774120553,0.0711206054688,-0.27563476562,0.3193359375,0.028814330479246985,1.0219500590545998,0.92617111206,1.22660783817,0.004319334890607484,970.0503843121064,970.01797669623,970.10919970609,0.0006091982611351512,-8.23670074680919e-05,Null
-1.013488769527,-1.10192871093,-0.92028808593,0.002596248731371433,0.11231201171510002,-0.15246582031,0.26086425781,0.01180769994377814,0.1440295410115,-0.04357910156,0.306640625,0.01226929067798054,1.0410537785129999,0.92236814401,1.12855739549,0.003163151331435276,970.0607815100218,970.05368199207,970.0649656117,7.900943848545015e-06,2.0722910449063894e-05,Null
-1.0122863769497001,-1.11633300781,-0.88305664062,0.0038928167914342197,0.15301147460749998,-0.08483886718,0.3486328125,0.018321091615112684,0.15051269531069997,-0.0615234375,0.37036132812,0.02006244177738128,1.0527604864662004,0.93312753025,1.17462035625,0.004383067258687395,970.0640423802915,970.05890864534,970.07181160976,1.1745700334208427e-05,2.8131551322482044e-05,Null
-0.9548828124963,-1.12756347656,-0.86901855468,0.004013376404581295,0.0341760253917,-0.28308105468,0.56311035156,0.06744425810009598,0.23599365234169994,-0.12084960937,0.42333984375,0.01858567186636617,1.0260327585450002,0.88327705347,1.17976599552,0.004721684944346666,970.0728796041876,969.97182656846,970.15399770444,0.0025977874129874284,-0.00023073989695450827,Null
-0.9635229492145001,-1.10461425781,-0.75341796875,0.01202016237387428,0.1490112304664,-0.19775390625,0.34826660156,0.028016633306386464,0.34383666991799994,0.09484863281,0.61022949218,0.02968254814660147,1.0649826751423002,0.96289997212,1.21070915653,0.003675280896126037,970.034346216387,969.95904235128,970.23568150668,0.005185065311420917,0.0003528919133161839,Null
-0.9858251953074,-1.02868652343,-0.93786621093,0.0006983597109882733,0.24647094726250005,0.12231445312,0.34155273437,0.003056539157165799,0.15443115234029997,0.03491210937,0.25720214843,0.0027474332035454974,1.0304295363608,0.97109438649,1.10029845388,0.0011116199081560498,970.0564486714248,970.04670741195,970.06392494332,1.9899665383535363e-05,0.0001160841907287618,Null
-0.9981542968718,-1.33239746093,-0.71923828125,0.021852183004687113,0.20411010741749996,0.06701660156,0.35229492187,0.007744569144763935,-0.0173339843761,-0.20568847656,0.240234375,0.014952463934448896,1.0292807972081004,0.73960689833,1.35659091132,0.02319006843113643,970.0518665548236,970.04378963588,970.06098162266,2.69234125709219e-05,-8.290357746331504e-05,Null
-1.0880102539032999,-1.47229003906,-0.75073242187,0.025560152644919294,0.17446899413850006,-0.13464355468,0.36279296875,0.01700227982282978,0.12275390624709999,-0.12084960937,0.24914550781,0.00886734868490826,1.1201814648957,0.76968119946,1.51092143065,0.025639629348536246,970.0468208188256,970.04297194057,970.05368974462,6.751717922419305e-06,8.072993004877092e-06,Null
-0.5447509765597001,-1.814453125,0.23205566406,0.32504828891211,0.7267407226521,0.06762695312,1.22485351562,0.12072106486047884,0.2578234863245,-0.02233886718,0.50183105468,0.024265087341271425,1.1273123666192,0.69098330347,1.95592765376,0.08674704979257712,970.0334615125045,970.01062232115,970.05276853391,0.00012832192846077203,-0.00028796748019109216,Null
0.1865551757781,0.02209472656,0.32739257812,0.009247202048573936,1.0136047363231,0.72570800781,1.26110839843,0.015440526145381328,0.23759277343309995,0.04455566406,0.43957519531,0.011860232618106484,1.0662063699905004,0.76888544316,1.30614621169,0.01821634231450314,970.0140647482317,970.00861658734,970.02907328056,1.679554469613938e-05,-4.254945911955643e-05,Null
0.14339965819910003,0.07250976562,0.22290039062,0.001655987373192906,1.0304125976524001,0.830078125,1.55480957031,0.02221302041499885,0.16053222655959998,-0.00769042968,0.36535644531,0.008998433652505656,1.0561134152124,0.85210060476,1.58437130079,0.023064828697200696,970.0189353310932,970.004599569,970.13472639348,0.0005006795239784161,0.00036874973398769585,Lift Up
-0.06372070312480001,-0.78649902343,0.486328125,0.20926438678181777,0.8388427734344001,0.35607910156,1.08264160156,0.038682884639913116,-0.06885742187439998,-0.33520507812,0.33703613281,0.027919209267686432,0.9702767788276002,0.51327933335,1.33153384813,0.04457541358132516,970.0189034044256,969.88654021229,970.17631708437,0.005648017519352791,-0.0012086657078243697,Lift Up
-0.8171289062463998,-1.04626464843,-0.68896484375,0.007460602509786835,0.5987207031212001,0.33081054687,0.79577636718,0.014535171238787567,-0.010766601562,-0.09033203125,0.05578613281,0.0013729851652857187,1.0234321526592,0.94468482908,1.12688861047,0.002023989604110216,970.0366337509128,970.00024521521,970.05785178112,0.00016621203935792295,0.00040801631723830364,Lift Up
-0.9853027343716001,-1.18200683593,-0.79699707031,0.008326057231698021,0.17829589843479993,-0.00659179687,0.3603515625,0.008173365785624559,0.14139160156199998,-0.07373046875,0.49670410156,0.0346168984299244,1.0331250854687997,0.9093376129,1.21821776408,0.00591940076554032,970.0486301388867,969.95455170666,970.22562666758,0.004118670909998992,-0.0006844681588747601,Lift Up
-0.6678601074185998,-1.03759765625,-0.28393554687,0.08779906802015139,0.7038745117144998,0.03857421875,1.4521484375,0.11335552251116472,0.0577319335949,-0.13098144531,0.5703125,0.04109021564218315,1.0672155161516002,0.74421279036,1.50518808604,0.04614427037878843,970.0488173223582,969.99570434928,970.08051096712,0.0006006875958270787,-0.0003106252116748308,Lift Up
-1.0010192871049,-1.09838867187,-0.95910644531,0.0010628370248338026,0.18473388671579996,0.07763671875,0.34851074218,0.003753593539888345,0.17870605468330003,0.1171875,0.21484375,0.0004585282730369322,1.0352095664276002,0.99205751393,1.16044990599,0.0016822614819312002,970.0442417593138,970.0145907112,970.05731693278,0.00013794723571810435,0.00036572890007402525,Lift Up
-0.9947155761680999,-1.02880859375,-0.97180175781,0.0002294815835697866,0.10522827148219999,0.015625,0.2041015625,0.0029624846411411758,0.12720336913690003,-0.00158691406,0.19702148437,0.004374861227897391,1.0119836997011,0.97771722806,1.04116926795,0.00023985468453463675,970.0535824529173,970.046024452,970.06388890367,1.7457716571358686e-05,1.0589779799163101e-05,Lift Up
-1.0090332031219997,-1.03295898437,-0.99206542968,0.00011516941916575421,0.08900878905760001,0.05419921875,0.11560058593,0.0003034342177822621,0.06332031249720001,0.03698730468,0.0966796875,0.0002718206849037287,1.01520551499,0.99740289415,1.03730412897,0.00012253930958947543,970.0445348118841,970.03703501727,970.05306434353,2.6109697990257606e-05,-0.00012931779196084203,Lift Up
-1.0093359374963997,-1.03588867187,-0.98974609375,0.00018392562866381785,0.13258789062120002,0.11389160156,0.15173339843,7.466918289030639e-05,0.0640039062468,0.04211425781,0.08679199218,0.00016847610470974988,1.0201359942891997,1.00174028244,1.0501131465,0.00018225943328835015,970.0403820077695,970.03465757162,970.04360348112,6.684102178295352e-06,6.982009594423559e-06,Lift Up
-1.0363916015588002,-1.06420898437,-0.98803710937,0.0005580539896330847,0.153867187496,0.11169433593,0.205078125,0.0007044475728880653,0.10116699218320001,0.06958007812,0.1337890625,0.00047357308746931415,1.0532617579831998,1.01270200751,1.07930412635,0.0003796025772079029,970.0041171744765,969.9383137049,970.04147811323,0.001046552077465782,-0.0010772397049012526,Lift Up
-0.9882226562468,-1.03283691406,-0.93676757812,0.00030413796204209183,0.18755371093360002,0.05310058593,0.23803710937,0.00239028843961653,0.06263671874599999,0.00854492187,0.10876464843,0.0005369250461101198,1.009152513256,0.94305324918,1.0541580708,0.0004990043031630325,969.82343504387,969.72210140743,969.9383137049,0.003996660200436287,-0.0021714759459451134,Lift Up
-0.8291259765595999,-1.04455566406,-0.67749023437,0.014129786780420456,0.49322753905919997,0.08410644531,0.71447753906,0.03553089483806111,0.1284179687468,0.00720214843,0.25256347656,0.002770516607624067,0.9970025547352,0.84829764996,1.11789533559,0.0051588455412210805,969.641274247587,969.5976145252,969.72210140743,0.0012662867286108732,-0.001180821177782921,Lift Up
-0.9356542968703999,-1.00952148437,-0.67810058593,0.010196715075670784,0.33260253905839987,0.17761230468,0.62622070312,0.0201649216933268,0.15982421874759997,-0.00805664062,0.236328125,0.00602471168581249,1.0222588688003997,0.92156357273,1.10890934802,0.0026530134021771866,969.5942659630833,969.58931265129,969.60100325592,8.596530578889315e-06,4.161288486716886e-06,Lift Up
-0.9774121093703999,-1.23315429687,-0.64904785156,0.00942689780033667,0.2911328124968,0.17492675781,0.81359863281,0.0327411281700855,0.1522021484348,-0.25573730468,0.25012207031,0.013517715328348837,1.0494688331516,0.80544502748,1.48047111531,0.017174032502497417,969.5933684706674,969.58963936147,969.5960102311,3.080312153604945e-06,-7.43775175403593e-06,Lift Up
-0.8411621093716,-1.5244140625,-0.24682617187,0.14986903258056072,0.25543945312239996,-0.08361816406,0.64697265625,0.0435073521159128,-0.14628906250039997,-0.93530273437,0.32775878906,0.1879045577929967,1.0522569400611999,0.52855173848,1.66448264123,0.0650777408281874,969.573846285355,969.53784121364,969.59744229776,0.0003018858281360937,6.18954341641599e-05,Lift Up
-1.0266162109339998,-1.33178710937,-0.91674804687,0.01239525366289855,0.13277832030960002,-0.08654785156,0.26684570312,0.010047683233752982,0.1417431640596,-0.03259277343,0.26281738281,0.008479422607392274,1.0531170700599999,0.92768286311,1.3645114813,0.013353155668792952,969.5868192908166,969.57965844226,969.59368229252,1.1983727849528747e-05,6.581198398646167e-05,Lift Up
-1.0741210937463999,-1.37976074218,-0.83544921875,0.016551453657794573,0.19619140624639997,0.0458984375,0.38781738281,0.011955355153002514,0.13562988280879998,-0.03771972656,0.27160644531,0.008603592015331119,1.109335281884,0.87758161966,1.4205561904,0.01690624869914647,969.5910966304996,969.58349254721,969.59718758394,1.539604711039703e-05,-5.929754347109547e-07,Null
-1.2411718749952,-1.72973632812,-0.73425292968,0.06557281657891519,0.2039013671836,-0.05554199218,0.56311035156,0.031137502409786928,0.29216796874639994,0.14562988281,0.55639648437,0.009533588428731402,1.3044695374588,0.76073636994,1.84790343875,0.07170323936160312,969.5907058278675,969.58546889527,969.60162227227,1.6136370906546957e-05,3.5456927302986534e-05,Null
-1.0342480468716,-1.26708984375,-0.92907714843,0.008684761692818914,0.22764160155920002,0.03527832031,0.3857421875,0.010625463158004625,0.16195312499600004,0.00744628906,0.23852539062,0.0032180529893410872,1.0780865726412001,0.98428378363,1.27602807511,0.007829164510804097,969.5940169055716,969.58372822507,969.60291111518,2.7679901399309145e-05,0.00014218960996444682,Null
-0.9809277343720001,-1.14489746093,-0.81994628906,0.00620118810656506,0.32731445312159996,0.05102539062,0.94201660156,0.061235540900324306,0.1427099609352,-0.14331054687,0.2509765625,0.0110135884231882,1.0731262506268002,0.8263311751,1.38268269182,0.015945422930929626,969.6004169105967,969.59080397333,969.60508571122,1.4960572851085936e-05,-4.105417285372119e-05,Null
-1.0362353515584,-1.66198730468,-0.51989746093,0.08672373665708868,0.38971679687199995,0.0556640625,0.82287597656,0.03612296277841873,0.0082861328124,-0.22595214843,0.28686523437,0.0264847065694167,1.1403720015908,0.64800122533,1.70250186982,0.0738599348654339,969.5884791624791,969.57904205587,969.60132368269,3.347623916830517e-05,4.54951895187927e-05,Null
-1.018164062496,-1.13647460937,-0.87243652343,0.005298477230781003,0.21989746093359996,0.03881835937,0.46374511718,0.016546513095041196,0.0340966796856,-0.1123046875,0.28735351562,0.010506758448640062,1.0540236451143996,0.87661174085,1.17420200099,0.007311032199061703,969.5916557756361,969.58540096733,969.59964023781,1.2836149214928447e-05,1.434033445066781e-05,Null
-0.6526123046847999,-1.51672363281,0.37231445312,0.2915027924228895,0.5929394531216,0.0908203125,0.95678710937,0.05442429417300963,-0.0186181640636,-0.56237792968,0.40014648437,0.05868779663944847,1.0523801738548,0.61496971129,1.57689090196,0.07160742970458502,969.5964920125933,969.57922169017,969.61997516762,8.472714408169904e-05,2.3762750390171486e-05,Lift Down
-0.21507202148469998,-0.70520019531,0.22985839843,0.106599938583233,1.0181909179649997,0.44958496093,1.53820800781,0.055866279379610646,-0.13620483398110003,-0.41845703125,0.5234375,0.06232759515801149,1.1262599601284002,0.54164414786,1.73105503337,0.05616651904408481,969.5717884793083,969.51208672611,969.65100261759,0.001290262956017451,-0.00048804518672775706,Lift Down
-0.8426904296836,-1.04504394531,-0.69677734375,0.009226167707510542,0.5659619140579999,0.20617675781,0.81213378906,0.03420290306389171,0.0169628906252,-0.08630371093,0.10131835937,0.0033040654533760478,1.0366191875783997,0.90934138186,1.12228679643,0.002438639304162978,969.5967395325727,969.58096900361,969.60794533744,7.12933002973154e-05,0.00027573252458745767,Lift Down
-0.9973974609339998,-1.04174804687,-0.9365234375,0.0005146093079369575,0.1573730468708,0.00134277343,0.30981445312,0.007986780369061893,0.065273437498,-0.08654785156,0.14404296875,0.005453552284307983,1.0182491694964002,0.95825448005,1.05773920146,0.0008208221851631354,969.608275721698,969.60265139194,969.6135604079,7.181347762271076e-06,3.171556787340403e-05,Lift Down
-0.561674804684,-0.96069335937,-0.17785644531,0.05727562793535343,0.7319433593715999,0.34619140625,0.95812988281,0.028015177562490386,0.27087890624600003,0.07336425781,0.38305664062,0.005865073541300445,1.0026431385624,0.82642768164,1.15256630639,0.009642531654763385,969.6046780278493,969.58988869018,969.61510668774,5.806228525699099e-05,-0.00021644848427533107,Lift Down
-0.5890429687463998,-0.78979492187,-0.41760253906,0.013534246165105318,0.7567138671839999,0.51159667968,1.00109863281,0.013778272301171873,0.33532226562159984,0.27282714843,0.42468261718,0.0018696971372995992,1.0260425670428002,0.87931355681,1.22292114776,0.008237941116152349,969.599561018085,969.57662914542,969.61135637967,5.434863815786935e-05,5.70610320268496e-05,Lift Down
-0.966958007808,-1.14440917968,-0.73962402343,0.014097040012778103,0.12563476562439999,-0.17578125,0.62487792968,0.05326941278100076,0.31768554687199996,-0.0068359375,0.67150878906,0.029424417042818216,1.0662395346176003,0.86373219859,1.28942746862,0.010780005908550671,969.723082093536,969.57662914542,970.10837157065,0.03807999757151306,0.00515112948161021,Lift Down
-0.9803759765583999,-1.0625,-0.78833007812,0.0038083096705896317,0.10038574218600001,-0.24145507812,0.34899902343,0.028721859815465187,0.2530419921836,0.13916015625,0.63000488281,0.017526579529331492,1.0405585259980001,0.94955878583,1.10463321099,0.0020593312670392125,969.5042909760924,969.11526186523,969.79910247235,0.02063614723099843,0.002974820963054157,Lift Down
-0.8050390624964001,-1.07165527343,0.09118652343,0.1280764610104787,0.3424511718711999,0.10168457031,0.79187011718,0.06222904075243466,0.16750488280839995,-0.09741210937,0.52575683593,0.023753804389635445,0.9837669895143999,0.42895002367,1.24716940107,0.03791899642268661,969.6001206126302,969.58632070969,969.60510992788,2.4371527734665837e-05,-0.00010045450773873919,Lift Down
-0.4785791015615999,-1.57153320312,0.12573242187,0.3715998995388005,0.6312158203079998,0.10131835937,1.37561035156,0.12478783626775056,0.22559570312120003,-0.09741210937,0.40246582031,0.007771790533153041,1.0472460036388003,0.42895002367,1.66014749412,0.08157427117708961,969.6012238107828,969.56417328843,969.67757733967,0.0013273178778935926,0.001093876314146643,Lift Down
-1.0020947265584,-1.14440917968,-0.90100097656,0.0031942414273854166,0.22603027343360005,0.10864257812,0.42565917968,0.007400999021040974,0.16461914062040006,0.06762695312,0.29443359375,0.0035663169803719016,1.0442084634804,0.91746427593,1.23701121305,0.006092539003182805,969.7988093722521,969.69111372987,969.89945561633,0.004045266531847612,0.0021827018424510516,Lift Down
-0.8856787109335997,-1.01123046875,-0.65625,0.019711902791660865,-0.0134863281252,-0.44580078125,0.20056152343,0.05552282251378661,0.3756152343703999,0.12292480468,0.69897460937,0.04437390298584041,1.0206869862627999,0.86562175991,1.1258433479,0.0023293761830777784,970.0290347118868,969.91396486374,970.19913806318,0.006666609983669946,0.0022721836116870553,Lift Down
-0.8487695312468,-0.97741699218,-0.69006347656,0.00987888986425162,-0.04131835937440002,-0.36975097656,0.33374023437,0.06346049949220514,0.4714257812455999,0.18127441406,0.59289550781,0.0178111899021809,1.0167334334091997,0.96812859724,1.09132201594,0.0008599899708578948,970.2057530568821,970.0758267362,970.34381559907,0.005909402707165894,0.0026333358274705817,Lift Down
-0.9523535156207998,-1.126953125,-0.79089355468,0.005774018403425751,0.3702392578092,0.27844238281,0.59729003906,0.007086233659194682,0.1637499999968,-0.04345703125,0.2841796875,0.008471823798149316,1.0416322542607999,0.88710387516,1.27619248167,0.00705999113481018,970.445442217055,970.34381559907,970.53849395904,0.0034401527458771146,0.001987673662166781,Lift Down
-1.0017919921836,-1.09252929687,-0.87744140625,0.001929040773931786,0.21898925780840003,0.09204101562,0.29528808593,0.0022009279751410184,0.19118164062200002,0.041015625,0.31506347656,0.00344164405193465,1.0459587086543998,0.95075914017,1.12860156768,0.0015759462787988162,970.5884844784139,970.53849395904,970.60972637594,0.0003971909695064439,0.0006277178637452151,Lift Down
-0.9950927734331998,-1.21691894531,-0.95935058593,0.003993471463571441,0.30770019530840004,0.22607421875,0.923828125,0.028322425418667606,0.18172363280920004,0.09716796875,0.38256835937,0.0021947438306921373,1.0658329670164,1.00775537402,1.47356751375,0.016240542809448172,970.616934401033,970.60972637594,970.6320412579,3.0285431987644145e-05,0.0001584467656436729,Lift Down
-0.2317724609384,-1.92565917968,0.46618652343,0.5506840639843542,0.6710644531219999,0.30456542968,0.94714355468,0.04619065063164499,0.134653320312,-0.09887695312,0.4921875,0.03819909832592584,1.0073846118019998,0.35016392036,2.07300048008,0.13745132250592842,970.5814918926886,970.54632049071,970.61419905534,0.00030292532507890466,-0.00032555035525050216,Lift Down
-1.01990722656,-1.18322753906,-0.93615722656,0.0032253288499957578,0.16430664062200007,0.06079101562,0.2763671875,0.0027304923895912743,0.1493457031212,-0.00476074218,0.34753417968,0.006752965522396885,1.0474950588264,0.96701733936,1.24384115019,0.004896325867489195,970.614931163587,970.59866756044,970.62197792575,3.716925830870506e-05,0.00012554216790528256,Lift Down
-0.9973242187464001,-1.11340332031,-0.86938476562,0.003135924291165435,0.19113281249719996,0.02502441406,0.25720214843,0.002385010960096011,0.0803124999992,-0.05419921875,0.17822265625,0.005182273363430678,1.022180732524,0.90113410953,1.14738339425,0.0034143167179510945,970.6161404292923,970.61029825151,970.62522773118,1.797844508439624e-05,0.00011380225583008248,Lift Down
-1.1124853515595998,-1.54248046875,-0.85888671875,0.031783592966309004,0.20266113281160003,-0.16137695312,0.611328125,0.04398711401966388,0.1690722656212,0.03637695312,0.330078125,0.00845435951694024,1.1649562436252001,0.87967558356,1.59303903616,0.033879181272551885,970.6160804057128,970.60764577582,970.62499697722,3.032360452479048e-05,-0.00016705865132746203,Lift Down
-1.0174999999952,-1.29296875,-0.80261230468,0.022083707385543605,0.3186376953084,0.07885742187,0.564453125,0.027644135157494344,0.09884765624719999,-0.11975097656,0.31115722656,0.017531289331140863,1.0925715808771999,0.91350481349,1.42332219265,0.019677748712703766,970.6157903575748,970.61153490019,970.62204923349,9.095238019680424e-06,5.8429646251108175e-05,Null
-0.9159912109335999,-1.07873535156,-0.68676757812,0.012535455250956545,0.42895019530839995,0.12280273437,0.65734863281,0.02998947914225131,0.11080566405879999,0.00927734375,0.23510742187,0.004744448469267767,1.0387527135135999,0.94097140862,1.13736851136,0.0031369221748748077,970.6143490182839,970.60631090087,970.62098845955,1.4046888225630305e-05,4.6463879950328415e-05,Null
-0.7490771484331998,-0.84594726562,-0.60632324218,0.005191492408057872,0.6944287109339998,0.53088378906,0.88671875,0.011836138975590335,0.0534472656244,-0.06677246093,0.23034667968,0.010395668587766062,1.0345058539744003,0.90987574466,1.14622602525,0.0031829536798876792,970.6123129558482,970.60734645744,970.61855189962,7.883371120981228e-06,3.591284580256666e-05,Null
-0.7534863281211999,-0.80065917968,-0.68420410156,0.000593224053424856,0.6794433593724,0.60888671875,0.79479980468,0.0015561676988217626,-0.1074218749972,-0.17810058593,-0.01684570312,0.001510812778674539,1.0217403734808002,0.98283223706,1.0928437293,0.0006006021966536735,970.6125729785423,970.60858331827,970.61835235265,7.244996694576073e-06,-6.147879991249872e-05,Null
-0.8748681640575999,-1.02038574218,-0.69458007812,0.013766134531805066,0.4516748046836,0.134765625,0.71264648437,0.04980689145086454,0.0181347656256,-0.13562011718,0.17041015625,0.009899961923686959,1.0200881402839996,0.9400419979,1.12837768509,0.001910856034151335,970.6147167226067,970.60659229117,970.62121601662,2.3870684956823116e-05,0.0001448629172096506,Null
-0.9900048828083999,-1.09509277343,-0.87963867187,0.0011662393145828627,0.22361328124720004,0.17517089843,0.30700683593,0.000733437778971441,0.1376367187456,-0.04040527343,0.17077636718,0.001801406638611355,1.0252783178099998,0.89782048475,1.14398853597,0.0015402806111455003,970.6271442824959,970.62006146208,970.63485581503,1.6714907683482693e-05,0.00012740034965959995,Null
-1.0212939453084,-1.30041503906,-0.83642578125,0.014301739654077692,0.31476562499640004,-0.02221679687,0.60266113281,0.03498814573161951,0.14186035156,-0.10534667968,0.42602539062,0.015681822275568347,1.0996248711424,0.85246663698,1.41406451272,0.017565872827556037,970.6239774680205,970.6147361989,970.63363364791,3.3847675759951234e-05,-0.00012065950306706828,Null
-0.5893701171856001,-1.2333984375,0.05139160156,0.12581672490206575,0.7211035156215999,0.18334960937,0.96716308593,0.04964616867068412,0.09354980468639998,-0.12512207031,0.30688476562,0.019893422126010144,1.0268553438563996,0.84307489053,1.35142033992,0.015222057136663277,970.6306777649733,970.57205037342,970.72638972463,0.001899642194521387,-0.0003952231866421322,Null
0.038857421872,-0.07360839843,0.14562988281,0.002801988726688235,1.0102343749959999,0.88842773437,1.08129882812,0.0018515715454564831,-0.03931640624879999,-0.16882324218,0.0703125,0.007180672606387554,1.0167633889084002,0.91112578819,1.08969679221,0.0015528009930606288,970.5930212777604,970.57563409239,970.61999226463,0.00014490703787775792,2.7384741071795103e-05,Lift Up
-0.5099072265615999,-0.81616210937,0.07153320312,0.11902576826927966,0.7786425781211997,0.47131347656,1.08703613281,0.03538480055447154,0.24498535155959997,-0.02453613281,0.43139648437,0.019504946794940952,1.0391303487723997,0.77402915865,1.35814212928,0.018880752893129644,970.6053745309712,970.53261539869,970.69321109294,0.0018688050263372278,-0.00011078141695654337,Lift Up
-0.8222900390587999,-1.15686035156,-0.06945800781,0.06217570858775907,0.5838720703092,0.25622558593,1.24597167968,0.06811781473801559,0.23285644530879998,-0.1962890625,0.41967773437,0.016241098991137147,1.0934550206376,0.81194163356,1.40098938318,0.020924263516807602,970.6286783841622,970.617606857,970.67835643494,0.0002480784146935506,0.0002749169507418814,Lift Up
0.2807910156214,0.03332519531,0.51806640625,0.016477105930544744,0.9460229492154,0.6015625,1.11206054687,0.012998531075407384,0.044376220702500004,-0.26318359375,0.28662109375,0.029372396027630716,1.0093925675467998,0.65030073856,1.1858397598,0.01531157691110441,970.6943473200758,970.46617531489,970.85629874672,0.008713080885220057,-0.0009087318878116111,Lift Up
0.273413085934,0.2099609375,0.39013671875,0.0021108003578164205,0.9752050781216,0.91882324218,1.01867675781,0.0007220835637512802,0.0058593750008,-0.05200195312,0.06335449218,0.001293784439872159,1.0146432155468004,0.97247415393,1.04848318981,0.0004025646985412801,970.6123668697162,970.3653771924,970.8625414913,0.011739637330923466,0.0012244567863439466,Lift Up
0.24849121093399995,-0.25268554687,0.39978027343,0.019801865779693086,0.9094189453083998,0.55114746093,1.01208496093,0.01637351450282343,0.07803222656200001,-0.05310058593,0.65319824218,0.03421418146535112,0.9773283837248,0.68666742586,1.05415688341,0.009489520077445246,970.4383121809083,970.09650287452,970.93343918502,0.06277426355213471,-0.005719962800219726,Lift Up
-0.9064111328083999,-0.95617675781,-0.66821289062,0.003812075528274569,0.44868164062239985,0.28967285156,0.86193847656,0.029488697196633683,0.27002929687200006,-0.009765625,0.55249023437,0.02712037698164785,1.0706842745508003,0.98354905915,1.30656205355,0.009357878705879777,970.5532298115373,970.33643042523,970.61996214537,0.0038969464048476486,0.0018374745980543788,Lift Up
-0.32809570312039993,-0.69372558593,-0.11962890625,0.03121519122414708,0.42768066405880006,0.30249023437,0.61572265625,0.005424996915530494,0.8277197265595998,0.57250976562,0.95434570312,0.006242739696685601,1.0086158437836001,0.95726711714,1.06835049027,0.0008340048282968714,970.6386424171028,970.5457960256,970.76391258059,0.002456999665044572,-0.0013250022909002072,Lift Up
-0.48006835937200004,-1.00500488281,-0.22021484375,0.053087353128332494,0.8013037109332,0.466796875,0.8955078125,0.009300215701855866,0.4082958984343999,-0.01098632812,0.73828125,0.042674364803012906,1.0661007310588,0.96172730622,1.354253576,0.006767023269161864,970.5692823902683,970.49948072536,970.63503816036,0.0016824750204393031,-0.0009589561622428293,Lift Up
-0.7754492187463998,-1.0771484375,-0.50769042968,0.031752910421350644,0.6022363281224,0.12353515625,1.11022949218,0.0854459797731352,0.1987011718732,-0.08532714843,0.47192382812,0.03057775145753613,1.0664498118572,0.83211382603,1.32420278781,0.012601934842539984,970.4211360445812,970.28666065117,970.52551950783,0.003110698695723304,-0.0008251401574483598,Lift Up
-0.5372363281223999,-0.56115722656,-0.50756835937,0.0003450669182654435,0.83668457031,0.78674316406,0.91162109375,0.0016249566607891169,0.0491650390604,0.005859375,0.08740234375,0.0004915219124115904,0.9964710263167998,0.96871772066,1.04502135899,0.0005692598601754938,970.1700352015728,970.1034754502,970.28666065117,0.002953617844438692,-0.001803462156993249,Lift Up
-0.5640624999959999,-0.57653808593,-0.54846191406,7.555821929556798e-05,0.827636718746,0.80065917968,0.85119628906,0.00025254066545997086,0.08339355468400003,0.07299804687,0.09375,2.950451590866182e-05,1.0050693872315997,0.97694292669,1.03103579117,0.00029604171597559856,970.0701180651417,970.05617274829,970.08895203912,7.800181304671857e-05,-0.00028249085885745904,Lift Up
-0.5585546874979,-0.57470703125,-0.53942871093,8.744328915105105e-05,0.8488964843708999,0.82824707031,0.87036132812,0.00014950431957504883,0.08297241210680002,0.06640625,0.09704589843,6.45847317364749e-05,1.0196661721393,1.00102382641,1.02990274856,6.758164708019013e-05,970.0579483841917,970.04751897294,970.06703341593,3.601380338926845e-05,-0.00014878309995693177,Lift Up
-0.5615332031224,-0.59912109375,-0.54248046875,0.000231528426671946,0.8553857421832,0.82897949218,0.87487792968,0.00013026170057296006,0.07430664062119999,-0.02478027343,0.10217285156,0.0008102469009582977,1.0264630885711998,1.01141972338,1.04494290197,6.022973476996319e-05,970.0530932833254,970.04535731791,970.0632252177,2.8069385183010215e-05,2.7659561877645415e-06,Lift Up
-0.6422607421836,-1.03564453125,-0.45971679687,0.037520409834590256,0.7409814453087997,0.31860351562,0.9365234375,0.04816876796816079,0.06174316406,-0.04162597656,0.14416503906,0.002313019049075669,1.0253802551551998,0.97323734283,1.0955836933,0.0010930189614362061,970.0481449174597,970.00789251272,970.06624638181,0.00031031034352509,0.0005244125789085581,Lift Up
-1.0623144531216,-1.24963378906,-0.82971191406,0.01689917044200941,0.210307617184,-0.0029296875,0.36303710937,0.012154935200842563,0.17562988280840003,-0.00451660156,0.33544921875,0.00808628433882495,1.1056627359576,0.85932272838,1.29058143251,0.018046512412399723,970.0674539636274,970.05407641213,970.07581940774,2.2636663071100012e-05,-1.7892495314333152e-05,Lift Up
-1.1479736328092,-1.8330078125,-0.5947265625,0.08216838884861702,0.28009277343399996,0.064453125,0.49206542968,0.018794813685875905,0.109467773436,-0.52465820312,0.39855957031,0.04229440024300012,1.2133844861348002,0.72573897132,1.93930290539,0.07858760841331901,970.0636444581226,970.05773775029,970.07420729137,2.541062812154243e-05,-5.5686793078143923e-05,Null
-0.255180664058,-0.5869140625,-0.05456542968,0.02952542218319041,-0.012060546876,-0.23400878906,0.26098632812,0.018781711356081,-0.9009912109352001,-1.08117675781,-0.56201171875,0.01612733580837975,0.9655741993728002,0.68902618978,1.08277931245,0.00859028327232865,970.0225557170851,969.9866107835,970.05891648144,0.00044110077072805894,-0.0007041611090681369,Null
-1.0169921874944001,-1.29431152343,-0.759765625,0.012719054414615747,0.36655761718359997,0.1337890625,0.65600585937,0.02000774961553676,0.06500488280960001,-0.54138183593,0.28332519531,0.03249584197887396,1.1055094360572,0.96505990483,1.41500077811,0.015436906334817991,970.0206665611274,969.98769527561,970.0369881489,0.00022209710334283425,0.00046976004826127703,Null
-0.977297363278,-0.98742675781,-0.96923828125,2.024570498741135e-05,0.24978637694900008,0.22900390625,0.28869628906,0.00026534373563363823,0.1266333007778,0.10559082031,0.1455078125,9.5937824006039e-05,1.0168117415240998,1.00861549176,1.02636413138,2.340141024887999e-05,970.0421809269365,970.03692471523,970.04855805599,1.1987957044848423e-05,6.435302729677134e-05,Null
-0.9718725585900999,-0.99182128906,-0.87353515625,0.00031910014273186073,0.2793054199176,0.22924804687,0.42053222656,0.0012397417682192457,0.1123486328077,0.07409667968,0.18530273437,0.0003231407175048281,1.0182707148364,0.98704008335,1.03687073859,0.00015951225990933345,970.0403481498978,970.03717129626,970.04447595044,5.436884027598414e-06,-2.6467470004435635e-05,Null
-1.1347558593714,-2.16796875,-0.44946289062,0.21722571647539662,0.37622802733979993,-0.15649414062,1.15234375,0.11382947480368578,0.16413330077990002,-0.2177734375,0.49291992187,0.03707080693480547,1.2745964439225,0.48316411976,2.22401728801,0.1979866391211079,970.0278277456054,969.97109713226,970.11545843664,0.0007413387061748001,-0.0002407190094247402,Null
-1.3045666503867002,-1.8203125,-0.74609375,0.07464581953614174,0.26095336913839995,-0.169921875,0.69226074218,0.06744566946678607,0.3410986328075999,0.15698242187,0.56262207031,0.013484833842552148,1.4009847112529996,0.76243131515,1.90277646918,0.07838533527649011,970.0033302765254,969.96054382403,970.02592034481,0.0003599838577714835,0.0005136258305987913,Null
-1.102446289058,-1.64904785156,-0.61169433593,0.08411787408826908,0.3143212890608,-0.08032226562,0.73498535156,0.06790989447061906,0.17945800780879995,0.041015625,0.32385253906,0.006385163008585595,1.2012514387448001,0.74836181504,1.68678283463,0.060822881559217716,970.020193170943,970.00872478973,970.03028368395,4.9501922625222016e-05,9.159958211344869e-05,Null
-1.2331640624956,-2.42053222656,-0.68005371093,0.1931923060945037,0.36815429687359985,-0.12829589843,1.24499511718,0.1290419413813471,0.2725146484344,0.03186035156,0.60034179687,0.030424031440890804,1.3606053587923999,0.69437986682,2.55218956817,0.23068704919668323,970.0814130001081,970.029191958,970.1263166738,0.000697603494339788,0.0008828301028441941,Stairs Down
-1.2005664062455998,-1.86303710937,-0.59729003906,0.11940013697622792,0.2343566894507,-0.11047363281,0.59814453125,0.043941131858077916,0.2683752441374,-0.02624511718,0.85888671875,0.06656747317495944,1.2917285659446003,0.59867897291,2.02389973254,0.13800564558094147,970.1498776211807,970.1263166738,970.19619186299,0.00047434773421881,0.0006914461766077415,Stairs Down
-1.3014538574181997,-1.75317382812,-0.82409667968,0.08313533558304426,0.2281213378887,-0.64135742187,1.22094726562,0.20957995871315194,0.26289916991949996,-0.2275390625,0.63488769531,0.04968930827648972,1.4369222203088003,0.9309389763,1.90487133653,0.09007328349428932,970.2364640978126,970.1904187169,970.28091982014,0.000960623809862648,0.0010066770564993686,Stairs Down
-0.5319189453093,-1.32336425781,0.08581542968,0.12188124610846408,0.9716723632768998,0.29040527343,1.64343261718,0.09876780552741138,0.03197631835829999,-0.73352050781,0.57800292968,0.13486337522320846,1.2255132383043998,0.694319305,1.76715826032,0.07897175374207947,970.3974536492658,970.18095138531,971.15092191472,0.05542087407013608,0.002291017596344404,Stairs Down
-0.9649560546834999,-1.37878417968,-0.54174804687,0.0673550348331291,0.5709399414018,0.18420410156,0.98645019531,0.046431523085715125,-0.05410156249980002,-0.498046875,0.09460449218,0.01933582744162049,1.1433490782891,0.65411800387,1.64507215488,0.08543801000653656,970.3657193623204,970.1942116617,970.45861174841,0.007976849946077651,0.002928377128876136,Stairs Down
-0.6265014648409,-2.05969238281,0.01513671875,0.3167545998636223,0.5684106445264999,0.04870605468,1.00268554687,0.054975815246948626,0.2585534667933,-0.0546875,0.72473144531,0.06401886851328323,1.0304643993252998,0.47440811096,2.10892104103,0.15351470097216272,970.518661056016,970.39287307825,970.66250315217,0.005369672303230099,-0.0005193598229810753,Stairs Down
-1.1573498535120998,-1.43237304687,-0.91125488281,0.025696692892746058,0.2726135253888,-0.18664550781,0.5634765625,0.04332977695035981,0.21751708984079998,-0.20751953125,0.53308105468,0.0350894456854021,1.2410495823618999,0.9610787032,1.52920926112,0.02420322476137455,970.5689792083759,970.50918044311,970.59580350246,0.0005276928742446924,0.000709572553739974,Stairs Down
-1.009310302731,-1.21008300781,-0.88037109375,0.005349531274540049,0.24410522460479997,0.01733398437,0.474609375,0.01430664709565889,0.12026733398109998,-0.259765625,0.55969238281,0.03737991803022215,1.0675166623995,0.92985888912,1.35546315436,0.009730091350591186,970.5897240875513,970.58595081566,970.59532520154,6.508415502783099e-06,-2.3914075784887766e-05,Null
-1.0045556640592002,-1.0966796875,-0.9111328125,0.0016648212104953236,0.1558679199178,0.02734375,0.263671875,0.005479104487199386,0.0181835937486,-0.1416015625,0.18139648437,0.0112411933466414,1.0247960268854999,0.94096548596,1.10494718615,0.0017696008767385015,970.590709615557,970.58623865301,970.59590499725,4.9195722419773785e-06,2.8755178477500315e-05,Null
-1.0070898437468,-1.11804199218,-0.93505859375,0.0035214194384063182,0.1938952636694,-0.00817871093,0.44030761718,0.012038811557928885,0.0668908691397,-0.12426757812,0.24755859375,0.01159729573842937,1.0384122777096,0.94056310133,1.17146926849,0.004934957570720745,970.5887321154954,970.58416683099,970.59705647888,1.157059637338524e-05,-5.820087195377026e-05,Null
-0.9977001953090999,-1.13269042968,-0.85302734375,0.0038642090738309335,0.23904663085510003,0.12231445312,0.35034179687,0.0038023253446008006,0.15558715819949998,-0.06494140625,0.26867675781,0.008911867109908366,1.0435408290794002,0.87213066208,1.16029679445,0.004233829087599303,970.5957406828052,970.58624843372,970.60352012749,2.291409844875974e-05,0.00012558787679170277,Null
-0.7985620117154,-1.05920410156,-0.27221679687,0.04380952661064261,0.5742626953085999,0.12939453125,1.40161132812,0.1329320643641731,0.1384509277317,-0.68493652343,0.38452148437,0.032385434373814845,1.0829952634356,0.78719715547,1.45600888482,0.021014751148631158,970.5871850774498,970.57591213848,970.59777907057,3.44893603776743e-05,-0.00016926368383274857,Null
-0.7462951660106998,-1.75915527343,0.01940917968,0.30900305581009446,0.7222583007777001,-0.177734375,1.29187011718,0.16264695068194665,-0.0370495605489,-0.68493652343,0.49206542968,0.12601062730302906,1.2356216041627,0.68354861519,1.99393354829,0.1463732086638461,970.5739889224645,970.5527605265,970.59506441084,0.00015528295348667904,0.00019087175597742019,Null
-1.2975024414021001,-1.69421386718,-0.88439941406,0.048174053436379496,0.30598144530999993,-0.17163085937,0.82763671875,0.09688171352855812,0.16595703124720004,-0.11572265625,0.38781738281,0.019766534361998368,1.3870995135165,0.971025517,1.78636923299,0.044250489349188744,970.5776713213822,970.56356502772,970.59555886188,6.688879525331806e-05,1.2381163869226018e-05,Null
-1.2950683593714,-2.24499511718,-0.52770996093,0.1950037130205519,0.1293798828099,-0.07690429687,0.39892578125,0.013567194577141343,0.09796142577990001,-0.20104980468,0.35266113281,0.023161168501182956,1.3211070597583001,0.54665319849,2.24699273072,0.18952378025515873,970.5525330773916,970.50685591875,970.59157783265,0.0007466734645854289,-0.000835508148778046,Stairs Up
-1.1124682617154,-1.72973632812,-0.59753417968,0.1322249259068498,0.10629516601390002,-0.10510253906,0.62805175781,0.03459037941282016,0.22216796874709996,-0.22412109375,0.71337890625,0.05591026038759503,1.1756458656917002,0.66962403997,1.7928966142,0.13797778839397792,970.4772017180962,970.45426782199,970.50715804625,0.00031904185981333386,-0.0004874613198039944,Stairs Up
-1.1490283203088998,-1.75012207031,-0.49487304687,0.10605710947118868,0.1222509765618,-0.13293457031,0.41003417968,0.026479882566714963,0.21749877929289999,0.08569335937,0.33044433593,0.007234225783400122,1.1890453201253002,0.5076705881,1.78409089701,0.10814326612886625,970.3986400326816,970.34735628755,970.45426782199,0.0010346648951048071,-0.0010960956397108566,Stairs Up
-1.3893041992143,-2.00134277343,-0.880859375,0.11687345467990232,0.09746704101420002,-0.18872070312,0.34729003906,0.027708456182469702,0.35320922851179987,0.12951660156,0.56823730468,0.013713886790487326,1.4496672159261994,0.92216286771,2.08078175495,0.12080863019310602,970.3012469694129,970.25001398954,970.34584607963,0.0007435082260618211,-0.0009216928256006448,Stairs Up
-1.2495983886689999,-1.58923339843,-0.91284179687,0.03683762848209099,0.14468749999790004,-0.08776855468,0.43103027343,0.022853696610261133,0.2685986328088,-0.12634277343,0.47924804687,0.02493386543124894,1.3036763812902998,0.94403334841,1.65772531587,0.039174406716840866,970.21513223774,970.16845749345,970.25001398954,0.000674103596835163,-0.0008608663248718187,Stairs Up
-1.0258190917932,-1.42736816406,-0.61437988281,0.056504801215277754,0.075782470701,-0.08728027343,0.2294921875,0.005897925265547749,0.20820312499750002,-0.00463867187,0.52600097656,0.02479730531411295,1.0627739463669001,0.66463461521,1.46578373567,0.05882414506216847,970.1476762591135,970.12478765216,970.21631226535,0.00044037965027216475,-0.0004931304588764326,Stairs Up
-1.0946154785124,-1.45227050781,-0.62109375,0.05516036113517248,0.07669677734129998,-0.16760253906,0.37353515625,0.01521779355952958,0.26415161132439996,0.02551269531,0.49243164062,0.016760821973017665,1.1398459174568,0.63506662128,1.51991360323,0.06147513795518996,970.0926954955631,970.0455351236,970.13637096799,0.0006529655693699393,-0.0008655299517012553,Stairs Up
-1.0451171874967,-1.58923339843,-0.63134765625,0.054724772168675856,0.1577856445272,-0.06860351562,0.37145996093,0.009601632506897707,0.22721923827799997,-0.09118652343,0.53430175781,0.02604502041485909,1.0954276003279002,0.65969844044,1.6859755783,0.05888980883028663,970.0218689360408,970.00163633885,970.05112050982,0.00022993434757134776,-0.0004614033687017497,Stairs Up
-1.0921691894488001,-1.36096191406,-0.89392089843,0.013804111027921144,0.18562499999710003,-0.05834960937,0.42224121093,0.02513168602224713,0.1358825683577,-0.28454589843,0.31481933593,0.03377059474460727,1.1408534369483996,0.9387394262,1.42869935516,0.016350519867559858,970.0029079896933,969.99590936944,970.01035019549,1.708550700052909e-05,-5.985588832207551e-05,Stairs Up
-1.1745507812459999,-1.59594726562,-0.8662109375,0.037417947547293884,0.2155065917936,-0.16088867187,0.57434082031,0.037487654147896475,0.1593225097625,-0.23901367187,0.35375976562,0.015271809984135114,1.2259114904991,0.90519185609,1.65049521662,0.03819489492477072,970.0015014507267,969.9938220623,970.01158162434,1.727562181307062e-05,-1.568280576761206e-05,Stairs Up
-1.1308959960894,-1.44763183593,-0.92553710937,0.017854694615937597,0.2506872558555,-0.21716308593,0.47741699218,0.02483982800649719,0.1947314453081,-0.23937988281,0.46740722656,0.02847933682485905,1.1957664768789003,1.00371585331,1.52033619778,0.020499842058332413,970.0016716079776,969.98824544278,970.04828429652,0.00019627188835733383,0.00015631029643777954,Stairs Up
-0.5059179687466999,-0.95593261718,-0.01281738281,0.04357924319260312,0.4529248046856999,-0.29724121093,0.9130859375,0.15656708693024518,-0.5733557128867,-0.76391601562,-0.23937988281,0.01634102164349392,0.9904412095478,0.61461687131,1.21483046594,0.023413466645105914,969.9954243066501,969.91157656101,970.05110055459,0.0011164695332334185,-0.00017883919858345177,Stairs Up
-1.1590905761687,-2.18872070312,-0.4951171875,0.32680956126866684,0.4068359374974998,-0.05505371093,1.06848144531,0.1080897938124314,-0.027478027345200006,-1.11828613281,0.53723144531,0.2628002315722231,1.3967232577687005,0.64728082191,2.22169484562,0.2521699169492992,969.9344625163935,969.91157656101,970.00634430341,0.0007098955989860167,-0.0004298284001474133,Stairs Up
-1.3652856445279,-1.71240234375,-0.95678710937,0.04379320420979345,0.15785644531030002,-0.10375976562,0.42053222656,0.02311541899236433,0.26793579101389997,-0.11828613281,0.5712890625,0.0452938505053419,1.4246098639070994,1.06003383219,1.81324503236,0.04270739516577182,969.9106275379698,969.87721840414,970.02714853622,0.0013959031724028266,-0.0008253856779952275,Stairs Up
-1.2675793456989,-1.65515136718,-0.85534667968,0.06150704095263638,0.1776525878864,0.01489257812,0.43078613281,0.012307334143413293,0.3108312988230001,0.02770996093,0.46557617187,0.013809774877678404,1.3257705092387995,0.90132207127,1.72531769183,0.06466101137558156,969.8444404529661,969.79885963608,969.87721840414,0.00045232500831406136,-0.0007132230464600108,Stairs Up
-1.2172875976527002,-1.48779296875,-0.92834472656,0.032835880307634444,0.1733520507772,-0.12133789062,0.34582519531,0.01593116783686026,0.28977661132439997,0.01818847656,0.56018066406,0.015922060330367343,1.2745300367432002,0.96444781283,1.5742476676,0.03578375374382265,969.7764506660069,969.7361900956,969.80343944644,0.0003499600229630411,-0.0006151520029000669,Stairs Up
-1.0964318847608998,-1.52416992187,-0.74963378906,0.04134555099435885,0.02984130859370001,-0.38342285156,0.38916015625,0.04927019320865069,0.16478515624860005,-0.21459960937,0.4091796875,0.04277993683764792,1.1487410293754998,0.78017757242,1.59383367804,0.04309424343360731,969.7033313926225,969.66513189141,969.7361900956,0.00041121039404451947,-0.000690485153097375,Stairs Up
-1.0811132812476998,-1.37023925781,-0.85546875,0.02446551951500603,0.074042968748,-0.16674804687,0.30029296875,0.019085244192397183,0.09648437499900002,-0.16162109375,0.34802246093,0.025713211356917693,1.1076206187270998,0.89175939259,1.41316116965,0.02560143738388509,969.643495394828,969.62974274672,969.66513189141,4.304539011920439e-05,-0.00012859043536770056,Stairs Up
-1.1235839843716,-1.50891113281,-0.73693847656,0.056331232340713085,0.15404296874790002,-0.01062011718,0.55297851562,0.011308634425595796,0.20274291991799998,-0.07434082031,0.69079589843,0.03504642743461265,1.1678262318327,0.77585772226,1.67636794377,0.06577396084095406,969.5921440015564,969.55034834183,969.62974274672,0.0003940072480480875,-0.0006688005599819329,Stairs Up
-1.0465954589812,-1.75427246093,-0.51391601562,0.09825802219439174,0.0946752929665,-0.52282714843,0.66552734375,0.13084030487709983,0.2605847167942,-0.09436035156,1.06774902343,0.10078282106113684,1.2007537114601998,0.71716051985,1.86379848154,0.05757850661586474,969.5484357723432,969.52399073008,969.5778437075,0.00024206784599013553,-0.0001527772104089652,Stairs Up
-1.2985522460907,-1.75427246093,-0.96533203125,0.061750571721520896,0.29299804687310005,-0.18139648437,0.67443847656,0.0624327668992929,0.18140991210600002,0.00634765625,0.39782714843,0.011470823846308873,1.3703735340796,0.99098494635,1.86379848154,0.061989237820642897,969.5468826848056,969.53596135767,969.55647807147,3.411435572092851e-05,4.604819739461197e-05,Stairs Up
-1.1800402831993,-1.71350097656,-0.85864257812,0.046857742316770756,0.24946899413669998,-0.07275390625,0.54846191406,0.03448030695010611,0.1425073242166,-0.1025390625,0.35168457031,0.01933386566007235,1.2371045156516,0.89737678606,1.77032443242,0.04472302989423549,969.5483433179465,969.53904030338,969.55754845406,3.915569103900567e-05,9.710108458984257e-05,Stairs Up
-1.2276574707,-1.8125,-0.74670410156,0.10813126222545154,0.23276611327760002,0.0185546875,0.47595214843,0.022491850750479186,0.23829833984040005,0.07177734375,0.50354003906,0.014515838544884627,1.2852891636188,0.78383752524,1.89934867216,0.1109377328416553,969.5472102342205,969.53790970476,969.56177022365,3.3716305725091185e-05,0.00014414319916208234,Stairs Up
