avg_accX,min_accX,max_accX,var_accX,avg_accY,min_accY,max_accY,var_accY,avg_accZ,min_accZ,max_accZ,var_accZ,avg_magnitude,min_magnitude,max_magnitude,var_magnitude,avg_pressure,min_pressure,max_pressure,var_pressure,slope_pressure,Label
-0.2667744954383333,-1.01318359375,-0.07727050781,0.06571674587483035,0.10147094726208333,0.03356933593,0.21081542968,0.003201020705122475,-0.9349975585895832,-1.09558105468,-0.68688964843,0.014135382050228955,1.0126627544191666,0.7686939913,1.32014726699,0.012517972144024555,975.4526674791641,975.36816062903,975.48812730126,0.001530898117308796,-0.001043664574223493,Null
-0.9905859374959999,-1.33996582031,-0.52709960937,0.05014528086683193,0.13510253905800002,-0.04089355468,0.25671386718,0.006185775188239973,-0.48113281249599993,-0.82165527343,-0.23828125,0.030668471894997208,1.1220850801367999,0.68670304663,1.58124472764,0.05864301463749113,975.4620752142472,975.42918257391,975.52196232516,0.00030401537138195447,-0.00019173639353220348,Null
-1.0393603515583998,-1.60144042968,-0.45227050781,0.0635953119064892,0.2524755859348,-0.0947265625,0.72668457031,0.05124704587255236,-0.41486816405919996,-0.74450683593,0.07299804687,0.060846518987303894,1.1993171673872,0.80706245901,1.62740553648,0.052221995400743376,975.470530024425,975.40391652693,975.56187020548,0.0017547078837894113,-0.00018349615851706133,Stairs up
-1.0037451171831997,-1.45422363281,-0.73217773437,0.03648490703473801,0.14892089843400003,-0.15869140625,0.33239746093,0.016542276324158223,-0.40972167968359996,-0.63073730468,-0.27490234375,0.012554129061018954,1.1104026398212001,0.87273612241,1.52371347813,0.029782854381721867,975.372595927904,975.30280779054,975.46124372018,0.0019432820207398198,-0.001146933742398629,Stairs up
-1.0115820312464,-1.22485351562,-0.830078125,0.011524379036643573,0.1769531249968,-0.04736328125,0.32458496093,0.010190838515009841,-0.43110351562120003,-0.72937011718,-0.20581054687,0.022700964802496965,1.1250398702107998,0.87622143439,1.39561739598,0.01890723892604672,975.2517550857752,975.18352348978,975.36426312405,0.0021323780273818566,-0.0013825850157027507,Stairs up
-0.8686865234344,-1.25341796875,-0.51306152343,0.04602747194741419,0.23676269530879998,0.13598632812,0.53137207031,0.010471454870907136,-0.47703613280919993,-0.85070800781,-0.185546875,0.02556250952720806,1.027286450672,0.5832514677,1.60534014964,0.06480776983882104,975.1210976132896,975.05324921171,975.20441795845,0.0018348937784839622,-0.0011442580096176851,Stairs up
-0.9450244140591999,-1.30322265625,-0.63952636718,0.03859965594168944,0.1821435546836,0.10388183593,0.25109863281,0.0019447337739004465,-0.39730468749599984,-0.60766601562,-0.19921875,0.012627260275353831,1.0461786239464002,0.72123965009,1.37675125049,0.04267540674483848,975.0376238874213,974.97850818393,975.09713902795,0.0010644319092117706,-0.0007176543536738018,Stairs up
-0.8584374999968,-1.18884277343,-0.59228515625,0.029928045706071434,0.1832031249956,0.08361816406,0.28747558593,0.0016178193717845746,-0.4836523437468,-0.68469238281,-0.26513671875,0.015572341909244489,1.0067509821380003,0.71454589141,1.38859777883,0.03787616252831118,974.9385122238319,974.88931210817,975.04261296737,0.0009017942166237126,-0.0006950504522731175,Stairs up
-0.9036767578088001,-1.07556152343,-0.67785644531,0.012467110903428521,0.16863769530919995,0.05480957031,0.27465820312,0.003162319154307894,-0.4684716796836,-0.63684082031,-0.27355957031,0.014143071415477779,1.0404816966996,0.89167591465,1.24968658928,0.011523924082100553,974.908235818462,974.87694114094,974.94650602923,0.00047259475310611204,-0.0001125723979603342,Stairs up
-0.9080908203092001,-1.09045410156,-0.65771484375,0.017375780982214224,0.18340332030880002,0.0634765625,0.28759765625,0.00370496942535761,-0.5028222656199999,-0.67395019531,-0.29919433593,0.016728057187158946,1.0651793031379997,0.86216593022,1.30130036909,0.014060321534277645,974.9077861878287,974.87142863049,974.94220898464,0.0005378795640946622,0.0002443354547950103,Stairs up
-0.8946777343707999,-1.1025390625,-0.63757324218,0.01775618153385317,0.1561572265584,0.02722167968,0.26489257812,0.004605063621428639,-0.5397607421835999,-0.697265625,-0.34790039062,0.009813178091371482,1.0634576959907998,0.85301670532,1.31845569965,0.01725797418394668,974.9080151552754,974.87335030808,974.9528978614,0.00052308179256241,0.00014724301753930773,Stairs up
-0.9179541015592,-1.11828613281,-0.68225097656,0.018571221852553957,0.2001171874964,0.14477539062,0.33581542968,0.0024871788602769626,-0.4368652343711999,-0.6005859375,-0.28161621093,0.007452448209122857,1.0403675496940001,0.82574060244,1.30814386292,0.01959490533294499,974.900756657453,974.84824373901,974.98645189775,0.0016134639611914128,-0.0006294384681756143,Stairs up
-0.9184033203076,-1.32604980468,-0.71557617187,0.02439589100634968,0.15295898437119998,-0.05773925781,0.25354003906,0.006332054860525976,-0.4373535156207998,-0.62036132812,-0.26818847656,0.010709311022915599,1.0359182109731997,0.79492795787,1.39115597199,0.02629853714798787,974.8333154289217,974.76336381658,974.88779448693,0.0011761588812389187,-0.0005680151928752988,Stairs up
-0.908208007808,-1.19592285156,-0.58374023437,0.025990384371756284,0.16954101562120005,0.09948730468,0.22485351562,0.0011219584821296567,-0.4654687499968,-0.70495605468,-0.24768066406,0.014330240596241169,1.0396319808823997,0.74133748015,1.39924241987,0.030748081403176315,974.7527936227536,974.6799741572,974.83531399981,0.0019447482060479123,-0.001184498310211911,Stairs up
-0.9374511718715999,-1.35864257812,-0.56091308593,0.05400388770629398,0.15844238280839998,0.08874511718,0.23034667968,0.0012467563513651001,-0.43717285155919994,-0.6943359375,-0.22265625,0.018113536931103038,1.0510082329983996,0.67538290466,1.49886092507,0.06368790283283905,974.6346647590332,974.55245971594,974.73143969632,0.0022678048697539308,-0.001161328842229889,Stairs up
-0.9176416015585999,-1.29797363281,-0.53820800781,0.04102310354063525,0.16977172851209998,0.02990722656,0.25524902343,0.003952018797608497,-0.41332641601089987,-0.67260742187,-0.27709960937,0.01111719266787814,1.0311110654879998,0.64044952315,1.48206030918,0.04681873053766928,974.5390974778271,974.47761990061,974.60279102006,0.0009684776205265988,-0.0003417474725831896,Stairs up
-0.8573303222611,-1.04943847656,-0.62292480468,0.0135599664893303,0.18991333007489997,0.10473632812,0.27490234375,0.0021591652688897783,-0.45999511718349995,-0.64404296875,-0.27502441406,0.009086486089131837,0.9979246431955003,0.76279395096,1.24308047796,0.016406227081240204,974.4615314158905,974.4304815927,974.51950300145,0.00039830023723586705,-0.00034607116715515933,Stairs up
-0.9250573730425998,-1.11535644531,-0.67431640625,0.0158766198805302,0.197852783199,0.11083984375,0.28552246093,0.0031907695997119667,-0.48057250976159993,-0.63403320312,-0.24548339843,0.014700278602335495,1.0685084412496004,0.86442315195,1.3089383369,0.01772374420230279,974.4566304765415,974.41651846053,974.49162966686,0.00043698519082498096,7.046873793682241e-05,Stairs up
-0.9153210449181999,-1.12927246093,-0.67541503906,0.019496224653590313,0.18170532226190006,0.06713867187,0.26171875,0.003032018877970413,-0.5122082519483,-0.63427734375,-0.28002929687,0.008584392641328922,1.0703831335059997,0.83460746555,1.29873522662,0.018452717263484776,974.4463358645601,974.4127854214,974.4839549973,0.0004639130091145489,0.0001238110377342138,Stairs up
-0.8791894531208,-1.06665039062,-0.64819335937,0.013896971904761368,0.1522888183555,0.01867675781,0.23828125,0.0025776908780593415,-0.4795153808552999,-0.65966796875,-0.26635742187,0.016057572790747727,1.0234932747366001,0.87847499863,1.27659031757,0.010878190850622329,974.4587521578593,974.42173152087,974.49591135099,0.0005420777565727291,-0.00014736113329553996,Stairs up
-0.9655847167931,-1.33654785156,-0.66943359375,0.030989904973699727,0.1567407226526,0.05798339843,0.24291992187,0.0019230433124598546,-0.4676342773402999,-0.64538574218,-0.20593261718,0.017931360493989967,1.0897714040709998,0.71470871155,1.47182881511,0.038724716516211226,974.4726676887382,974.41952880577,974.54956149086,0.0010026199683810762,0.0001748561978497387,Stairs up
-0.8615100097619001,-1.09362792968,-0.63830566406,0.016458081324460534,0.14429687499590002,0.05798339843,0.19555664062,0.0012384766521455221,-0.4591259765584999,-0.64453125,-0.2646484375,0.009613844096147064,0.9912919252914001,0.79139456443,1.25037170486,0.018379155866695897,974.402178961118,974.37186205075,974.44412371296,0.00040171467832278624,-0.00047033219912385565,Stairs up
-0.9208850097610001,-1.36267089843,-0.57849121093,0.04701532284862646,0.11522583007440002,0.02990722656,0.16955566406,0.0013850792655031362,-0.4766271972614999,-0.73706054687,-0.28930664062,0.014533288989078267,1.0484655570544,0.71504672352,1.46573428232,0.052024250661227144,974.3470083715938,974.25568081751,974.43733158645,0.0026577552500286765,-0.001216528701429228,Stairs up
-0.9045825195270999,-1.24291992187,-0.61218261718,0.03531057552258735,0.12362915038720003,0.03869628906,0.16418457031,0.0011843981330512483,-0.48618530273009997,-0.72888183593,-0.24963378906,0.014315469112669774,1.0386299590719,0.77272427551,1.44454427355,0.04189898637461431,974.2303029442915,974.1540043694,974.30775837754,0.0019017273528437397,-0.001137267044328856,Stairs up
-0.9365539550738,-1.37097167968,-0.61560058593,0.03638110238364652,0.14198852538800003,-0.02954101562,0.24267578125,0.004233461755247604,-0.36495605468349995,-0.65954589843,-0.21545410156,0.015781946880422195,1.0198173440840999,0.69704372818,1.53466013785,0.046759701589412894,974.1179585737092,974.06077543842,974.19431751426,0.0017620632294803752,-0.0008751325871445257,Stairs up
-0.8862390136682001,-1.17224121093,-0.62939453125,0.026224851985701788,0.17108032226199998,-0.02954101562,0.27905273437,0.0039571480000716525,-0.4306896972615999,-0.68054199218,-0.17822265625,0.01624271463105976,1.0080202027917,0.76307577883,1.33697363621,0.030340827855832114,974.0297935959896,973.97451298895,974.10118990404,0.0012391388311369619,-0.0009029855304575764,Stairs up
-0.9047229003871001,-1.12255859375,-0.63513183593,0.014586233579598588,0.1562707519492,0.05529785156,0.24853515625,0.0022295394494640038,-0.48681396483909994,-0.62475585937,-0.30249023437,0.00962901114805961,1.0444236597449998,0.83194390138,1.24912599764,0.015445925318618492,973.9946661550291,973.95745236357,974.03878632009,0.0005906624688755411,0.00011523062132816948,Stairs up
-0.8847180175749,-1.03674316406,-0.66442871093,0.013890558389459906,0.16919677733909996,0.07019042968,0.23266601562,0.0021156631997436438,-0.49827392577650004,-0.63854980468,-0.29663085937,0.009437600476503135,1.0356327745560001,0.8727771163,1.21201152547,0.012408651823234907,973.9885721021097,973.95467308141,974.02986132661,0.00038094445628434524,8.77787467697848e-05,Stairs up
-0.9020837402301999,-1.10046386718,-0.67626953125,0.014441095113201477,0.16700073241719998,0.02880859375,0.27087402343,0.0042205917276941785,-0.5171264648404998,-0.64135742187,-0.28308105468,0.013433539355653192,1.0623002314892,0.89917184424,1.28584895843,0.012481405825856683,973.9900470783223,973.95083537497,974.03271200852,0.0006916178130292667,-0.00011743020549333222,Stairs up
-0.9039147949178999,-1.08850097656,-0.64404296875,0.016827069646021063,0.12974853515310003,0.02978515625,0.24914550781,0.003848810840112113,-0.49393310546499997,-0.66418457031,-0.287109375,0.012959112874153092,1.0465758124675,0.86003476739,1.2568063562,0.01600430677331336,973.9832404034995,973.94425737986,974.02705951972,0.0005079842788742325,-0.00019862272051007773,Stairs up
-0.9012866210899,-1.27526855468,-0.66906738281,0.024345973591276538,0.1526098632777,0.08752441406,0.19946289062,0.0012529047992484112,-0.4737426757772999,-0.72229003906,-0.25842285156,0.016884982435467502,1.0334689077004997,0.72751298896,1.47617198684,0.03438434910443141,973.969812334813,973.92908663357,974.05675310382,0.0011498834158593229,-0.0008162043910135394,Stairs up
-0.9252770996041,-1.28686523437,-0.65612792968,0.02451646197179012,0.12850585937190004,-0.06726074218,0.21325683593,0.0045437078521195304,-0.4991577148408999,-0.70544433593,-0.29345703125,0.00971628123445387,1.0651087060065998,0.79773696393,1.3951892903,0.026002042597017612,973.9085836273812,973.85106830896,973.98973564264,0.0014072234221307908,-0.0006817507207967504,Stairs up
-0.9308740234340999,-1.42907714843,-0.57946777343,0.05026150233809224,0.1300854492147,-0.02453613281,0.18054199218,0.001545888071093679,-0.43315185546429996,-0.68420410156,-0.25805664062,0.014147552811754418,1.0390769819733998,0.67927124168,1.56611328524,0.05725618264145968,973.8128880211522,973.7214912844,973.90832727154,0.002277526842189011,-0.0010931160532098739,Stairs up
-0.8673571777306001,-1.23657226562,-0.59619140625,0.02874896709822769,0.1006750488255,-0.02453613281,0.1943359375,0.003547230409364671,-0.42561767577859994,-0.7236328125,-0.26037597656,0.012084899592961043,0.9776421077299001,0.70597587768,1.43287880451,0.0320682227016823,973.6974234944518,973.6146031664,973.77404832364,0.002127627963962596,-0.0010976832721955334,Stairs up
-0.9479968261686998,-1.18395996093,-0.646484375,0.014762949610806068,0.1265002441377,-0.04699707031,0.24267578125,0.005627016315182265,-0.4475195312478999,-0.67199707031,-0.28051757812,0.010274507084372955,1.0635436946307,0.80429515718,1.31903932344,0.014350164576560916,973.6103686058165,973.54258252157,973.69436138372,0.001428712523038576,-0.0008192558323249126,Stairs up
-0.8526428222616,-1.04162597656,-0.56066894531,0.018325250972114567,0.17584838866909996,0.08203125,0.23791503906,0.0016756371942955486,-0.5094116210897,-0.66381835937,-0.33874511718,0.008682822789648091,1.0127684212163999,0.71180220825,1.25453801149,0.02032286534270013,973.5356495932357,973.50906019902,973.57575199544,0.0002492816075533932,-9.943032196590683e-05,Null
-0.8465087890581999,-1.09289550781,-0.61511230468,0.016323330426529326,0.15066406249630002,0.02526855468,0.27197265625,0.005113266670299883,-0.5583837890583999,-0.71826171875,-0.34155273437,0.012767995872891675,1.0333441381548,0.83127683366,1.28878481214,0.017304732067887636,973.5390888709287,973.49840893477,973.57543374735,0.0005345658433289724,-0.00019221129470884876,Null
-0.908786621091,-1.126953125,-0.68371582031,0.014362478972775703,0.15745605468380003,0.0400390625,0.2998046875,0.006562348953550557,-0.5446374511666998,-0.7265625,-0.27917480468,0.020003013856418863,1.0826407507572,0.8695850222,1.28111400115,0.015881871929724824,973.5420070145981,973.50563018556,973.5729820283,0.00040372270734106004,-5.581826957355209e-05,Null
-0.9007482910124999,-1.1123046875,-0.75170898437,0.0087007643162227,0.14365234374639999,0.0634765625,0.23364257812,0.003929512669228067,-0.5400903320281999,-0.814453125,-0.20715332031,0.026868108902420734,1.0768994858325998,0.99615631654,1.19611303786,0.003102975571850839,973.5386549593255,973.51599955768,973.56766557455,0.00019600526172780706,4.239767941045176e-05,Null
-0.8333642578078999,-0.85327148437,-0.79614257812,0.00019801436048396122,0.14230590819920003,0.060546875,0.19677734375,0.0011650425782692945,-0.5746887206997998,-0.62377929687,-0.52880859375,0.0007969665934174874,1.0230465199535002,0.9668931547,1.0619540565,0.00053366132220724,973.5453234573606,973.53572977895,973.56459666482,5.8942175596874036e-05,-8.869105871438743e-05,Null
-0.8496398925740999,-0.86791992187,-0.83190917968,6.293117850468877e-05,0.1511340331992,0.10705566406,0.19018554687,0.00035221200249463636,-0.5362463378867999,-0.56665039062,-0.50451660156,0.00023181608679953938,1.0162816427792003,1.00217983216,1.03637954118,0.00010271734136184393,973.5420042197796,973.53400393966,973.54949835641,1.4903261645659997e-05,-4.1465997255450416e-05,Null
-0.8783972167932,-1.189453125,-0.69262695312,0.021652463426120833,0.21263183593540003,-0.11108398437,0.37683105468,0.02158858838635368,-0.5323376464804999,-0.73071289062,-0.20910644531,0.02217064906093005,1.0760320133246002,0.95535495857,1.23572688978,0.00716164459601474,973.5413693853433,973.49164326474,973.6122390991,0.0007974452931913687,-0.00011095694919474212,Null
-0.821311035153,-0.89929199218,-0.77209472656,0.0008909679362138653,0.15641845702850002,0.11181640625,0.28344726562,0.0024692057298724506,-0.6153833007771999,-0.67614746093,-0.54724121093,0.0016612084164770696,1.0394448537401997,0.95368145505,1.12983866401,0.0022633548817221267,973.5333819465023,973.50218018375,973.59224133218,0.0005708037982396638,-0.0003392226535402193,Null
-0.8189489746066001,-0.8369140625,-0.80834960937,6.883465130884653e-05,0.1489868164026,0.13537597656,0.16333007812,7.661469656205921e-05,-0.5836779785117,-0.60485839843,-0.5654296875,0.00011986539066340777,1.0167466078644998,1.00442176971,1.02813232819,4.3913190462457456e-05,973.5403953729926,973.53397750748,973.54676113773,1.5750459041002482e-05,0.00010180273067348738,Null
-0.8170227050754,-0.8369140625,-0.796875,0.00011478872461139304,0.15410766601230003,0.10363769531,0.18835449218,0.0005399025976591336,-0.5868774414035,-0.64794921875,-0.56262207031,0.0004495483155326611,1.0180865687185003,0.98605361744,1.06004500061,0.00029630343220303864,973.54728585702,973.53605078218,973.56003606386,2.4898172864065613e-05,9.66721750967582e-05,Null
-0.8071032714816999,-0.83581542968,-0.78369140625,0.00034405345111026273,0.1557836914035,0.10876464843,0.19580078125,0.00045855791283591087,-0.607713623043,-0.62866210937,-0.57434082031,0.00021735884174881346,1.0226738815076,1.00172952755,1.04990147344,0.00014949450679938064,973.5490998931901,973.54117947605,973.55835669419,1.4207131420152479e-05,-4.616582433087282e-05,Null
-0.8174511718709,-0.83032226562,-0.78759765625,9.663969578357945e-05,0.15414306640130002,0.13635253906,0.16674804687,8.235754990546345e-05,-0.5940515136682998,-0.61303710937,-0.57348632812,0.00010230970351235799,1.0222985069318,1.00841862541,1.03868455394,6.864728196969992e-05,973.5505718425079,973.54741030132,973.55478647434,3.649775935280073e-06,-1.282055950693545e-05,Null
-0.8246545410125999,-0.8330078125,-0.81274414062,3.0071824193459524e-05,0.16114379882499996,0.14587402343,0.1748046875,6.770699163950986e-05,-0.5780102539020998,-0.59460449218,-0.55895996093,5.268503319574814e-05,1.0199172062577,1.00706337284,1.02747435519,3.650618153193998e-05,973.5537908434044,973.54560557076,973.56306456716,1.8531533521408512e-05,0.00012063516400353597,Null
-0.8241931152295,-0.82995605468,-0.81750488281,1.1230747804016265e-05,0.14118408202690003,0.12268066406,0.17236328125,0.00021438501701380515,-0.5810217285116,-0.591796875,-0.55895996093,5.502708483382043e-05,1.0183703962281003,1.0105231596,1.02538776215,1.3189620110810673e-05,973.5512344375195,973.53718423482,973.55680364492,2.6651867793196564e-05,-0.00013733916640995222,Null
-0.8132238769495999,-0.84753417968,-0.69152832031,0.000769620066624121,0.0727539062473,-0.01708984375,0.13500976562,0.002288299979498168,-0.6196520996047998,-0.73889160156,-0.57263183593,0.0014965452012968596,1.0269649436152999,0.90182901538,1.06380781158,0.0004513683273275723,973.5393145535261,973.5119461495,973.54615662169,5.694114922117671e-05,-0.00010251525900524862,Null
-0.8479809570274,-1.06970214843,-0.61450195312,0.01657186801384279,0.17291748046570002,0.033203125,0.30078125,0.004394587067676294,-0.5541162109337999,-0.66613769531,-0.43676757812,0.004065066539892525,1.0314619138735999,0.80542963489,1.25890143272,0.017055010490897138,973.5309830301454,973.51791115882,973.57294895754,0.00014880165431564255,4.827825008739928e-05,Null
-0.8565917968708,-1.07067871093,-0.58483886718,0.02092746291479823,0.1240490722619,0.00073242187,0.25744628906,0.006814189720430076,-0.6027124023391,-0.7685546875,-0.44958496093,0.006356848966081394,1.0600127648322002,0.81361506131,1.31296224628,0.02275795324267788,973.5254829348605,973.48325976623,973.57294895754,0.0005753326418735633,-0.0003328826403848637,Null
-0.8838183593718999,-1.1103515625,-0.55651855468,0.01816142301386983,0.1399853515594,-0.02526855468,0.35095214843,0.012419330687915805,-0.48499267577739985,-0.64465332031,-0.20495605468,0.010283863851690148,1.0265095444076002,0.59306128612,1.30303538103,0.02291193251346161,973.5146601391202,973.45810933611,973.58821441638,0.0011738414209143482,-0.00019013848768859417,Null
-0.8296008300748001,-1.40002441406,-0.4736328125,0.05113576009287882,0.1504260253873,-0.00134277343,0.30444335937,0.00479489423244467,-0.5242517089808,-0.71301269531,-0.20495605468,0.010572254373367063,0.9991485891385001,0.59306128612,1.54076753367,0.05378318907000827,973.5794326072388,973.46512578672,973.70425231421,0.002248041173468568,0.0007827065848025034,Stairs down
-0.9035864257778,-1.53430175781,-0.57592773437,0.06205421396574625,0.16108642577730004,0.05554199218,0.35546875,0.00681538617362657,-0.5239465331996999,-0.76000976562,-0.24169921875,0.01649094020893472,1.0654767560182996,0.63229104916,1.68703930358,0.06687217414218644,973.710619508092,973.60479787746,974.01350388292,0.008582884115342184,0.0019475152101602953,Stairs down
-0.9093261718713999,-1.59106445312,-0.52502441406,0.07308864593473413,0.1491528320288,-0.07861328125,0.32299804687,0.013078227494238337,-0.5735583496059,-0.85217285156,-0.28076171875,0.017897853976161275,1.0986285845626997,0.7412999116,1.73625980238,0.07487792714266958,973.8344499281873,973.74856456768,973.9687085196,0.0041043990033433906,0.0012155891796059245,Stairs down
-0.8440478515594001,-1.47302246093,-0.44763183593,0.07755432475671319,0.1361791992149,0.03002929687,0.30480957031,0.00806477671319329,-0.5643164062463,-0.85229492187,-0.3017578125,0.01888324614714213,1.0321564680467001,0.54743069617,1.7069502665,0.08840899594919266,973.9497048650098,973.85217771073,974.16641761331,0.009254951069368966,0.00025535259391518535,Stairs down
-0.9044213867144001,-1.0908203125,-0.67565917968,0.016453902522720155,0.12732299804240002,0.02124023437,0.302734375,0.0065724456716429866,-0.5559387206987998,-0.76440429687,-0.32934570312,0.012761204945754726,1.0733714740369,0.81826862751,1.33226771786,0.02682869503431628,973.967364679165,973.91904782406,974.02264943184,0.0009393809386508163,8.382991330579827e-06,Stairs down
-0.8751450340304952,-1.13122558593,-0.66882324218,0.0181786688306891,0.12678271000594057,0.00317382812,0.30029296875,0.008983022594162957,-0.576197255951386,-0.78088378906,-0.39270019531,0.012865748797975673,1.0611032500735642,0.83450441428,1.35390822866,0.02792345538377366,973.972255559111,973.92514208416,974.01868199322,0.0007622260488113552,0.0002746174260541522,Stairs down
-0.7023535156218,-1.31494140625,0.13745117187,0.18062089274486248,0.151794433592,-0.14147949218,0.41906738281,0.03239279277898252,-0.6403491210895998,-0.83911132812,-0.34143066406,0.019897344022187544,1.0537250129600002,0.66194268888,1.42296716643,0.04710557997063286,973.9810217851038,973.71946052933,974.17953947502,0.011876388076531918,-0.00031615032430809314,Stairs down
-0.858995225689495,-1.16442871093,-0.53967285156,0.020930924247702907,0.1906183416159596,0.0244140625,0.31750488281,0.00639835920656493,-0.528357303500909,-0.71435546875,-0.2568359375,0.01329989349798626,1.0351251516455555,0.75170033156,1.25906265517,0.022329845737645505,973.978908533798,973.82995602088,974.0874953944,0.004342529844688589,0.0017324211931738622,Stairs down
-0.8142224121042,-1.70690917968,-0.40954589843,0.06116497995154161,0.14348266601299997,-0.01281738281,0.32214355468,0.005820615151510015,-0.49932983398079983,-0.84191894531,-0.24169921875,0.020133109855945235,0.9752222935422004,0.49757042328,1.81870168215,0.06875221314386386,974.108795736349,973.99892434381,974.47988657688,0.012153817247223602,0.0013656113238853336,Stairs down
-0.9458251953075998,-1.70690917968,-0.49743652343,0.09231981002955977,0.1376892089808,-0.04956054687,0.40490722656,0.017934950425192702,-0.5621716308549999,-0.92443847656,-0.24694824218,0.020604188904514164,1.1257808018039999,0.64839469814,1.81870168215,0.0926752596433243,974.2672581643,974.10659544092,974.53144911689,0.01710352903605406,0.0008529845579064276,Stairs down
-0.8842993164023,-1.37121582031,-0.50183105468,0.05684064927166967,0.180697021482,-0.03674316406,0.56628417968,0.031167410796298197,-0.5616174316377,-0.76904296875,-0.24853515625,0.02186995890855665,1.0866922477695,0.56144193638,1.57453068655,0.058515183339344294,974.3509159364181,974.29272612078,974.49664603469,0.001925318229682989,0.0003201660947376088,Stairs down
-0.9278930664025998,-1.2587890625,-0.64916992187,0.02898653092441688,0.248890380856,0.02685546875,0.708984375,0.03060997348102307,-0.5795483398405,-0.75659179687,-0.40551757812,0.008758924290371903,1.1372076272704996,0.86483937325,1.51526141967,0.0335746762210477,974.4182467281972,974.24791029556,974.77694241816,0.016294416731609005,-0.0008976517071680481,Null
-0.9317968749962,-1.18200683593,-0.69665527343,0.0176702527325811,0.13740966796540002,0.00329589843,0.3671875,0.01260167005703241,-0.5324145507772999,-0.72082519531,-0.30590820312,0.013099789444818637,1.0904085950067,0.82988094905,1.37139496931,0.02478704851789931,974.4291370371452,974.38374024143,974.46868505381,0.0007724770032727561,-0.0003606461616570255,Null
-0.8320666503861,-0.99255371093,-0.65295410156,0.010053792172844297,0.14456298827720002,0.02905273437,0.271484375,0.004976988025492768,-0.6031481933553998,-0.68212890625,-0.50329589843,0.002611566220683102,1.0416580864537999,0.86804461864,1.21633138677,0.009530773024480044,974.4461777178681,974.4126439329,974.47722482613,0.00035171705701191606,0.00022424066890423748,Null
-0.8850463867162,-1.177734375,-0.76513671875,0.008024066235031834,0.1693139648395,0.08056640625,0.326171875,0.004301147623448973,-0.4940808105427999,-0.70642089843,-0.31420898437,0.010561938386799963,1.0363504513124,0.93594566876,1.24806433652,0.004773934809958313,974.4386399557341,974.40972905891,974.49033316695,0.0004668550559700901,-0.0001410788682616629,Null
-0.8565806775944551,-0.86364746093,-0.84289550781,2.5816828307990832e-05,0.1686540358094059,0.12438964843,0.18774414062,0.00024246870585349783,-0.5162788617689107,-0.53442382812,-0.50158691406,9.613561157159752e-05,1.0144149730467327,1.00351849351,1.03028151522,4.199540514227252e-05,974.4349630867662,974.42877781312,974.44331934447,1.7908286147022122e-05,-6.30330738299119e-05,Null
-0.8635058593713998,-0.86853027343,-0.85400390625,1.4807455459298547e-05,0.17369140624620003,0.16101074218,0.19067382812,5.67434050716131e-05,-0.5070043945275999,-0.51452636718,-0.49340820312,2.3897181859217045e-05,1.0163389584776,1.0064773735,1.02267892402,1.428776356393299e-05,974.433927058671,974.42836516683,974.44101411195,1.3260282219392436e-05,-6.206765975752125e-05,Null
-0.8616430664024,-0.87231445312,-0.84606933593,4.1884057464956066e-05,0.176887207028,0.16442871093,0.19702148437,6.256405151308188e-05,-0.5119458007773998,-0.52868652343,-0.48962402343,0.00012743895100815865,1.017835264889,1.00528267929,1.03119524897,4.7780367202428e-05,974.4343716432687,974.42463899803,974.44116302452,1.2364764103100698e-05,-2.633073754452976e-05,Null
-0.8591098978024243,-0.87231445312,-0.85217285156,1.580710326338756e-05,0.1838526870232323,0.14660644531,0.2138671875,0.0003026736855638348,-0.5204658893578786,-0.54455566406,-0.49682617187,0.00012818075006863346,1.0213356877732322,1.00514311241,1.0385125935,7.266569937122795e-05,974.4347767945521,974.42264751052,974.45122750696,6.713973176997675e-05,6.695650161361713e-05,Null
-0.8574194335895,-0.87133789062,-0.84497070312,6.991323196127599e-05,0.1664953613243,0.13684082031,0.17895507812,0.00016635362997822564,-0.5071337890591999,-0.53173828125,-0.48181152343,0.0001458460393790572,1.0101144755825002,0.98767614875,1.03054200057,0.00012172569500986942,974.4417463111417,974.43484028125,974.4478959154,1.1798793061486698e-05,6.123824007889193e-05,Null
-0.8609997558553998,-0.87109375,-0.84899902343,3.0580101293298987e-05,0.1832397460886,0.17395019531,0.18957519531,1.579869275140381e-05,-0.5115954589810998,-0.52685546875,-0.49584960937,7.087458715628923e-05,1.0181889221883003,1.0058046863,1.03176961436,3.5047840083582985e-05,974.4518118000759,974.44434052063,974.45880999887,1.3551240108369755e-05,-6.520324559463056e-05,Null
-0.8612939453078999,-0.87426757812,-0.85131835937,2.8174356980439642e-05,0.1866198730429001,0.17602539062,0.19604492187,2.9210579212717295e-05,-0.502849121089,-0.52575683593,-0.48095703125,0.00013475171842430714,1.0147247146318,1.00377149456,1.03007430913,3.580265069330981e-05,974.4542130202327,974.4470248753,974.45967246309,1.4630182343529336e-05,6.844784266002455e-05,Null
-0.8640856933555,-0.87878417968,-0.85705566406,2.7896507518873578e-05,0.18453247069940001,0.17602539062,0.20153808593,6.460983796571478e-05,-0.5011914062467998,-0.52038574218,-0.4873046875,6.82452471598756e-05,1.0159222841395998,1.0093650466,1.02586303001,1.4026307441045579e-05,974.454999655176,974.44748676603,974.45928978261,1.1865341369393007e-05,7.622091810765721e-08,Null
-0.8622167968712,-0.86938476562,-0.85424804687,1.7423846514464468e-05,0.17199951171560002,0.154296875,0.18493652343,5.362460707269852e-05,-0.5049145507775998,-0.52685546875,-0.48864746093,0.00012654536300277228,1.013931373268,0.99965632016,1.02994462682,7.992788577085132e-05,974.4512679808549,974.44334929293,974.4591306062,1.8368856473128924e-05,-8.921095012515646e-05,Null
-0.8638208007774,-0.87048339843,-0.85876464843,7.621019778801071e-06,0.17328613280779998,0.15942382812,0.18493652343,4.5908316204595285e-05,-0.5023217773398,-0.5263671875,-0.48937988281,8.731929340340451e-05,1.0142255220442002,1.00695119322,1.02901390427,2.7937624855527923e-05,974.4469253290856,974.44183720762,974.45106005453,6.646710986502554e-06,1.5523317521153156e-05,Null
-0.8629815129913861,-0.86694335937,-0.85607910156,9.857572538708798e-06,0.17326370087881188,0.16577148437,0.18029785156,1.652117118454463e-05,-0.506583336551881,-0.52001953125,-0.49084472656,6.278969569349325e-05,1.0156030355063363,1.00651883479,1.02322415319,2.3066919821298077e-05,974.4289136130074,974.42295338123,974.44287935967,2.40100176542232e-05,-9.17959334209388e-05,Null
-0.8639843749959999,-0.87341308593,-0.85607910156,2.4319634286046495e-05,0.172644042965,0.15075683593,0.18969726562,7.714903114586723e-05,-0.5065991210894,-0.52416992187,-0.49169921875,5.943450661626606e-05,1.0163881211872001,1.00679719778,1.02744439215,3.244095812170138e-05,974.4280165586761,974.41398350399,974.43535242914,4.220707397234608e-05,0.0001520800501562323,Null
-0.8654711914026,-0.87487792968,-0.85180664062,4.5207660608290804e-05,0.17288574218439998,0.15661621093,0.18615722656,5.1353339009816924e-05,-0.5046948242145999,-0.52380371093,-0.48803710937,7.97354874088965e-05,1.0167561633501998,1.00246980518,1.02466754668,2.8450909611099513e-05,974.432052593858,974.42578006369,974.43739831954,9.785296199321672e-06,3.055834960089182e-05,Null
-0.8604736328082001,-0.86865234375,-0.85339355468,1.828718667364564e-05,0.17648193358939998,0.12512207031,0.23168945312,0.0007811765537931764,-0.5115087890586,-0.52453613281,-0.48815917968,9.78997500409964e-05,1.0168719920290001,0.99848878188,1.02735742044,6.235213411441802e-05,974.4276391973098,974.41814355429,974.44510101208,5.6746464632139636e-05,-4.487080018806436e-05,Null
-0.8640161379373735,-0.88244628906,-0.84399414062,8.238364841749458e-05,0.17440148555474744,0.15319824218,0.1884765625,0.00010778297409576223,-0.5047804707188889,-0.54028320312,-0.4716796875,0.0002785698208990369,1.015949437459091,0.98987484787,1.04299482391,0.00012608753295615107,974.431366860264,974.42337335818,974.44246136612,2.410548914639167e-05,0.00011162828649612605,Null
-0.8612231445265999,-0.966796875,-0.78552246093,0.0018723649268295045,0.1442236328078,0.06262207031,0.21862792968,0.0013540093584878219,-0.5110815429647999,-0.59704589843,-0.43627929687,0.0016671553344111143,1.0136522649936,0.95186059758,1.10501178152,0.0010745297866479855,974.4283150191877,974.40845666247,974.43894001837,7.137143840630264e-05,-1.0630149097096756e-05,Null
-0.8673779296836,-1.00549316406,-0.78454589843,0.0035039067027603393,0.14264648437080002,0.06262207031,0.19934082031,0.001068910059316641,-0.5131225585903999,-0.6181640625,-0.40246582031,0.00480342106994853,1.0215530121765999,0.92349613022,1.10265984899,0.001716334653208196,974.4189173324064,974.4022275092,974.43588782159,0.0001154422566092313,0.0001011936841516126,Null
-0.8494604492151998,-0.87060546875,-0.78845214843,0.00027749170559926206,0.1468579101524,0.09191894531,0.20092773437,0.0010560578830530016,-0.5375219726521999,-0.61743164062,-0.46801757812,0.0017993148468685267,1.0172420880682,0.9744437312,1.06673851007,0.0004042845417342704,974.4425410172312,974.40692952297,974.5747517933,0.0022194435850305455,0.0004960879226484329,Null
-0.8518457031209999,-0.9453125,-0.79211425781,0.0005244488908771628,0.17900878905840004,0.10424804687,0.35913085937,0.003314573451746174,-0.5274682617147999,-0.5654296875,-0.49072265625,0.00034834188044207743,1.0194319649954,0.97436928706,1.1502171954,0.0008201766985187667,974.4119853156869,974.40311599902,974.42330716374,2.7917055424516566e-05,-7.87119379565119e-05,Null
-0.9845877165808911,-1.36669921875,-0.68090820312,0.04009088535709433,0.16010790531910893,-0.1455078125,0.35913085937,0.023055084966781336,-0.4714415899555445,-0.71313476562,-0.07971191406,0.03715250413899903,1.1390184238737624,0.91521180271,1.41283229404,0.019439607422640767,974.4000707531624,974.3365236961,974.46893002207,0.0012286495625099935,-0.0005799710799653235,Null
-0.8609814453081001,-1.0400390625,-0.61022949218,0.011456726994325744,0.15273803710620001,0.05517578125,0.26879882812,0.0035538685005653526,-0.5699780273405,-0.75988769531,-0.40161132812,0.009561129176376595,1.0515692033744,0.86416047835,1.21809798308,0.008891236499457604,974.4070244315404,974.36477882305,974.43643199532,0.00040444159271178635,-0.0003252432066896534,Null
-0.7649499511682001,-1.02978515625,-0.56896972656,0.01781822709590372,-0.0080297851562,-0.18371582031,0.20275878906,0.012925571136287173,-0.6793432617146999,-0.78295898437,-0.48254394531,0.008985155273083401,1.0395868621782998,0.93563030882,1.23160878608,0.0053646388262674335,974.405310779796,974.36508297319,974.44685755119,0.000651363335652414,-0.0003928942567906557,Null
-0.7973107910128999,-0.98950195312,-0.654296875,0.013401883194841044,0.067337646484,-0.19030761718,0.22082519531,0.01846846837344051,-0.6124145507774,-0.78295898437,-0.45739746093,0.009384655440598945,1.0263289115078,0.90981358311,1.13939925528,0.0028099600462814134,974.4042368862865,974.38208431916,974.42372964871,0.0001626357041761693,0.00022435667493173655,Null
-0.8862854003867998,-0.99560546875,-0.66845703125,0.00559130201877471,0.16618530273049997,0.08557128906,0.25915527343,0.0019039827448968831,-0.5186120605432,-0.705078125,-0.33154296875,0.01365691196295645,1.0488574743938,0.90981358311,1.17657837192,0.0029459679731734184,974.4099311098378,974.37659650753,974.45894240733,0.0005019532200983979,0.0001956420962540004,Null
-0.8279289476762625,-0.94409179687,-0.77746582031,0.001722464700732417,0.11439961134404039,0.05676269531,0.16918945312,0.0008513391343153745,-0.5952826605861615,-0.65661621093,-0.40441894531,0.00269308145615801,1.0281761398807072,0.97365756754,1.10575893893,0.0009925954980951402,974.4097029016417,974.3873582386,974.43409607099,0.00015462626226196106,0.00017230006423627725,Null
-0.8237304687465999,-0.83471679687,-0.81469726562,2.6487942897690287e-05,0.1298022460896,0.10864257812,0.1572265625,0.00016425692071586804,-0.5902832031201999,-0.61596679687,-0.57263183593,0.0001284648673802059,1.0217973353332,1.00854207031,1.03229978621,6.160733363485171e-05,974.4112966130501,974.40411380088,974.42246137068,2.172042659406908e-05,-8.847121819511104e-05,Null
-0.8209985351519998,-0.8310546875,-0.81408691406,1.6264776992556797e-05,0.12873291015299998,0.11303710937,0.14331054687,6.271377355579661e-05,-0.5890209960899999,-0.60974121093,-0.57263183593,0.00010757663636014375,1.0186865394803999,1.00966765557,1.02890379202,1.910568825702674e-05,974.4098823821885,974.40298960706,974.41741833587,1.7400948978818073e-05,-9.443664317571161e-05,Null
-0.8181469726526,-0.83068847656,-0.80810546875,2.825128309607587e-05,0.13207275390360002,0.11206054687,0.15002441406,9.728827260356333e-05,-0.589133300777,-0.603515625,-0.57568359375,4.827897356810968e-05,1.0168578781640003,1.00496657664,1.02962691283,5.844770826222383e-05,974.4102164718227,974.40298960706,974.41525691536,8.936106769970664e-06,4.948578155315551e-05,Null
-0.8133520507777999,-0.826171875,-0.79724121093,6.474057232155379e-05,0.1332031249958,0.11474609375,0.15270996093,0.00010204616216855813,-0.5968359374961999,-0.60876464843,-0.58178710937,5.3622529973271285e-05,1.017682730924,1.00565932423,1.03299255244,3.821379104112105e-05,974.4101469640818,974.40385651775,974.41608228915,7.70998904442351e-06,3.557138378225056e-05,Null
-0.894127571933168,-1.08154296875,-0.74682617187,0.008888932985832869,0.14908652730138616,0.03454589843,0.33715820312,0.009247268119651654,-0.5426520923537623,-0.80126953125,-0.41723632812,0.00997511064359521,1.0683295468832676,1.00497055041,1.19615261623,0.0026938336595807755,974.4094371019387,974.37255632623,974.43450549793,0.0003794266253485665,-0.00044493135292219117,Null
-0.8218615722621,-0.86535644531,-0.74328613281,0.0008909629134608796,0.10644775390160001,0.05505371093,0.13708496093,0.00041284765261639353,-0.5907531738246999,-0.80126953125,-0.49658203125,0.0029718088305318462,1.0195345964656004,0.97269629583,1.09751492741,0.0005645964334702089,974.4088681892696,974.39635078112,974.43081722822,6.286530942430301e-05,0.00011401607387558935,Null
-0.8301879882776,-0.83666992187,-0.82006835937,1.849595344545862e-05,0.1197363281205,0.09509277343,0.15490722656,0.0002731817178049809,-0.5775354003871999,-0.59680175781,-0.55737304687,0.0001212370681475162,1.0185465800019002,0.99908740154,1.03266257295,6.83563760582382e-05,974.4067394546375,974.39365360911,974.42310706285,5.113945956078436e-05,-6.253782423304229e-05,Null
-0.8242578124957999,-0.83093261718,-0.81616210937,1.5405356290552992e-05,0.1275476074182,0.09509277343,0.15490722656,0.0001586298313229386,-0.5840759277306998,-0.59948730468,-0.56945800781,5.7912648012603596e-05,1.018342985517,1.00865281727,1.02736636234,2.1429474174206543e-05,974.4101527088268,974.40303201425,974.41826707552,2.4791835696631986e-05,8.06125830793273e-05,Null
-0.8312390136686,-0.84045410156,-0.81982421875,2.249999930842042e-05,0.12491455077779999,0.09252929687,0.16650390625,0.0003532892224654066,-0.5783862304651,-0.59765625,-0.54992675781,0.00013595007284020587,1.0205496336578996,1.00534706772,1.03972760762,7.842583272083953e-05,974.4109727839817,974.40101053664,974.42303044884,4.452011966832906e-05,-2.427178627690286e-05,Null
-0.8313134765595,-0.83740234375,-0.8232421875,1.3824448436811971e-05,0.1352770996063,0.11926269531,0.14758300781,5.742446792197022e-05,-0.5776953124957,-0.59228515625,-0.56506347656,4.054755876102678e-05,1.0213680745632001,1.00591552725,1.03081927552,3.2120040325430506e-05,974.4110227757732,974.40319796453,974.41838987254,1.8428736979556097e-05,4.1924130738248095e-05,Null
-0.8289190735453535,-0.83544921875,-0.82238769531,1.220903035658686e-05,0.12677186907717172,0.11779785156,0.13952636718,2.9619969776585657e-05,-0.5756429036423232,-0.58581542968,-0.56433105468,2.7044087043610666e-05,1.0171536386546465,1.01140726663,1.02313334917,9.43789283936086e-06,974.4118668249326,974.40563510848,974.42034512407,1.68245985950939e-05,4.918075671282754e-05,Null
-0.8283666992156,-0.83850097656,-0.8173828125,4.3800075843493386e-05,0.128601074215,0.11926269531,0.13842773437,2.663018125793764e-05,-0.5767724609335999,-0.58703613281,-0.56555175781,3.3816809598546e-05,1.0175832704754,1.00508515273,1.02678689986,2.3826864487136077e-05,974.4097820149004,974.40250682942,974.41935724003,1.3654828090240017e-05,-7.84669274813168e-05,Null
-0.8293969726527999,-0.83911132812,-0.81640625,3.823733690818378e-05,0.12794677733980003,0.11840820312,0.13830566406,2.164070655055573e-05,-0.5749877929651999,-0.58581542968,-0.56567382812,2.2734204928897744e-05,1.0173112617580002,1.00537889726,1.02857005246,4.066763855443937e-05,974.4097892975872,974.40638725902,974.41506196359,3.6246928390485496e-06,-3.154428699923936e-05,Null
-0.8325512695271999,-0.84204101562,-0.82580566406,1.6416449734692013e-05,0.1365991210908,0.10571289062,0.14831542968,8.622834778944758e-05,-0.5724780273393999,-0.58032226562,-0.56579589843,1.858328930613052e-05,1.0196260357962001,1.01362403212,1.02930340411,1.4940398179448427e-05,974.4107945294643,974.39982353582,974.42633496267,4.159809481353926e-05,7.394208753651591e-05,Null
-0.826845074640297,-0.83874511718,-0.80749511718,6.654638465386552e-05,0.12708123839366334,0.07397460937,0.17846679687,0.0006820816923104793,-0.5808214244244553,-0.60546875,-0.55639648437,0.00020578387349970789,1.0188252492629704,0.99244203081,1.03617124639,0.0001171796654563788,974.3988024638497,974.38423053985,974.41399567014,6.646005445514146e-05,6.971201832140612e-05,Null
-0.8559130859332998,-0.9580078125,-0.78381347656,0.0020773644158964743,0.13299438476130002,0.00341796875,0.27941894531,0.0067760801360456915,-0.5731494140594998,-0.76550292968,-0.41552734375,0.007103857103052811,1.0458856153018998,1.01288073321,1.11747341232,0.0007030062955834759,974.401744025339,974.3709115725,974.43058989021,0.0003098865022913573,-0.0002873654445088819,Null
-0.8455334472617,-0.95678710937,-0.77404785156,0.003346754413186835,0.11755371093340003,0.01379394531,0.20617675781,0.003503693474718375,-0.5881665039026001,-0.76550292968,-0.416015625,0.009077061493300112,1.0436309962374002,0.97729424336,1.10698923611,0.0013011107946277734,974.3976807324293,974.3770639968,974.4229106589,0.00023440287783974407,-0.00021087903194238865,Null
-0.8101367187477,-0.82470703125,-0.7861328125,0.00011231367032241907,0.1162878417921,0.05407714843,0.14196777343,0.0005650010539970457,-0.6024963378875,-0.62658691406,-0.58508300781,0.00010559666486743735,1.0166196196139998,0.9941001689,1.04036279215,0.0001069026970050885,974.3944399806668,974.38381865601,974.40568472052,3.12363016883529e-05,0.00016006632240327904,Null
-0.8605297851528999,-1.08178710937,-0.80078125,0.008291518874936468,0.10096557616870001,0.01794433593,0.22497558593,0.0022455194668695062,-0.5792407226527999,-0.63073730468,-0.41479492187,0.0026929303311046676,1.0467953009269,0.99658345171,1.20098896029,0.0035784246747905964,974.3928963788544,974.33939433938,974.41576991083,0.0002980892579555683,-0.00035719468774125405,Null
-0.8967993164033,-1.08178710937,-0.7490234375,0.007926168821062169,0.18921630858979996,0.07067871093,0.365234375,0.005902938716282434,-0.5037011718708999,-0.71520996093,-0.26391601562,0.01805779093449576,1.0592817783217001,0.98640482387,1.20452116796,0.0032897368546087337,974.3899016609857,974.33939433938,974.43809564564,0.0006483616936901414,0.0005953126436480772,Null
-0.8643469238253998,-0.9921875,-0.71337890625,0.0051014883514319195,0.11518554687210003,0.04943847656,0.20324707031,0.001875797305486651,-0.5438952636681998,-0.66955566406,-0.26391601562,0.009371122656101984,1.0343554011457,0.93449151993,1.11921540521,0.0025042435601129467,974.3957761041378,974.35793126369,974.42732501065,0.0004153218623007223,0.0003504979245626871,Null
-0.8416008226761617,-0.90515136718,-0.82287597656,0.00030881586675758074,0.12800736860464645,0.0966796875,0.16723632812,0.0003298324755468603,-0.5691176905737373,-0.67199707031,-0.46862792968,0.0014115147058059087,1.0245804973458585,0.98651669654,1.09579427275,0.0008455768408193726,974.3949770062052,974.36753441967,974.41099227813,0.00013561026079607748,0.00021385083925116636,Null
-0.5352563476528001,-0.85485839843,0.25512695312,0.15682260658168964,0.520285644527,0.11303710937,1.04846191406,0.13500213062520386,-0.4667358398397998,-0.67565917968,-0.00805664062,0.045564593239254464,1.0517880979634,0.98012072249,1.19075430871,0.0028243312355863436,974.539715815939,974.40196892796,974.85478980446,0.02584538880103512,0.00460515154126477,Null
-0.23816894531120003,-0.96508789062,0.32421875,0.2593151913954,0.7410351562465999,0.34643554687,0.99963378906,0.052691025661691517,-0.3011547851526,-0.59619140625,0.01623535156,0.046188387250487094,1.0212757750274,0.83952699942,1.22343603989,0.008242629829428447,974.2422603863218,973.88964332631,975.3765709108,0.10145398559201602,-0.001991062541397366,Null
0.05611245938831681,-0.91650390625,0.31359863281,0.1658281719983677,0.9283411007079206,0.66430664062,1.00244140625,0.005781301395817907,-0.13069137723960397,-0.47094726562,-0.04565429687,0.011755264953315058,1.0243313250899009,0.82772069634,1.36272423412,0.014484032034661925,974.4703287056647,974.35702486855,974.64364076623,0.006237589796629266,0.00044266027032207077,Null
0.2833996581993,0.26611328125,0.29711914062,8.709108436522947e-05,0.9690490722624,0.94714355468,0.98779296875,9.551474995460545e-05,-0.1016247558549,-0.17321777343,-0.05456542968,0.001618811426442077,1.0155738506919,0.99850630963,1.03463497352,9.315010205339792e-05,974.3394515946426,974.10568056933,974.51485007699,0.009877280906059114,-0.0013073671339566511,Null
0.27884399413649996,0.26062011718,0.29089355468,8.882515809753244e-05,0.9621301269494,0.94018554687,0.98254394531,6.945502126969528e-05,-0.19366455077740002,-0.2216796875,-0.15185546875,0.0002584660595394774,1.0204396717475002,1.00013283502,1.04449720933,7.047229974385171e-05,974.3661756834765,974.24621675797,974.51765563601,0.00450883181891972,0.0006276883347226603,Null
0.26552124023100004,0.25415039062,0.2724609375,2.769219002839137e-05,0.9727294921845,0.95007324218,0.99597167968,0.00010581269409536035,-0.20993286132479994,-0.25500488281,-0.18005371093,0.00033895802470193455,1.0301250013909,1.01695471794,1.05346374864,8.709094041713895e-05,974.3680151236496,974.25636914334,974.52675508899,0.005165233061827192,-0.0011873852588664855,Null
0.27570556640259997,0.2626953125,0.28466796875,3.32242250426764e-05,0.9605603027308999,0.92272949218,0.97668457031,0.00014530531535893214,-0.21646240234009997,-0.23620605468,-0.19836425781,9.892884528983354e-05,1.0225968989571002,0.98731933492,1.03705671503,0.00011706282639599811,974.3417674725641,974.27715778908,974.42318564447,0.0017917009228784553,0.0003895077289390607,Null
0.27182861327749996,0.25207519531,0.29418945312,0.00014397784313740743,0.9692333984349,0.95617675781,0.97961425781,3.121233950620609e-05,-0.20130004882510005,-0.21850585937,-0.18420410156,7.660442380422834e-05,1.0266591887132002,1.0127407862,1.03937396063,4.653755950478403e-05,974.3731977808321,974.35016896094,974.40345787323,0.0002781158169215896,-0.0005397306901947869,Null
0.2667089843721,0.25451660156,0.27734375,3.471015679998274e-05,0.9709436035121999,0.96118164062,0.97998046875,3.5098843809406105e-05,-0.2058996581989999,-0.21850585937,-0.18530273437,5.8388124508046306e-05,1.0277968385527,1.01954189748,1.03664525741,2.0612735151751163e-05,974.3437131584167,974.28520424403,974.36490771325,0.0005817810482482776,0.0007052828617602661,Null
0.22366699218369995,0.14318847656,0.30395507812,0.002241229794315226,0.9724206542926999,0.94189453125,1.01794433593,0.00030570116154851477,-0.22034179687029998,-0.25366210937,-0.18078613281,0.00046254044830293617,1.0231940117476002,0.99008024773,1.05520005663,0.0002351017694627249,974.3600223544037,974.33309390389,974.37009523545,0.00012358546936666793,-0.0002717416959194261,Null
0.22420000788656566,0.20300292968,0.26513671875,0.00017230100569025792,0.9673455748860605,0.90197753906,0.98522949218,0.0003614280825129171,-0.2439544369432324,-0.31091308593,-0.16967773437,0.00041798588676515653,1.0228527642623235,0.97541817567,1.03884332539,0.0002537596557355582,974.365027746539,974.28338854247,974.45760215438,0.0030467210374370422,-0.0008810352517324182,Null
0.20580566405939998,0.19580078125,0.23522949218,7.683397541981732e-05,0.9814941406215999,0.9619140625,1.00268554687,7.99406658424849e-05,-0.21587890624579997,-0.25500488281,-0.16967773437,0.000139158928032958,1.0259003220334,1.00437652022,1.05714975384,0.00011305563501810237,974.3993802026146,974.32367173228,974.4658170369,0.0014472022946485548,-0.0006983044501918407,Null
0.20523161935009898,0.19213867187,0.2119140625,2.745498820739957e-05,0.9737524655753464,0.96008300781,0.98449707031,3.3854538263017835e-05,-0.23545792078792085,-0.25048828125,-0.20874023437,0.0001171841214323412,1.0226930840904949,1.01039093106,1.03224934216,3.0195361210682707e-05,974.3148946874788,974.23128741871,974.38182072454,0.0012348736186716955,3.3997858778247184e-05,Null
0.20594116210529997,0.18505859375,0.22106933593,9.001452963814958e-05,0.9742614746056999,0.95910644531,0.98425292968,3.9562846364671644e-05,-0.23487915038690002,-0.25231933593,-0.22436523437,6.0471517557405384e-05,1.023193213429,1.00670881236,1.03106067104,2.948973258628567e-05,974.3649431452552,974.33896366452,974.3816548416,5.627528111374166e-05,-0.00011126160804803887,Null
0.1922326660116,0.17492675781,0.20642089843,8.607056857458773e-05,0.9816833496052999,0.95910644531,0.99487304687,4.230556313327195e-05,-0.2236865234343,-0.24243164062,-0.20068359375,9.858316844471521e-05,1.0251245276991998,1.00670881236,1.03568097616,3.601005977881858e-05,974.3567763807083,974.34946412976,974.35987593559,9.354221439355595e-06,-6.75499812404737e-05,Null
0.20342163085529996,0.18420410156,0.2197265625,0.00011604550361108008,0.9797924804649001,0.96728515625,0.99255371093,4.7390936599801376e-05,-0.2383142089803,-0.25573730468,-0.2177734375,8.903484602454529e-05,1.0287760435257,1.01941076567,1.04183431786,3.750072311369857e-05,974.35333271964,974.34919236442,974.35868556858,9.644590998500484e-06,-2.8448269644026236e-05,Null
0.21089233397920001,0.20275878906,0.21887207031,1.6118437047151725e-05,0.9735791015590999,0.96264648437,0.98193359375,3.5605743674896914e-05,-0.22620361327829994,-0.24548339843,-0.21484375,6.937433372186575e-05,1.0215670643011,1.01289906378,1.02767963502,2.0746310692423047e-05,974.3525043796009,974.34693634543,974.35644545181,8.859221650780635e-06,2.8511987938749446e-05,Null
0.18303222655880005,0.08337402343,0.22180175781,0.0018040567937821028,0.9863830566370999,0.90759277343,1.06884765625,0.0013305567054938566,-0.1947155761679,-0.24206542968,-0.11401367187,0.0013036531917372171,1.0234977750141,0.93469531619,1.09964768392,0.0012249237853904317,974.3890357101121,974.31526909872,974.53864645388,0.0029559648255322126,0.00014526396879558889,Null
-0.5314086914043,-1.11608886718,0.11157226562,0.2217139263016689,0.6088708496060999,0.1533203125,1.19274902343,0.10767578827402735,-0.4239904785121999,-0.65087890625,-0.17016601562,0.018188491329855432,1.0762878159251998,0.81367761295,1.37004110352,0.01878161192785136,974.3272674839935,974.06190769466,974.89186756941,0.043765049127512126,-0.0018718759771018596,Null
-0.8935144042930999,-1.10656738281,-0.65563964843,0.012961676041068374,0.2827111816372,0.11413574218,0.57666015625,0.016196651126029204,-0.5523449706996999,-0.73425292968,-0.42578125,0.00865355756987487,1.0950434228940003,0.84369328096,1.38498079164,0.021911350936404495,974.3604256785194,974.32382659675,974.40778442457,0.0005353524664252467,0.0002501295502690041,Null
-0.7998873007383838,-1.23779296875,-0.50109863281,0.03186218252843998,0.20297580294808076,-0.03662109375,0.38745117187,0.011728328878287758,-0.5884454900526263,-0.7919921875,-0.32739257812,0.013018674471123622,1.022459364638485,0.60042308056,1.49271861206,0.03828793563863058,974.3895212081998,974.2934125342,974.50668176789,0.0031254639189535194,0.000840405276718065,Stairs down
-0.8084252929645999,-1.38879394531,-0.5419921875,0.03927906468079539,0.22894042968300007,0.04345703125,0.35778808593,0.008863945946392492,-0.48699707030779993,-0.66760253906,-0.22546386718,0.00912656822582215,0.9815983909157998,0.58862381899,1.52730743189,0.03665939712933561,974.479138018324,974.37779470639,974.78168319495,0.007981089284272993,0.0013000766766295482,Stairs down
-0.7671406056580197,-1.48132324218,-0.29907226562,0.08960898973538935,0.015389319693267327,-0.3984375,0.39929199218,0.05068490751125905,-0.7420932278736633,-1.23791503906,-0.47106933593,0.03490626599863553,1.1081915122117822,0.61871714504,1.71630601516,0.08566918908711138,974.6449895649783,974.48054413372,974.82498296599,0.011074636394754063,0.0023503115640852446,Stairs down
-0.8140295410117,-1.46459960937,-0.02966308593,0.13209317502769694,0.0022766113276,-0.43322753906,0.49084472656,0.05513663736534694,-0.7112744140588001,-1.0654296875,-0.34448242187,0.04868693698554566,1.1525097520885002,0.6693380609,1.75951488711,0.07458527466832257,974.7180079667528,974.52064375075,974.95115542335,0.012200969762224236,0.0005336922345186316,Stairs down
-0.7900537109339999,-1.12182617187,-0.44482421875,0.026883112444856826,0.10887451171509997,-0.03381347656,0.26684570312,0.007619419332545913,-0.6825573730422999,-0.94274902343,-0.36560058593,0.01871777950369791,1.0595071410234,0.74283870437,1.43286086534,0.03237961540185742,974.798479503196,974.7377160844,974.85974865983,0.0011806418145955235,0.0005096871997893074,Stairs down
-0.7993298339808999,-1.25158691406,-0.44555664062,0.04462061352653724,0.0788720703113,-0.06628417968,0.30786132812,0.010583405927599519,-0.6881188964806,-0.95690917968,-0.41259765625,0.01545526681949163,1.0659300934791,0.69584246594,1.53263875207,0.052931648370645054,974.8051327511689,974.75261365731,974.87371442671,0.0009720225860087589,9.076274967475804e-05,Stairs down
-0.7820104980437,-1.31701660156,-0.42431640625,0.05109686136727988,0.1124389648429,-0.15954589843,0.42578125,0.029950573437548186,-0.5690942382776,-1.02551269531,-0.17102050781,0.04194312384038266,1.014280009269,0.59151457042,1.49803412778,0.04146253309238871,974.8618804339754,974.7626655139,975.13303006316,0.008902393818341492,0.0018377943585156308,Stairs down
-0.6491271972613,-1.09655761718,-0.37426757812,0.03824324540864651,-0.0775976562482,-0.53002929687,0.25659179687,0.04565570717965449,-0.7409680175745998,-1.314453125,-0.38793945312,0.044339911352526795,1.0288540874798,0.59846059739,1.49769689657,0.04528975710076908,974.9174616308809,974.60079026087,975.46175241958,0.05013574878291516,-0.0030387242149786057,Stairs down
-0.6861083984334999,-1.150390625,-0.31457519531,0.036525476460301,-0.08824951171779999,-0.55700683593,0.39379882812,0.05103899788858037,-0.7036315917931,-0.98291015625,-0.46411132812,0.012708297093549028,1.0206873688091003,0.66391291336,1.46604873941,0.031411582398621025,975.0735609326163,974.89409181223,975.21829087667,0.011320087203094794,0.0020693049358169106,Stairs down
-0.7585998535114998,-2.0400390625,-0.20483398437,0.20268682168465335,0.050708007811100006,-0.57873535156,0.45178222656,0.07908925564443126,-0.6617285156216,-1.1025390625,-0.2421875,0.040940406732113736,1.0984265631100998,0.57176986415,2.14239354412,0.13017987158084934,975.2501877727805,975.03396560999,976.03138825549,0.050045628599135195,0.000653508339089481,Stairs down
-0.9496838378871,-1.44555664062,-0.46459960937,0.058070182106516766,0.1933251953082,-0.01574707031,0.41845703125,0.01187263958389386,-0.5107714843722999,-0.765625,-0.29248046875,0.016932954426956377,1.0993274122841,0.57656356945,1.65087378387,0.07166968520162087,975.3416868754651,975.22451260209,975.53385974657,0.003616974438455126,0.000687388484486265,Stairs down
-0.6000549316368999,-1.30725097656,-0.02282714843,0.16031349378895993,0.338057861324,0.01232910156,0.69116210937,0.05130677291092883,-0.6282629394486999,-0.7861328125,-0.41674804687,0.012799306606816944,1.0223191848811002,0.74562100717,1.50889956862,0.04656790047285694,975.407796934428,975.31321398962,975.58257374884,0.0068348627038922385,-0.0011642779284289316,Stairs down
-0.7567993164022999,-0.89013671875,-0.58813476562,0.005481559670497246,0.31284423827820007,0.16479492187,0.68603515625,0.025781343193937576,-0.6178247070271999,-0.728515625,-0.50988769531,0.0035695829717649593,1.0413336359532002,0.94604436271,1.12514200241,0.002457081774364943,975.3569362391493,975.324327929,975.40018175458,0.00043795182984634757,0.0006022577352847833,Stairs down
-0.7984313964816999,-0.84057617187,-0.66564941406,0.0014307346533137103,0.17956542968280004,0.12280273437,0.22546386718,0.0006741706770808674,-0.6104077148390998,-0.72399902343,-0.54418945312,0.0018848082693790507,1.0222816481173003,0.92853787611,1.12374886507,0.0012364294419533507,975.3912628818939,975.38253586129,975.40298538829,3.335754311051968e-05,0.00012241013613296988,Stairs down
-0.8140136718714,-0.82067871093,-0.80712890625,2.1923672071136166e-05,0.19614746093420002,0.16040039062,0.23010253906,0.00039121921615588805,-0.5824853515583999,-0.59240722656,-0.57202148437,4.076899903560804e-05,1.0201844362116,1.0046289418,1.03545385437,5.4907158109371585e-05,975.3975748235455,975.39065825641,975.40529350771,2.1545050433992182e-05,-1.8143708942423655e-05,Stairs down
-0.8152075195266,-0.8251953125,-0.79772949218,6.130499671624065e-05,0.20701782226169999,0.18530273437,0.23962402343,0.00017367556085568582,-0.5806970214812999,-0.60168457031,-0.552734375,0.00015730064776560458,1.0222142700483001,0.99778879341,1.0359912959,9.601403006752734e-05,975.3927955719206,975.38498383045,975.40006759387,1.9183764803835415e-05,-8.270629743339355e-05,Null
-0.8140136718698998,-0.82702636718,-0.80114746093,5.807388913023423e-05,0.20167236327750002,0.17602539062,0.23889160156,0.00019639293955630834,-0.5847753906206998,-0.60510253906,-0.56982421875,7.840313092413736e-05,1.0224358782686,1.01204559025,1.03164268011,3.5728247653006345e-05,975.3989241085015,975.39087828792,975.40377976147,1.4545361320615645e-05,-7.589957962410809e-06,Null
-0.8051318359339998,-0.81799316406,-0.78649902343,6.472929559386346e-05,0.21068847655880008,0.17114257812,0.2275390625,0.0001030684480825965,-0.6000585937447999,-0.64538574218,-0.58544921875,0.00023643382870547165,1.0261630475955998,1.0027807881,1.05429090884,8.768921645118916e-05,975.3977249004002,975.3913420087,975.40309013788,1.2619412769054387e-05,-7.653829173573302e-05,Null
-0.7934619140603999,-0.81787109375,-0.76416015625,0.0002587076148747938,0.20177734374600004,0.14379882812,0.2568359375,0.0010253762717862315,-0.6073144531211999,-0.65417480468,-0.56042480468,0.0008458517055494042,1.0200172818987996,0.97416402392,1.0669695376,0.0008082134812775674,975.3919982081123,975.38280957172,975.40333563899,2.3913208833392568e-05,-3.913570617911185e-05,Null
-0.788339843746,-0.89233398437,-0.69348144531,0.003405385450834991,0.1948388671848,0.1181640625,0.24731445312,0.001883543284204749,-0.6264843749967999,-0.73315429687,-0.54956054687,0.00330050627387957,1.0290646818748,0.94290791641,1.09824880034,0.0014686734298745285,975.3912930152976,975.38283321605,975.40072109034,2.3805270896514042e-05,1.583698416873865e-05,Null
-0.7849023437455999,-0.80163574218,-0.77294921875,4.384724779732085e-05,0.19062011718359997,0.13427734375,0.23327636718,0.0006993757113154455,-0.6321582031207998,-0.64135742187,-0.62048339843,3.744481790208926e-05,1.0260486696324,1.00973455355,1.03386588374,2.8990620707552924e-05,975.3945453363443,975.38283321605,975.40551279445,2.951134776407252e-05,3.5063863512824335e-05,Null
-0.7785717773400997,-0.787109375,-0.77075195312,1.9022256442576767e-05,0.19484130858990006,0.17639160156,0.2177734375,0.0001529283655997417,-0.6329992675741999,-0.640625,-0.62133789062,2.397174034918943e-05,1.0222524982611,1.01572693533,1.03156914252,1.920575224492417e-05,975.3935896545445,975.38736425453,975.4009181755,1.6951844117976998e-05,-7.689000314208137e-05,Null
-0.7795410156217,-0.787109375,-0.77233886718,1.4048032087390011e-05,0.1767321777304,0.14001464843,0.19775390625,0.0002500202002975278,-0.6326525878874,-0.64978027343,-0.62194824218,5.9278232585066275e-05,1.0195308971358001,1.01048331516,1.03685074075,4.5068109977316204e-05,975.3888528475259,975.38256521613,975.39788536614,1.257395256510677e-05,2.9288111753145825e-05,Null
-0.7880310058561001,-0.90441894531,-0.75183105468,0.0011466944383547383,0.17539306640229996,0.1337890625,0.25915527343,0.001291507536685736,-0.6222644042933,-0.64575195312,-0.54382324218,0.0009780664922658363,1.0207266491339,0.97402480182,1.08785470324,0.0004399763389096887,975.3853538968266,975.3616868063,975.39539562803,0.00010160252322829668,-0.00026729091828063463,Null
-0.7829638671832,-0.93505859375,-0.5546875,0.015875421967112793,0.10973632812240001,0.0341796875,0.23510742187,0.002941056309277343,-0.6554345703091999,-0.76123046875,-0.52160644531,0.004269763339664949,1.0338535347071995,0.80520866701,1.16805526004,0.008758790863897617,975.3814184133007,975.36377357574,975.42673512249,0.0002210635696615438,-1.715503313269928e-05,Null
-0.8445458984327999,-1.00244140625,-0.61999511718,0.014925227165247409,0.1340087890576,0.00756835937,0.25830078125,0.005526746162284717,-0.5568457031211999,-0.79382324218,-0.3720703125,0.014128316195169584,1.0355975473248,0.93605626519,1.14373737442,0.0030964381730474097,975.3838343428475,975.36768548755,975.41206978354,0.000143434053929114,0.00027709850624951777,Null
-0.8278759765587997,-0.96264648437,-0.77307128906,0.0021065936907265163,0.22654785155919996,0.11633300781,0.33569335937,0.0030407126744144567,-0.57659179687,-0.66223144531,-0.46850585937,0.002650282696134883,1.03741810906,1.00478752581,1.11591817198,0.000650446458445399,975.3870959076013,975.36609926009,975.41258463149,0.0001242782723380589,0.0003035374606177657,Null
-0.7736279296839998,-0.87268066406,-0.6572265625,0.002628426455429011,0.13692871093279999,0.05651855468,0.20532226562,0.0016315796400202668,-0.6489550781219999,-0.703125,-0.59924316406,0.0010812659215220367,1.0211817872344002,0.95435142564,1.07891030666,0.00087672283006826,975.3839828453075,975.37290690171,975.39501092192,4.067352721158921e-05,5.603699333465943e-05,Null
-0.7724267578096001,-0.87817382812,-0.55798339843,0.009074241850407514,0.1316748046852,-0.15759277343,0.24206542968,0.012109272069928621,-0.7122167968711999,-1.34985351562,-0.54272460937,0.05373831122802395,1.0839535389884003,0.93476121122,1.50411532546,0.02065802861086148,975.390793954623,975.37819193514,975.40652933854,7.416851117506743e-05,-0.00015510041037056078,Null
-0.6932080078083999,-1.17065429687,-0.02758789062,0.09227114889347736,0.0593066406228,-0.26818847656,0.28735351562,0.027532779422867946,-0.6765673828083999,-1.09899902343,-0.30126953125,0.04940878270787072,1.0052778590175997,0.36610555531,1.582283598,0.0997323770472667,975.3555812230906,975.29830319719,975.39854853909,0.0007225569003295557,0.00031374613545369855,Null
-0.8475195312459999,-1.01501464843,-0.76171875,0.005373030383092723,0.131499023434,0.0458984375,0.20434570312,0.0018796442494230239,-0.5828906249963999,-0.72973632812,-0.44128417968,0.008810595406393019,1.0426835971952,0.92145097,1.19017471073,0.00409735676293994,975.3837625894312,975.36145883961,975.42628368062,0.00034897308159794474,0.00010290540388018563,Null
-0.8087805175744001,-0.83190917968,-0.76623535156,0.00037419267823538016,0.1364880371065,0.10168457031,0.17199707031,0.00036783979844325537,-0.6149938964805999,-0.75219726562,-0.56652832031,0.002574338893453353,1.0264627588944004,0.98275302288,1.08882780132,0.0006361766163404197,975.3871851134172,975.36145883961,975.41064639315,0.0001653827112944395,0.0001488475900648605,Null
-0.8085302734336,-0.82702636718,-0.794921875,7.203386286215969e-05,0.1494677734344,0.11962890625,0.17114257812,0.00027146493546398163,-0.6113525390587998,-0.62341308593,-0.59765625,4.065157186302478e-05,1.02475355414,1.00620002533,1.03970327195,7.495708347570513e-05,975.39535569263,975.38711732583,975.40628015999,4.05678503872874e-05,0.00011968019353757019,Null
-0.7871582031215999,-0.85241699218,-0.728515625,0.0022643539640284345,0.1309619140584,0.05480957031,0.23498535156,0.0029981927197134783,-0.6342626953092,-0.70361328125,-0.57360839843,0.0022193365868596613,1.0228361054339998,1.0042307882,1.06293487064,0.0002743355506550552,975.4004869448754,975.38663565171,975.413869172,6.39619110804291e-05,9.484003530723663e-05,Null
-0.7771582031212,-0.84033203125,-0.72473144531,0.0016079323701472796,0.1169335937452,0.06213378906,0.18347167968,0.001360167060217536,-0.651201171872,-0.70947265625,-0.5791015625,0.0019576427671424753,1.0228622578048,0.9863396219,1.05414961061,0.0003440309159700137,975.4012633272259,975.38537224821,975.42412398407,0.00011474835342414536,0.00022173196742647334,Null
-0.8017822265584001,-0.82250976562,-0.79040527343,6.148309418943337e-05,0.15321777343440002,0.0986328125,0.18249511718,0.00032808284564110255,-0.6140332031215999,-0.64819335937,-0.59594726562,0.00015938363894682769,1.0216322983516,1.00403620847,1.05582291275,0.00017990556386808374,975.401952075687,975.38960931095,975.41163998026,4.151612323861395e-05,0.00015337007126190895,Null
-0.7935498046835999,-0.79870605468,-0.78430175781,1.854882095016671e-05,0.1532470703084,0.14270019531,0.16174316406,3.994956161935271e-05,-0.614965820308,-0.63415527343,-0.60229492187,6.33507063712565e-05,1.0156186165767997,1.00698703405,1.02574554113,2.8660082990166907e-05,975.4027587331879,975.39638943727,975.40777899871,4.494513940036862e-06,-4.1713655217172285e-05,Null
-0.7958544921840001,-0.8046875,-0.78381347656,2.607658657082051e-05,0.15652832030840003,0.14758300781,0.16149902343,1.4606774456318061e-05,-0.6199804687459999,-0.63781738281,-0.60803222656,6.300189278966914e-05,1.0209390929492002,1.00943059915,1.0336190524,4.7763945419319834e-05,975.3935678323943,975.38510172475,975.40352285114,3.26566567497427e-05,-0.00017334559537051207,Null
-0.7947216796832,-0.80810546875,-0.77819824218,3.902825444305063e-05,0.1530615234332,0.11962890625,0.1669921875,0.00021118265208468575,-0.6107128906216001,-0.62585449218,-0.58801269531,0.00010255909929837038,1.0140402038496001,0.99738070806,1.02738300582,5.2848658492109235e-05,975.379570039422,975.37409552796,975.38888827736,1.574305609176666e-05,-4.228671069337735e-05,Null
-0.7910742187459999,-0.84301757812,-0.7333984375,0.0007889260185093909,0.1323046874956,0.03955078125,0.20581054687,0.002240764588945903,-0.6229101562451999,-0.69909667968,-0.51953125,0.0016237729968167087,1.0173901625844,0.95132965878,1.05355458341,0.0008527259582169632,975.372418147351,975.3510815333,975.3916716858,0.0001551410363442228,-0.00013138873436450732,Null
-0.7904492187456,-0.81494140625,-0.76281738281,0.00023103709175053367,0.132714843746,0.10485839843,0.16662597656,0.00027447276645068856,-0.6231787109343999,-0.65478515625,-0.59460449218,0.0002793217186926265,1.0155351406524002,0.98166529529,1.04182846799,0.0002426912028907628,975.3781926769013,975.36969201445,975.38531994683,1.967951044856714e-05,-1.1171587048434286e-06,Null
-0.7980566406215999,-0.806640625,-0.78747558593,2.924447108065814e-05,0.14844238281,0.1318359375,0.15979003906,3.422086888585562e-05,-0.6214843749968,-0.63354492187,-0.6025390625,6.810944490627466e-05,1.022378648002,1.00845710336,1.0342781373,4.49799660922342e-05,975.3748964365406,975.36225862117,975.38122018498,1.8453360365223855e-05,-5.071219758545491e-05,Null
-0.8153417968704,-0.83569335937,-0.78649902343,0.00030106669728305715,0.14936035155959998,0.11437988281,0.18774414062,0.0003315247429782749,-0.5918994140592,-0.6259765625,-0.55334472656,0.0004969951841321842,1.0190735912159998,1.00822846012,1.03214238309,4.341732482101742e-05,975.3746637328899,975.36033146491,975.3859034211,3.803698184409351e-05,4.2788010211067625e-05,Null
-0.8648828124967999,-1.04052734375,-0.72973632812,0.004567317673659492,0.17599121093280004,0.06762695312,0.25268554687,0.0028653139056313086,-0.5273339843716,-0.65417480468,-0.38598632812,0.0051036169071627235,1.0330768671652002,0.92525277968,1.15120716616,0.002262009375097386,975.3744617074638,975.3510774837,975.39279632416,0.00015655480888933165,6.384992777400438e-05,Null
-0.8528369140588,-1.03930664062,-0.73657226562,0.00573691103181577,0.16786132812000001,0.02795410156,0.28308105468,0.0057267014666701685,-0.5673046874972001,-0.71850585937,-0.3896484375,0.00903490442226957,1.0464589525008001,0.94198190334,1.14484162402,0.0025858872688796137,975.3620455806287,975.34405319304,975.39434925225,0.00026556978885933344,-3.986921751674241e-06,Null
-0.8147119140596,-0.98217773437,-0.73449707031,0.004173491121504905,0.1384912109344,0.07482910156,0.21313476562,0.0022072287761988074,-0.6078662109348,-0.68115234375,-0.48046875,0.003651269614114343,1.0299097008811997,0.95617869023,1.15101519147,0.0016710368296237606,975.3695938173437,975.35096475946,975.38761071062,8.305195336956733e-05,-8.210522943424446e-05,Null
-0.7787451171832,-0.99560546875,-0.71057128906,0.004837173548613272,0.1304345703084,0.0712890625,0.15161132812,0.00025137520798900435,-0.6545214843716,-0.70324707031,-0.52600097656,0.001439029134856686,1.0278941871224,0.95476467551,1.14940855272,0.001769040775625664,975.3711626826276,975.35804038875,975.42795287486,0.0001912951102938627,0.0001674452687193288,Null
-0.89467285156,-1.037109375,-0.77966308593,0.005896688326542377,0.18191894530920005,-0.04614257812,0.30041503906,0.008123863248817748,-0.4650097656212,-0.66906738281,-0.26928710937,0.014167520590624373,1.037718663458,0.98651743667,1.10510909224,0.0008224879363955627,975.3614178905518,975.34002870826,975.42795287486,0.00029742941514825165,-0.00013191277831136228,Null
-0.8540917968715999,-0.99609375,-0.65368652343,0.00943913426074035,0.32909667968399986,0.07482910156,0.65710449218,0.020792027290261434,-0.4688769531203999,-0.78088378906,-0.20910644531,0.020403497724679087,1.0486416384072,0.899122052,1.18573444648,0.008183884962601829,975.3749438147906,975.32957527391,975.44781509044,0.001163762319817475,-2.771538887239344e-05,Null
-0.9434814453079998,-1.07116699218,-0.81787109375,0.0057433398081526196,0.2460986328084,0.19482421875,0.30200195312,0.0011152082982344845,-0.31304199218479994,-0.60913085937,0.02502441406,0.04105909434191033,1.0459904637256003,0.95885301921,1.13819022485,0.0020802822238769735,975.3656694381108,975.32695815286,975.42292668113,0.0006439245826859185,0.00047320520112802307,Null
-0.8933642578088,-0.96630859375,-0.79479980468,0.0018433309324274063,0.25166992187199994,0.17687988281,0.33996582031,0.001692946173929145,-0.41190917968479995,-0.54248046875,-0.17297363281,0.008356595135547215,1.0208594869056002,0.94854400734,1.06683626692,0.0007338086164619713,975.3681830752362,975.35258342875,975.37845900235,6.645914827365568e-05,0.00014928774916704368,Null
-0.8694189453095998,-0.88110351562,-0.85461425781,5.7577508879323494e-05,0.2352343749956,0.20703125,0.25854492187,0.00017676025930278764,-0.4703710937455999,-0.50109863281,-0.45007324218,0.0001759270465645054,1.0162536999587997,1.00271335188,1.04423249936,0.0001091504637294732,975.3728162546063,975.36740070568,975.37608676915,8.520948072774099e-06,1.771202055817763e-05,Null
-0.8652050781211998,-0.87170410156,-0.85473632812,1.7280867608528648e-05,0.2356933593712,0.21313476562,0.25439453125,0.00013979276021436042,-0.47503906249599986,-0.48608398437,-0.45703125,7.377142857512627e-05,1.0148743676768002,0.99877408254,1.02485236436,5.2375954253216246e-05,975.3698546093257,975.36569972974,975.37420211896,6.749961452071017e-06,-3.6796162034346096e-05,Lift down
-0.8658886718712,-0.87097167968,-0.86010742187,1.3242923847574375e-05,0.2404980468712,0.22607421875,0.25769042968,6.480371108211211e-05,-0.47290527343399985,-0.48962402343,-0.46081542968,5.832041152268291e-05,1.0155585086435999,1.00838047848,1.02161876312,1.799915752102028e-05,975.3699627671234,975.36444564478,975.37534025599,8.05551711670728e-06,-2.3503213000242757e-05,Lift down
-0.869399414058,-0.88000488281,-0.86242675781,2.1596532880351374e-05,0.2427343749956,0.23352050781,0.25341796875,2.2570436658728885e-05,-0.4668457031215999,-0.47595214843,-0.45739746093,3.0115397284949105e-05,1.0162592043788,1.01001776935,1.02227359574,1.1108640212701232e-05,975.3703245247257,975.36474138018,975.37379156806,5.030320217505485e-06,-6.651726042989512e-06,Lift down
-0.8658203124959999,-0.8720703125,-0.86022949218,1.2058200265792695e-05,0.24701171874680003,0.240234375,0.25256347656,1.11624688789171e-05,-0.4724707031208,-0.48559570312,-0.46130371093,3.887561836046401e-05,1.0168236903344001,1.0087907612,1.02459473739,1.9420341529442263e-05,975.3659936963683,975.36147944193,975.37468605489,8.223564867903094e-06,-3.579634359557916e-05,Lift down
-0.8638037109336,-0.87158203125,-0.85803222656,1.5802479755808084e-05,0.24480957030880007,0.236328125,0.26049804687,4.050962851860301e-05,-0.47869628905959993,-0.49353027343,-0.46643066406,5.0807384523183975e-05,1.0174977326032002,1.00605355767,1.03207955084,4.356196370339665e-05,975.372984977426,975.36409649448,975.37967912087,1.6128063140144614e-05,0.00010264101400715601,Lift down
-0.8647167968707998,-0.87524414062,-0.85534667968,3.8627759359412476e-05,0.24381835937200003,0.22436523437,0.25732421875,5.958764240337458e-05,-0.47627929687079984,-0.49194335937,-0.46057128906,6.879185185950222e-05,1.0169141007515998,0.99996425147,1.03340298426,7.631178042856275e-05,975.3814649936094,975.37778266183,975.38916788124,5.8327667341823544e-06,1.688914969914712e-05,Lift down
-0.8299072265588001,-0.88037109375,-0.71862792968,0.0025585396121881715,0.22812011718320005,0.19018554687,0.25500488281,0.0003809679397490946,-0.49977050780839993,-0.57348632812,-0.46496582031,0.0011336903620202984,0.9965166969819998,0.89431475222,1.02793508271,0.0015578703101642856,975.3837639461796,975.37374066085,975.39151872606,1.6553540325971332e-05,-2.5511227898659275e-05,Lift down
-0.8566503906208002,-0.9248046875,-0.81921386718,0.0006690395240061394,0.22825683593240004,0.17419433593,0.29284667968,0.0011026188821282377,-0.45110839843399986,-0.53125,-0.35205078125,0.0037247919313016333,0.9971455448751996,0.92372883269,1.02815807544,0.0005980911219694278,975.4483230728301,975.39482802321,975.54253814327,0.0025455338228554066,0.0016748750144871618,Lift down
-0.8626733398412999,-0.87512207031,-0.85009765625,3.0216538549271147e-05,0.22994995116740008,0.20483398437,0.24597167968,9.894442528885736e-05,-0.4865783691376,-0.51318359375,-0.46923828125,0.00011355809941940722,1.016881507089,1.01030642196,1.03317853469,3.340710872437898e-05,975.6437578550716,975.5475553526,975.75310082972,0.0039022524397956983,0.0021445121449014527,Lift down
-0.8961425781215999,-0.91259765625,-0.86254882812,0.00012843175369440997,0.23557128905840002,0.22583007812,0.24658203125,4.1874972248086326e-05,-0.5151708984335999,-0.53234863281,-0.48999023437,0.00011356854679721828,1.0602340750775996,1.02688981677,1.0846619971,0.00015267647195514906,975.844290181763,975.75310082972,975.90488824609,0.0020562665532842805,0.0015294570825340722,Lift down
-0.8796240234332001,-0.88696289062,-0.87023925781,1.9265328990906128e-05,0.2379687499976,0.21350097656,0.25439453125,0.00013912817444194288,-0.4537304687468,-0.48608398437,-0.42443847656,0.00022687873453585469,1.0181023866863999,1.0048794167,1.04077989582,8.872382398821458e-05,975.9255215890449,975.90488824609,975.94166410278,0.00010657003611798437,0.00032230545858728446,Lift down
-0.8601074218712,-0.95275878906,-0.71472167968,0.004632878785131073,0.20568359374719997,0.1240234375,0.26684570312,0.0018498301264903646,-0.49227050780879994,-0.61145019531,-0.37121582031,0.006553790448762974,1.0180753002056002,0.95207398734,1.0672751649,0.0008581699318776139,975.94350028025,975.93070257512,975.96427574856,9.172188495914146e-05,2.9480257496493514e-05,Lift down
-0.8854980468724,-0.96203613281,-0.84228515625,0.0013416692464223543,0.24442871093440005,0.17687988281,0.31518554687,0.001499847787721777,-0.4580615234331998,-0.50451660156,-0.39135742187,0.001486824112685002,1.0282312363132002,0.98428363224,1.08450512448,0.0007051791899536944,975.9576616751212,975.94091419853,975.97424403336,8.362976412436054e-05,0.00016777523913620481,Lift down
-0.8642968749959999,-0.87890625,-0.85034179687,5.098391061895322e-05,0.2242480468716,0.1591796875,0.27429199218,0.0010661530734450302,-0.4920263671843999,-0.51928710937,-0.4599609375,0.00019056835560544609,1.0200516118979999,0.99612968978,1.05329167578,0.00017733132600432033,975.9580505329131,975.94422485963,975.97341449367,5.615953647571842e-05,0.00011426374517664507,Lift down
-0.8240527343716001,-0.86596679687,-0.7705078125,0.0008844220035711795,0.19092285155799996,0.13256835937,0.25549316406,0.001804428245085666,-0.5576367187463999,-0.60327148437,-0.48107910156,0.0012774668317783486,1.0149023596643998,0.96570293303,1.04350302795,0.0003767763878182821,975.9470222389247,975.93246462428,975.9632354442,8.120928429258721e-05,-9.621099120460283e-05,Lift down
-0.8721972656215999,-1.00537109375,-0.69812011718,0.0067062443916803376,0.17657226562079997,0.1015625,0.2294921875,0.0011147177821394401,-0.49004882812199996,-0.59802246093,-0.35998535156,0.004918842749042904,1.0195465196136004,0.88503348904,1.14626405018,0.005243424550528756,975.9325348731177,975.91261719692,975.94643258121,8.510129130849916e-05,-0.00010375916701003362,Lift down
-0.8765820312447998,-1.02075195312,-0.69677734375,0.0075241429396562046,0.19492675780879998,0.12512207031,0.28723144531,0.0024293368271993635,-0.4990136718727999,-0.62646484375,-0.34765625,0.0050749862072463235,1.0314761204191998,0.87865333308,1.18034186119,0.006406401461935063,975.9244779799587,975.90177568946,975.95665181208,0.00027287492501432164,5.5744357561223706e-05,Null
-0.9020556640591999,-0.98156738281,-0.85803222656,0.0011813265868203797,0.19503417968320005,0.107421875,0.24584960937,0.0015423496805041128,-0.44984863280919996,-0.49182128906,-0.39270019531,0.0008228423378583015,1.0277490105916,0.95738476821,1.11094667696,0.0013632014079362068,975.9374610718171,975.91865399256,975.95665518712,0.0001609911142171407,-4.74543582415618e-05,Null
-0.9102966308552999,-1.06469726562,-0.70922851562,0.008920219924381752,0.23347534179389995,0.12280273437,0.36608886718,0.004938723660140872,-0.38552124023099993,-0.53552246093,-0.10021972656,0.019171626789099356,1.0298325121808003,0.87207985559,1.14579942898,0.00396220158274424,975.9342826124999,975.90881681731,975.97617079726,0.00018372382989713582,-0.00022534361388492624,Null
-0.8431396484344,-1.03869628906,-0.49572753906,0.016890965327163412,0.217900390622,0.11218261718,0.42956542968,0.007314347835476376,-0.5301074218724,-0.66796875,-0.3818359375,0.007673908821318351,1.0314373693492,0.8070562091,1.18738827681,0.007147786455663445,975.9343006706034,975.90166605551,975.96909734557,0.00035813584065426006,-0.0003563298204948066,Null
-0.946850585934,-1.19470214843,-0.70471191406,0.021227359771746866,0.2426123046836,0.11267089843,0.3671875,0.0059539502558769745,-0.3551611328092001,-0.67565917968,0.24938964843,0.0770845113603383,1.0845547207356,0.90660113076,1.23197649662,0.00857617538527215,975.9377014925668,975.89663922356,975.98094994253,0.0007261071498480388,0.00023368330963892682,Lift up
-0.9050878906216,-1.1025390625,-0.62133789062,0.01218169761440273,0.25669433593480007,0.11474609375,0.33740234375,0.0033890667346978005,-0.38998535155919994,-0.50170898437,0.05200195312,0.020000350932449795,1.0328798656712002,0.821652807,1.14198598271,0.005595185353812013,975.9313677998446,975.90096808236,975.95109912161,0.00019346383619857867,0.00037055520517989917,Lift up
-0.8700146484335997,-0.88317871093,-0.85864257812,3.619950226442255e-05,0.27876464843359994,0.26477050781,0.29772949218,7.21660286388287e-05,-0.4474560546831999,-0.45556640625,-0.43530273437,2.4805261635201616e-05,1.0173197162660004,1.00363339527,1.03095434025,4.502278882525317e-05,975.9452221700573,975.94018603194,975.95045332096,1.0254570507980488e-05,-5.511730387310658e-05,Lift up
-0.8749755859335999,-0.88464355468,-0.86596679687,2.152630776668541e-05,0.26476074218479995,0.25207519531,0.27905273437,5.4037835861763144e-05,-0.44750976562079986,-0.45947265625,-0.43762207031,3.802776337789516e-05,1.0178575599608002,1.00837252086,1.029891492,2.4202553720335086e-05,975.9412758726097,975.93826078432,975.94563277083,5.344823244527472e-06,-3.019496063432133e-05,Lift up
-0.88031738281,-0.888671875,-0.87121582031,1.8811081399640944e-05,0.2584716796832,0.24792480468,0.26489257812,1.5063719319592409e-05,-0.4396337890587999,-0.45166015625,-0.4296875,3.437336044519314e-05,1.0173913668364003,1.00591713452,1.02976936917,2.681265082293428e-05,975.9421346602612,975.93862276407,975.94657842547,5.986344961366438e-06,3.6890345093378374e-05,Lift up
-0.8812548828095998,-0.8896484375,-0.873046875,1.6688433563638337e-05,0.2593017578092,0.24670410156,0.27905273437,5.540221629309698e-05,-0.4388183593724,-0.44836425781,-0.4287109375,3.031769183778212e-05,1.0180859568015999,1.00928344872,1.0253321095,1.1607495398209575e-05,975.942013921029,975.93857003885,975.94630033947,4.181124406885543e-06,2.7702792690342745e-05,Lift up
-0.880843345561212,-0.88598632812,-0.87524414062,9.609316828013753e-06,0.2568310053628283,0.24572753906,0.27392578125,4.00792333558225e-05,-0.43312766334797964,-0.4423828125,-0.42224121093,3.0063355351728965e-05,1.0146849816311112,1.00802105956,1.02326990167,1.593054040441637e-05,975.9430196675415,975.93760809118,975.94622624102,7.217725409525315e-06,-2.0395809021945428e-05,Lift up
-0.8803320312463999,-0.8876953125,-0.86877441406,1.839160919442176e-05,0.25416992187160004,0.24401855468,0.26281738281,1.635055349625257e-05,-0.4339208984336,-0.45654296875,-0.41687011718,9.549834512985127e-05,1.0138966914567995,1.00605817885,1.02030224349,1.678553413413882e-05,975.9388069173012,975.93197144561,975.94541671904,1.2895646508616312e-05,-6.199478144964743e-05,Lift up
-0.8795323135792078,-0.90185546875,-0.86743164062,7.773746948905467e-05,0.25183588915158417,0.2177734375,0.28796386718,0.0003365397217071028,-0.4391920637339603,-0.47705078125,-0.41394042968,0.0002541813343055837,1.0150990579342576,0.99085502811,1.04348831236,0.00012505541771239473,975.9382674688719,975.93423425601,975.9460926668,8.844181799190885e-06,5.54608125035145e-06,Lift up
-0.8784960937455999,-0.88464355468,-0.87365722656,1.041682079693813e-05,0.2507470703092,0.24267578125,0.25891113281,1.856693113226898e-05,-0.4359716796835999,-0.447265625,-0.42687988281,3.4580471538670894e-05,1.0122984600336005,1.00444498709,1.02211263675,1.569886797916869e-05,975.9381750609449,975.93332940565,975.94320225611,7.89612626809761e-06,1.7911728388455808e-05,Lift up
-0.9174951171844,-0.93420410156,-0.87927246093,0.00020392533504016522,0.25986816405759994,0.25170898437,0.26794433593,2.6055875452009345e-05,-0.46365234374599995,-0.48510742187,-0.44006347656,0.00013322093269912502,1.0603602631067999,1.01605360817,1.0808756817,0.0003009405626909651,975.9214176460598,975.87497265789,975.94148653176,0.00045883081833248123,-0.0006833482190165459,Lift up
-0.8835156249959999,-0.9091796875,-0.87194824218,8.969388827561255e-05,0.24977050780880003,0.23828125,0.26110839843,3.2621585953342994e-05,-0.4454638671836,-0.45947265625,-0.43115234375,4.949386672953559e-05,1.0205373451483997,1.01030223319,1.05066777435,9.781975373452719e-05,975.769267082625,975.66495791399,975.87497265789,0.004044645468854029,-0.0021841365293189126,Lift up
-0.8625585937472,-0.88256835937,-0.83020019531,0.00024173587256592384,0.25267089843359997,0.24206542968,0.26843261718,5.1587904338953975e-05,-0.4411083984344,-0.466796875,-0.419921875,0.00015835458579950773,1.001269718994,0.96361609592,1.02708383905,0.00033600114703745274,975.5532093622746,975.45273429018,975.64516880394,0.003609277324491148,-0.0020625800450156944,Lift up
-0.8535180664033999,-0.8935546875,-0.82971191406,0.0005068441773936619,0.24694824218409991,0.21691894531,0.29406738281,0.0004006726573257107,-0.4335998535121,-0.47314453125,-0.40380859375,0.0002869088767192551,0.9890880821618001,0.96377666631,1.03467379429,0.00048444127205394275,975.399672663408,975.37529483583,975.44615586409,0.000498204452720136,-0.0007139888213329125,Lift up
-0.8859423828084999,-0.90808105468,-0.86572265625,9.504758948022954e-05,0.2586791992152,0.20056152343,0.2998046875,0.0009105667622198528,-0.43590332030929985,-0.46875,-0.40698242187,0.0003297165427626345,1.0212782400349998,0.99856015199,1.04997260591,0.000134618622934032,975.3708156998484,975.36228909464,975.38292123424,2.933882670037509e-05,-8.400639762227927e-05,Lift up
-0.875478416980101,-0.890625,-0.85815429687,6.232081528704339e-05,0.2526201960972728,0.22827148437,0.28930664062,0.0003130293966447995,-0.44902886284363636,-0.46875,-0.43078613281,9.382568519132374e-05,1.016013058836768,1.00134512466,1.03623401748,8.914319696071096e-05,975.3616875448216,975.35499354363,975.36732629523,1.1246379024161238e-05,-4.6690271329992134e-05,Lift up
-0.8823580600210889,-0.92236328125,-0.8642578125,0.00021044198237175543,0.23552439472059405,0.20202636718,0.25073242187,0.0002082166872247553,-0.44317203936762367,-0.46862792968,-0.42150878906,0.0001468001497660345,1.0153375231464357,0.99691233938,1.04030186731,7.930255384261854e-05,975.3618376901976,975.35229443773,975.37684872046,3.501925242221707e-05,4.926289116683132e-05,Lift up
-0.900683593746,-1.01037597656,-0.75268554687,0.005552006490358001,0.19453002929279997,0.11669921875,0.29516601562,0.002473408855270929,-0.43035766601119996,-0.60266113281,-0.33911132812,0.005571272185053593,1.0229716630118,0.94129367804,1.07606888709,0.0012831175440543064,975.3562633282645,975.3339004022,975.39463930225,0.00041023110327268093,-0.0005155338323456972,Lift up
-0.8772119140595999,-1.04248046875,-0.71484375,0.009391680293505157,0.207924804684,0.13427734375,0.28137207031,0.0012601285509817952,-0.4553613281215999,-0.56481933593,-0.30688476562,0.004396939181285755,1.0135820592376,0.86018535381,1.14077555956,0.007714217633048613,975.3481706013279,975.33338596442,975.37133944402,0.00011679861667855711,-0.0001844298582844477,Lift up
-0.9116284179655,-1.06311035156,-0.67529296875,0.011036900504595375,0.20831542968389996,0.09802246093,0.30944824218,0.0038510616620050166,-0.4651098632773,-0.58215332031,-0.318359375,0.005853363474133708,1.0486275362653,0.8610956912,1.21638311512,0.01185766256341097,975.3502477020376,975.31871569022,975.38199920202,0.000265215767126469,0.00023445181005696,Null
-0.9419873046837999,-1.06750488281,-0.77453613281,0.005427704050080422,0.22828002929389996,0.125,0.36328125,0.004044317613602876,-0.4310546874963,-0.53198242187,-0.29833984375,0.004984100057529738,1.065456718654,0.93734023004,1.19089887477,0.004417715911311892,975.3446360834458,975.31791895112,975.38512072403,0.00045570170107417965,0.0001687187268013532,Null
-0.9242163085899,-1.0966796875,-0.70568847656,0.008980659637697144,0.23609374999629998,0.02612304687,0.53479003906,0.02224683450957138,-0.44369018554309997,-0.67919921875,-0.21691894531,0.015592476122155589,1.0724609391203002,0.97979090538,1.17252084101,0.002986191140495696,975.3470786387995,975.30659432221,975.38122656871,0.000409723707699618,-4.087788066666823e-05,Null
-0.8399267578087,-0.87561035156,-0.81274414062,0.0001627101079509534,0.22242431640290003,0.17932128906,0.29907226562,0.001261639926169649,-0.5455798339817,-0.57141113281,-0.52392578125,0.0001893202749885427,1.0265387459558997,0.98775695192,1.06884164751,0.0004268958757635425,975.3497948812893,975.33499839402,975.36173282304,6.0087084141685545e-05,0.00012964065197731143,Null
-1.0026831054646999,-1.47546386718,-0.77697753906,0.04311586991112828,0.27787841796459994,0.01428222656,0.5693359375,0.018873686375063443,-0.3965124511667999,-0.62878417968,-0.01391601562,0.04833347082605411,1.1494363047634002,0.93328857222,1.57497006607,0.028109017395834775,975.3573693130759,975.29291173474,975.43112391119,0.0006147476963062799,-0.00010312826249450998,Null
-0.9700292968705,-1.43969726562,-0.55798339843,0.045173639745410804,0.32197875976259993,0.12561035156,0.83911132812,0.0496059946264059,-0.4833154296832,-0.6494140625,-0.09460449218,0.015919273213019124,1.1547303753069,0.73679931701,1.69598183844,0.05496024439548007,975.326603987192,975.26933803145,975.41163163302,0.0016752097046753918,0.0003852172825355802,Null
-0.8856005859342,-1.15173339843,-0.560546875,0.02348094477813188,0.1997277831992,0.07629394531,0.36120605468,0.007728407495713708,-0.5371301269492998,-0.74963378906,-0.32800292968,0.016191720979240935,1.0611536670848003,0.74574280518,1.42088368726,0.03390738971677606,975.3380834933425,975.27985498953,975.39953430965,0.0011070202587218957,0.00018940314671561306,Null
-0.8884363656051514,-1.53491210937,-0.546875,0.054522368753443476,0.19494012389131313,0.06018066406,0.3798828125,0.007584872104036544,-0.5731386126861616,-0.71789550781,-0.37023925781,0.008345958032178637,1.0838350753739394,0.85437838423,1.73655984488,0.05137067247212498,975.3468815344365,975.28789406545,975.50580417526,0.002959698842015597,0.0008147908116569395,Null
-0.853299282561485,-1.1689453125,-0.57971191406,0.020533392393951785,0.14875778348881188,0.0419921875,0.23754882812,0.0030241050872896152,-0.5552229173075246,-0.77062988281,-0.26879882812,0.01779372363401395,1.0346042989581186,0.66757437011,1.36794979642,0.029347347127538087,975.3924558551995,975.32106382945,975.4813800812,0.0025616058997415094,0.0012501622608728058,Stairs down
-0.8265649414031,-1.1162109375,-0.55480957031,0.02445234420946805,0.18095947265229997,0.0341796875,0.30895996093,0.008199751130110563,-0.5577624511675999,-0.74084472656,-0.2802734375,0.018073026187096632,1.0202645949825,0.64455683108,1.32944846128,0.03669991067647099,975.4782799863958,975.42438545987,975.60218409193,0.002990598686101451,0.0009683353874441505,Stairs down
-0.7702905273406998,-1.13903808593,-0.52172851562,0.026053002260008073,0.17696899413700007,0.02856445312,0.37268066406,0.008133091064318466,-0.6161425781225001,-0.78991699218,-0.43542480468,0.00834982151945992,1.0124240178026005,0.74677287644,1.35823433252,0.02162157761852704,975.6096201237527,975.47568182528,975.91103711819,0.012288454666442988,0.0023971289357441906,Stairs down
-0.8725854492147,-1.146484375,-0.63745117187,0.021858450614054982,0.08471069335849998,-0.06628417968,0.33984375,0.012564134830657134,-0.5671459960899999,-0.74853515625,-0.33715820312,0.010917801995471776,1.0555957271844003,0.8059283661,1.28883295616,0.021051002980533005,975.7337736388195,975.55162137192,976.42320834574,0.03238219882937762,0.0035850333767315436,Stairs down
-0.7607238769486,-1.27380371093,-0.46813964843,0.051773367920225945,0.11582153319959998,-0.17041015625,0.39904785156,0.015660072424721012,-0.6667370605435999,-1.07727050781,-0.296875,0.03172631278648758,1.0438057918416,0.71052334847,1.52917919461,0.04574886559036454,975.7061740118272,975.50860118657,976.07202113831,0.015908481310110287,0.00039431244209783676,Stairs down
-0.9032226562461,-1.21716308593,-0.58386230468,0.024100406603389118,0.1473876953093,0.021484375,0.25744628906,0.0029438222297313785,-0.5383044433547,-0.73706054687,-0.28186035156,0.010239705080543584,1.0665187359644996,0.76856308269,1.38132762388,0.027025104680483726,975.8806802558559,975.76838333148,975.9884576716,0.003417103422045528,0.0010839694259559068,Null
-0.9006750488243997,-1.14990234375,-0.57165527343,0.026952672503037248,0.2658190917941,0.021484375,0.98620605468,0.06244248696472664,-0.5578979492162,-0.70727539062,-0.37768554687,0.009057913013196467,1.1152472678053003,0.76761549453,1.52901333339,0.04729043261150414,975.9102892679407,975.851331282,976.04920122056,0.0030219132947685305,0.0010241506577725018,Null
-0.31727783203080007,-1.34228515625,0.74060058593,0.44661816051667524,0.202607421873,-0.2080078125,0.86950683593,0.06698686821165649,-0.6027172851527999,-0.84680175781,-0.45568847656,0.011062018022390374,0.9766808887837999,0.57355253016,1.55426526685,0.07121003402511783,975.8599625763694,975.69133693328,975.98250549366,0.004926154020937272,-0.0006127111609854017,Null
-0.871634521481,-1.03454589843,-0.67761230468,0.005917584431011642,0.1824682617145,-0.00012207031,0.32360839843,0.00866873685133138,-0.5519055175743999,-0.8359375,-0.421875,0.013255381010753072,1.0577389411784999,0.92523113436,1.23972982521,0.006457296449874628,975.9009755768341,975.86534161099,975.94558558481,0.0002567809647190641,-1.689052636763212e-05,Null
-0.8548436020331311,-0.94946289062,-0.67761230468,0.002890039242244965,0.161101986660202,0.07604980468,0.25256347656,0.0028050658482212678,-0.547075984450303,-0.69885253906,-0.44885253906,0.0032255592737891643,1.0312176214082827,0.9576318919,1.09770999383,0.001438874835499371,975.9092711469522,975.88438864229,975.94314162819,0.00026867284430873075,-0.00013637403911477146,Null
-0.8302860071138612,-0.83666992187,-0.82507324218,1.208053367367137e-05,0.164791296020099,0.13879394531,0.19409179687,0.00020050300817473236,-0.5724988880688117,-0.58679199218,-0.56604003906,3.0156403472387083e-05,1.0219993459484156,1.0144933705,1.03778946124,4.411190549412686e-05,975.911362342648,975.90170963532,975.92214861568,3.0434759725881838e-05,1.3789885952225161e-05,Null
-0.8300817871048,-0.83679199218,-0.82019042968,1.8214473528913186e-05,0.16684692382410002,0.15161132812,0.17907714843,3.096512321746693e-05,-0.5695910644493999,-0.57690429687,-0.55871582031,2.4863293370504893e-05,1.0204723852319,1.01224852282,1.02778515924,1.7235774072475453e-05,975.9169138823037,975.9103374977,975.92360139629,6.5530456744546425e-06,2.8763936554481915e-05,Null
-0.8330163574178999,-0.84045410156,-0.82482910156,1.444998865676421e-05,0.17152099609000002,0.16296386718,0.17797851562,1.7834281683007437e-05,-0.5660803222617999,-0.57421875,-0.55407714843,2.6200171377393095e-05,1.021675016599,1.01327673794,1.0290238382,2.090417621946077e-05,975.918287207417,975.91433390975,975.92371188795,7.236555029194048e-06,3.058078147237873e-05,Null
-0.8344531249964998,-0.84423828125,-0.82458496093,2.404798161524671e-05,0.1604431152318,0.14916992187,0.17700195312,4.5401392255945215e-05,-0.5627001953086,-0.60192871093,-0.54968261718,4.5871349290092314e-05,1.0191993730365003,1.0123158832,1.03635453737,3.265289003075572e-05,975.9171590348914,975.91405194457,975.93277626662,6.735142194862716e-06,-3.5435126403789415e-05,Null
-0.12618530273530001,-1.0693359375,0.41748046875,0.30752069910360313,0.8659997558554999,0.16955566406,1.3388671875,0.06906699527830606,-0.16634277343569998,-0.76391601562,0.3916015625,0.08591584993020702,1.1047654203152,0.81196016938,1.49437812463,0.0312324252406964,975.9664730955893,975.82118919033,976.27544230656,0.02139426599677729,-0.0032572038976694524,Null
0.2595202636685,-0.14733886718,0.46569824218,0.030495072703229924,0.9367443847625,0.62878417968,1.31127929687,0.03212862384879348,-0.2443090820264,-0.41442871093,-0.14221191406,0.004301908877074895,1.0190664223816999,0.69376808263,1.38308108679,0.032613851866964076,975.8626137875387,975.78096327688,975.89588522084,0.0008892845269103844,-0.000496851249347425,Null
-0.7315173339812,-1.29919433593,0.19360351562,0.22125342370702378,0.5838806152321999,0.18542480468,1.42834472656,0.12288758230211719,-0.4305236816367999,-0.67529296875,-0.12573242187,0.031031879323578437,1.1660799219512001,0.53717710588,1.57901739628,0.07380161142285274,975.9039627905063,975.79969507073,976.0015159207,0.003855904242935597,0.0014264626449698664,Null
-0.9754736328093,-1.50268554687,-0.26916503906,0.08133864212514595,0.3621740722621999,-0.14685058593,1.13610839843,0.09800702491534045,-0.35725097655869986,-0.82983398437,0.14111328125,0.05370261271729629,1.1707573178369004,0.73978281465,1.86678085128,0.07110325946400875,975.8384854148386,975.71229980513,976.04125891577,0.008208868242650137,-0.0019127502903978793,Stairs up
-0.9684277343721,-1.30859375,-0.54357910156,0.03373019187100751,0.1486999511699,-0.13989257812,0.31018066406,0.0144896472261544,-0.40544677734109996,-0.66796875,-0.21557617187,0.014901474022002445,1.0732469456895002,0.6880225125,1.3829673745,0.03533548989014395,975.7236828694597,975.6027751581,975.84374430931,0.004398673407050762,-0.0014078610130047644,Stairs up
-0.9057617187462,-1.3759765625,-0.51501464843,0.04435618598079373,0.23841064452750008,0.14282226562,0.37817382812,0.0029366112176727258,-0.4396789550756,-0.751953125,-0.18225097656,0.023722658065336952,1.0429731645946,0.6782314775,1.44900036012,0.05360988763028511,975.6007198746022,975.51088364109,975.76580979018,0.0057890837176169906,-0.0016305106479699652,Stairs up
-0.9381640624963,-1.24194335937,-0.57922363281,0.027816425164484314,0.21413208007480006,0.11901855468,0.33264160156,0.004527842473224231,-0.47985107421599993,-0.76806640625,-0.18225097656,0.02000035836854748,1.0863565546165,0.79301402709,1.45114038158,0.028193964940805442,975.4811759192884,975.33629805619,975.55084188154,0.001986088399107232,-0.0008011811027988113,Stairs up
-0.8900024414024,-1.17041015625,-0.57922363281,0.01766083803441922,0.22487670898099998,0.08422851562,0.32849121093,0.004131822181241891,-0.46301147460589986,-0.71081542968,-0.23486328125,0.015485842569478464,1.0373819694422999,0.79301402709,1.25344741008,0.017977649289457616,975.3552109029472,975.29686839082,975.44347913729,0.0019982606951937623,-0.0008397493325045448,Stairs up
-0.8880468749959999,-1.06494140625,-0.64086914062,0.018270523042574628,0.22781738280930003,0.14135742187,0.32006835937,0.003124371947585904,-0.5140637206999998,-0.71606445312,-0.29345703125,0.012681018612313725,1.0590791969089997,0.86881815896,1.3065607534,0.017046394125578325,975.3189886854456,975.28083579049,975.38410424581,0.0006024112110816516,0.00010316230305099123,Stairs up
-0.8770373535122999,-1.12182617187,-0.60083007812,0.023147426378687577,0.20674926757420004,0.09826660156,0.34985351562,0.006673789293807289,-0.5631689453091998,-0.77819824218,-0.32556152343,0.015217987118189754,1.0729004036699,0.87698857802,1.40222675929,0.022800580431038043,975.3165064701029,975.27507061112,975.38245037384,0.001112423690106564,-0.00021384709398827514,Stairs up
-0.8855627441371999,-1.18029785156,-0.60583496093,0.016030751230654408,0.1650500488248,0.00183105468,0.30139160156,0.0067509313709925665,-0.5606774902312999,-0.79748535156,-0.34130859375,0.020070369272141377,1.0733483338588998,0.84977564445,1.31395276027,0.01633234952618284,975.3210559054663,975.27875092571,975.40490121879,0.0011496441623515033,-0.00015394582700230068,Stairs up
-0.9705786132779,-1.30822753906,-0.68298339843,0.020424743487385384,0.16585815429470002,-0.24182128906,0.48876953125,0.03916731485575374,-0.38863891601219985,-0.56127929687,-0.15551757812,0.012096753883425656,1.0848848763655001,0.94060169362,1.39412076769,0.014715866742189642,975.2934524310086,975.23009936369,975.42067264434,0.0030300230713462563,-0.0007873845735612225,Stairs up
-0.9163403320273998,-1.51416015625,-0.6337890625,0.04166670285709107,0.19249267577819995,-0.01342773437,0.33630371093,0.00877581386230928,-0.44755981444970006,-0.65881347656,-0.2275390625,0.015867582202938407,1.0491939993841,0.76844862481,1.56339872262,0.0423048196244781,975.2030416445867,975.13077599778,975.34784921219,0.003439523345855224,-0.0008647906310545797,Stairs up
-0.8722644042931,-1.33557128906,-0.23291015625,0.0894135095541102,0.26406249999570003,0.04650878906,0.57824707031,0.01028845587161202,-0.4428771972610999,-0.66333007812,-0.20190429687,0.014453118008572942,1.0388851829787,0.64133225919,1.4338699823,0.061056076712924096,975.1465556627023,975.03995215974,975.38359943338,0.008852591688784082,0.0006311745309706192,Stairs up
-0.8793078613246998,-1.37780761718,-0.5576171875,0.03887387456708426,0.27554931640240005,-0.00305175781,0.83142089843,0.026115273435650548,-0.41113647460529995,-0.68627929687,-0.15234375,0.018387562534570287,1.0297930010356,0.68293378307,1.50707503552,0.04061844440393204,974.9128733641257,974.82110926644,975.03995215974,0.0031722937251580457,0.0003203545715302941,Stairs up
-0.8989660644474998,-1.28979492187,-0.71057128906,0.01846482930004427,0.16959960937130003,-0.00305175781,0.28540039062,0.006885895680807643,-0.48004150390249983,-0.67944335937,-0.31494140625,0.008238279608837839,1.0407679892032,0.82582916654,1.35986709457,0.0175747123166236,974.8587683540995,974.78769653935,974.95615371909,0.0023474279953868355,-0.0010927177955836684,Stairs up
-0.8442065429651998,-1.05749511718,-0.63049316406,0.018279082431713688,0.2002209472619,0.11560058593,0.3056640625,0.0032757720246246475,-0.5046350097608999,-0.73364257812,-0.30065917968,0.011897316320852539,1.0092113044022002,0.72468195343,1.29793584476,0.022262424363210874,974.7772730232874,974.72718979304,974.84646737303,0.001121081736157243,-0.0005411163659735255,Stairs up
-0.9277416992156999,-1.13037109375,-0.611328125,0.020040346462315357,0.18708740234040003,0.05261230468,0.36535644531,0.007669732058928844,-0.5273474121067999,-0.72814941406,-0.29638671875,0.018478928929199712,1.0938426172598001,0.86787467226,1.39335053411,0.02326979361207442,974.7559581679951,974.68455663073,974.82416056998,0.0013745929506532278,-0.00033150377655586527,Stairs up
-0.9258264160118999,-1.13464355468,-0.68371582031,0.020572684224882856,0.1975378417931,0.08703613281,0.33325195312,0.005784277619445077,-0.5379003906219,-0.74658203125,-0.30712890625,0.020219191902735762,1.0988694374197,0.89230057722,1.3877183025,0.024352458052991587,974.7429563369765,974.68455663073,974.80328672385,0.0012570035145267038,0.00044702511667164206,Stairs up
-0.8833740234337,-1.19287109375,-0.5419921875,0.027421317317397612,0.14125732421499998,0.03210449218,0.24340820312,0.0048401567611040495,-0.5698278808556,-0.82849121093,-0.31616210937,0.01432703283520424,1.0689958382656999,0.74177268633,1.41363495216,0.028664273069871946,974.7235433779794,974.6583776877,974.82038533636,0.002704065677333695,-0.0009038715784105024,Stairs up
-0.9122888183559,-1.32568359375,-0.57299804687,0.0428030576536402,0.1384521484335,0.01721191406,0.2314453125,0.0032496145278006756,-0.48055297851099993,-0.71875,-0.23522949218,0.020000038332311124,1.0517346431688,0.77308185184,1.44222170808,0.04203785295433418,974.6687935667361,974.55648201639,974.76716199736,0.00426412537245485,-0.0009951873453162617,Stairs up
-0.9015881347621999,-1.24145507812,-0.61877441406,0.028209441146171493,0.18923950194970002,0.08312988281,0.26489257812,0.0021104359190167736,-0.4751940917927999,-0.69189453125,-0.29064941406,0.012856347481286024,1.0418329030499,0.78957031452,1.3605433847,0.03213216479168501,974.5493390325463,974.45566901158,974.65631417046,0.0028436230540413673,-0.0011604912265762968,Stairs up
-0.8671350097611997,-1.25854492187,-0.64624023437,0.02598546648716801,0.1573278808547,-0.04968261718,0.24584960937,0.005475535854598524,-0.49885742187140003,-0.68054199218,-0.26599121093,0.013771299015579061,1.02019728666,0.71907025955,1.36795447498,0.02980948408234059,974.428159462496,974.35670255048,974.5810543979,0.003276023531018786,-0.0014596130682734698,Stairs up
-0.8940124511691,-1.32287597656,-0.67346191406,0.029891610860348666,0.19545776366860002,0.14306640625,0.25988769531,0.0011788190298708443,-0.4803894042924,-0.76586914062,-0.20080566406,0.020213771159857737,1.0392019445685001,0.74792185602,1.53418838042,0.03946127012737618,974.349197815517,974.28317303539,974.44570013983,0.0022115086369029224,-0.0010626231767815342,Stairs up
-0.8748535156215,-1.05590820312,-0.55603027343,0.02198762062813532,0.16076416015310002,-0.03015136718,0.31286621093,0.008695404330617742,-0.5300866699175999,-0.7021484375,-0.27416992187,0.012099307129776306,1.0455363495332,0.74480788784,1.27535046781,0.021630219375439734,974.2943752246643,974.24810222232,974.40543942744,0.0008999232315276136,-0.0001013233060948575,Stairs up
-0.8970263671829,-1.09338378906,-0.60144042968,0.019534089143782074,0.1846569824187,0.0732421875,0.38635253906,0.00905802523691283,-0.5034826660116,-0.70300292968,-0.26330566406,0.01572318584474565,1.0582564517131,0.86536057802,1.30263168296,0.01637851432791713,974.2954886718385,974.24638538249,974.37613146042,0.0012605211675233868,-0.00015363952583323759,Stairs up
-0.8834826660121,-1.08581542968,-0.62060546875,0.01493733594343314,0.1612915039029,0.06604003906,0.29833984375,0.005121127975027753,-0.5222705078082001,-0.6923828125,-0.28210449218,0.014359050423111681,1.0491684195435,0.87339189611,1.2616824567,0.01276971750722923,974.2982539878889,974.23953040024,974.36227601024,0.0011980589662489024,-0.00024588616969489676,Stairs up
-0.932459716793,-1.23864746093,-0.64245605468,0.025959696822466932,0.15551147460649997,0.01416015625,0.310546875,0.00975106171132968,-0.5436193847626999,-0.712890625,-0.31042480468,0.013235480814180491,1.1032472959744,0.88119200285,1.35520502102,0.020696119743803226,974.2981090634175,974.23497456863,974.38079310191,0.0017263054623961706,0.0005351319646555737,Stairs up
-0.9056555175744999,-1.16967773437,-0.6025390625,0.023478953421283404,0.17822143554250006,0.10632324218,0.27307128906,0.0022777142835098186,-0.4650415039026998,-0.7392578125,-0.20849609375,0.016768848890128515,1.0406543260880001,0.77079163365,1.38946995825,0.02765376967171192,974.2470219939876,974.1808181983,974.32726345249,0.0018587870307084661,-0.0006738275536024319,Stairs up
-0.9651721191368,-1.27697753906,-0.67590332031,0.02953378982460144,0.10348144531050002,-0.04846191406,0.21704101562,0.005519649018944077,-0.4420874023393,-0.74279785156,-0.255859375,0.014418294086856409,1.0762475949242998,0.82259554371,1.44321370712,0.028661646880194683,974.191793210175,974.08339893921,974.31351969164,0.0046253545580945245,-0.0014723058834530567,Stairs up
-0.9306262206995,-1.35888671875,-0.62854003906,0.03228128097717003,0.0963732910122,0.00463867187,0.17517089843,0.002540949467109548,-0.3946569824181999,-0.65844726562,-0.2041015625,0.016431813123966386,1.0219352330238,0.73880951767,1.42845965122,0.037875747760681165,974.0847051641359,974.00602035815,974.21339272722,0.003001267755881648,-0.0010505057245438524,Stairs up
-0.9110083007773997,-1.35888671875,-0.67810058593,0.024331522102530218,0.09704956054340003,-0.083984375,0.22277832031,0.006233374414538692,-0.38777954101349993,-0.6171875,-0.16760253906,0.01691767534072345,1.0031757536597998,0.72615078571,1.42845965122,0.030680673860229594,973.9584084954488,973.88003664261,974.14852696406,0.003129420579435209,-0.0012168244975135113,Stairs up
-0.9282971191373,-1.32104492187,-0.751953125,0.022561032933035935,0.13623413085540004,-0.0205078125,0.23876953125,0.0043439017566680145,-0.43591796874619987,-0.58862304687,-0.27917480468,0.008134431887143419,1.0416250579875002,0.83181867436,1.37511697726,0.020228249257247904,973.8900615337261,973.82531832169,974.03808620089,0.0032486173148700763,-0.001071659273189368,Stairs up
-0.8694079589801998,-1.04626464843,-0.61413574218,0.018235570762623696,0.20539672851140003,0.11486816406,0.29235839843,0.0029184772796078825,-0.5449450683554999,-0.70837402343,-0.35241699218,0.00899242231797702,1.0508811575205,0.8272543595,1.27732500301,0.020724183004844684,973.8335840418966,973.79215077325,973.90747577796,0.0007475768429521302,-5.593463950743504e-05,Null
-0.8649011230436998,-1.07275390625,-0.63818359375,0.012696952186135101,0.1641259765594,0.08996582031,0.28308105468,0.003921898471002373,-0.5286315917926,-0.66247558593,-0.33056640625,0.009834919726632332,1.0313156272429,0.84587668032,1.24565553284,0.01227691303295917,973.8340703917295,973.79339343116,973.88802661248,0.000827979916382998,-0.0002264579880571624,Null
-0.9175732421842,-1.08190917968,-0.7021484375,0.01294931170896174,0.20361206054329997,0.10803222656,0.29211425781,0.003086621260141229,-0.4856970214791999,-0.66833496093,-0.27124023437,0.017172440451517976,1.0704456345848,0.93474199398,1.22885452229,0.006386419930129902,973.8407200082937,973.79775019979,973.89576170963,0.0008229336600099454,0.00020260076271533405,Null
-0.8585461425739999,-0.96850585937,-0.71630859375,0.003491044434210689,0.17034179687169995,0.04187011718,0.26635742187,0.003369515086768121,-0.5306213378877999,-0.6767578125,-0.39050292968,0.0066712879096661945,1.0289007806514001,0.93678869442,1.14973574198,0.002461134790316119,973.832514842533,973.80322360316,973.88648815192,0.000530309622888548,0.00024893354334796055,Null
-0.8632312011686,-0.88073730468,-0.83898925781,0.00010189176057151202,0.1738696289028,0.15625,0.20251464843,0.00014369241513916274,-0.5085205078087001,-0.53173828125,-0.46887207031,0.00017227006683378956,1.0170161473232,1.00105553292,1.03068440995,8.453855998610113e-05,973.8464190305385,973.83271662512,973.8541211032,2.8169356049340453e-05,1.972918135078064e-05,Null
-0.8607836914028999,-0.88745117187,-0.845703125,8.490634083582318e-05,0.17017578124639995,0.14489746093,0.19897460937,0.00028767600203405836,-0.5067236328092999,-0.52600097656,-0.47119140625,0.00015796605984143335,1.0134670882865,0.99778078865,1.04417662381,8.778165017856747e-05,973.8462816643224,973.8328548206,973.85916326888,3.392927487757916e-05,6.026688066393406e-05,Null
-0.8594152831999,-0.88500976562,-0.83837890625,0.00016238986089146744,0.1847814941364,0.1591796875,0.20837402343,0.00019712275175800514,-0.5074060058551999,-0.53637695312,-0.47619628906,0.00020898564143475006,1.0151836800057998,0.99555177342,1.04417662381,0.00016625603056762177,973.8429343856601,973.83493848204,973.85538536775,3.7155983378513364e-05,5.3728786344973326e-05,Null
-0.8445275878859999,-0.88122558593,-0.76635742187,0.0012397238265706217,0.18230712890290005,0.16540527343,0.20922851562,0.00013150994825950635,-0.5188378906218999,-0.6015625,-0.47351074218,0.0010979105969071183,1.0087066391729997,0.94021268026,1.04375800083,0.0006170320338587597,973.8452848438299,973.83740192827,973.85897568211,4.338144893599024e-05,-0.00013575583047996343,Null
-0.8670568847620999,-0.99279785156,-0.7392578125,0.004376706226579115,0.1298010253863,0.01721191406,0.2451171875,0.004701170672891783,-0.5474755859333,-0.66296386718,-0.44470214843,0.00490887859868863,1.0390451123323001,0.93518710934,1.12595447475,0.002024721523525477,973.8436609326876,973.80727624609,973.88728265129,0.0005122705316650605,-0.0002709887616475963,Null
-0.8384741210902001,-0.94287109375,-0.79541015625,0.001968289439218819,0.1446874999964,0.06555175781,0.28625488281,0.0027644417742610575,-0.5518627929652,-0.63342285156,-0.37915039062,0.005139196767983218,1.0187186994381998,0.97271171472,1.06113920302,0.0005164512825430984,973.8421027404124,973.82674027513,973.85748125142,0.00010821887675757747,1.372866799352084e-05,Null
-0.5854638671847999,-1.22058105468,-0.23095703125,0.09504271495216837,0.14667968749880003,-0.169921875,0.73449707031,0.06990993504481757,-0.7736621093703999,-1.05627441406,-0.37915039062,0.030133799687735396,1.0432980554899998,0.696747959,1.59224821841,0.06818250765636011,973.8240048349425,973.74617806986,973.9506907701,0.004061709023321175,-0.001653161057091509,Null
-0.7004541015596001,-0.94921875,-0.38977050781,0.03428193754603868,0.0116308593746,-0.18090820312,0.32922363281,0.02242828742328282,-0.7219995117139999,-0.89074707031,-0.51049804687,0.015235226497539759,1.0356955215463999,0.90815250706,1.23706375702,0.010722529088943505,973.8276226935014,973.79765609304,973.85189190867,0.0003333677457092952,-0.00016495690634733438,Null
-0.7182250976522999,-0.94299316406,-0.51025390625,0.013436444028544903,0.1366857910124,-0.05432128906,0.39758300781,0.010543094697467522,-0.7325720214799999,-0.84411621093,-0.55541992187,0.003968647590481452,1.0436620422603,0.85018852926,1.22597524835,0.009727584864575181,973.8341888033657,973.80449602447,973.88063590344,0.0002771850674520479,-1.6197897203771476e-05,Null
-0.8562268066371,-1.07763671875,-0.62451171875,0.012671447551327934,0.1508703613242,-0.20971679687,0.30639648437,0.009632042337846699,-0.6178710937459999,-0.83825683593,-0.38952636718,0.013019861596993644,1.0744558839006,0.84237025618,1.29015699796,0.01834906094949883,973.837429103679,973.79658956882,973.88526271381,0.0006251817932534298,0.00025845117999204686,Null
-0.831077880857,-1.28723144531,-0.53112792968,0.02944917892389254,0.07681518554349999,-0.20971679687,0.22143554687,0.012424103796349116,-0.5731201171832998,-0.79028320312,-0.3525390625,0.014488294569932043,1.0264109065308997,0.7122458063,1.45403307054,0.03341130284392624,973.8998565249781,973.79999396405,974.0260710859,0.004206274257575364,0.0011764318012390403,Stairs down
-0.8752539062465999,-1.36120605468,-0.53112792968,0.03979159595966985,0.1315039062464,0.00390625,0.271484375,0.006060639439152686,-0.5539672851523999,-0.71997070312,-0.40759277343,0.0066223868516640015,1.0505602208084002,0.71120339965,1.54174778591,0.03890457501086955,973.9522717229479,973.83494886471,974.24321091871,0.006626215179865805,0.002439573310860828,Stairs down
-0.835783691403,-1.548828125,-0.62060546875,0.03894445800442255,0.16096923827800003,-0.00317382812,0.44299316406,0.016647490955457478,-0.6325268554643998,-0.74975585937,-0.45141601562,0.004544876807854061,1.0732642402182,0.89487031898,1.72208449115,0.03250002580786007,974.1381063870715,974.02506261536,974.2497187852,0.003903724777015089,0.000565568130466437,Stairs down
-0.8526098632769998,-1.27563476562,-0.47937011718,0.036208943941816917,0.1274755859362,-0.04064941406,0.36340332031,0.015124715963596762,-0.5286938476522,-0.74462890625,-0.24279785156,0.016949135492654123,1.0272277995085999,0.68303454823,1.44250263602,0.0354684887603576,974.238364741185,974.12082459806,974.33793201382,0.0047142664301869424,0.000642577613537801,Stairs down
-0.9160571289026,-1.21179199218,-0.44921875,0.041163225131729195,0.2742041015588,0.01306152343,0.57360839843,0.028485622093152814,-0.4831665039033999,-0.708984375,-0.23681640625,0.018970409577788963,1.0868287610554,0.61249064856,1.46579759187,0.05488356727072163,974.292401735904,974.20181355285,974.36012234218,0.0016333872207449556,0.00018508524674517907,Stairs down
-0.9124340820268,-1.13305664062,-0.69689941406,0.012381431195402142,0.18796142577780003,0.02416992187,0.36889648437,0.011819059373125322,-0.545361328122,-0.71508789062,-0.3974609375,0.008682986702428116,1.0855081313122,0.83706412644,1.31760430082,0.019708251708555113,974.285163990023,974.22004142034,974.33851956625,0.0013158481806666241,0.0004007334066161746,Stairs down
-0.9442968749962,-1.16442871093,-0.7275390625,0.016597846806480236,0.1689306640584,0.001953125,0.40942382812,0.016898140545774952,-0.543959960933,-0.67834472656,-0.38354492187,0.007998238693626055,1.1115684797374001,0.86715633748,1.32899082235,0.0218397930590749,974.2946696556876,974.22398077191,974.35118932268,0.0016698921144840193,-9.022687307017457e-05,Stairs down
-0.838352050778,-1.32055664062,-0.60803222656,0.03407242460086377,0.10071289062239998,-0.05224609375,0.22216796875,0.00467373383165245,-0.5916333007768,-0.88415527343,-0.30786132812,0.020023824957782942,1.0377487485756,0.69534675642,1.57090751799,0.044714170058048196,974.3325797016691,974.26359984205,974.41845991329,0.0017072731163965049,0.000409735046602011,Stairs down
-0.8467236328082001,-1.19567871093,-0.51635742187,0.02512368816303965,0.1778369140594,-0.013671875,0.271484375,0.004897925805457592,-0.5226367187461999,-0.7119140625,-0.25769042968,0.01695713320174852,1.0161057277284,0.577248876,1.41740979193,0.03611528072542207,974.4179933898697,974.31325600136,974.60632761134,0.004619014179103216,0.0011255910725751278,Stairs down
-0.8844042968708,-1.29089355468,-0.65551757812,0.030929955544899832,0.1445996093716,0.11315917968,0.19641113281,0.0004762568618614623,-0.5494506835906,-0.6728515625,-0.29150390625,0.010592595043628576,1.0567918681675998,0.76639481204,1.45832060967,0.03004629071108674,974.5376778178138,974.41927954039,974.65419269371,0.006346878168493772,0.001803117655688139,Stairs down
-0.8846826171833999,-1.26159667968,-0.52514648437,0.030781474643124886,0.19554931640339995,0.02880859375,0.35559082031,0.007073449612832116,-0.4865942382775998,-0.69030761718,-0.28784179687,0.011392696150685618,1.0339919122346002,0.59955121979,1.44907803122,0.037669384501111035,974.651398245607,974.53122166778,974.84067398221,0.0056721089801476015,0.0011269040268014508,Stairs down
-0.8785375976521999,-1.35522460937,-0.5361328125,0.03498189466732159,0.206850585933,0.04370117187,0.35559082031,0.008037844234062631,-0.5910815429647999,-0.81188964843,-0.42224121093,0.01127331546462249,1.0884103107441998,0.74766058447,1.47781946782,0.03344038900453867,974.7135205217895,974.63255597176,974.80990535426,0.0020278630980947905,0.0005934571587697898,Stairs down
-0.8481982421833999,-1.00720214843,-0.64001464843,0.010023225533694736,0.15352294921520002,0.05334472656,0.27697753906,0.005537937753130586,-0.5401074218711999,-0.68395996093,-0.40197753906,0.0061005240498787135,1.0214835325649998,0.83740631191,1.21927448137,0.01287075182081633,974.743281505497,974.70082295473,974.80919938113,0.0008727933194641026,-0.00015340843975571777,Stairs down
-0.8443164062459999,-1.0400390625,-0.53662109375,0.014408328172002362,0.138854980465,0.04504394531,0.24792480468,0.0031900792711679134,-0.5835986328089999,-0.71496582031,-0.45031738281,0.0056895688086135154,1.0390266043602,0.76018271483,1.25129935561,0.01638088443845904,974.7485584854825,974.70287149129,974.79262856313,0.0005243794017630786,1.9621194371703917e-05,Stairs down
-0.9273266601524,-1.14086914062,-0.65954589843,0.01862201342078742,0.159108886714,0.02111816406,0.33239746093,0.01085961051054567,-0.5286962890593999,-0.70324707031,-0.32397460937,0.009668649350724824,1.0852555595778,0.85371451602,1.341012395,0.0260093732112175,974.7556237902899,974.69628054747,974.80040954639,0.0007568775022699031,0.00027864770361187995,Stairs down
-0.8712426757776,-1.42102050781,-0.47985839843,0.03910472314167625,0.1230029296854,-0.00476074218,0.22827148437,0.004995081617216992,-0.5641894531209999,-0.74926757812,-0.27270507812,0.013930007279433488,1.0564379485306,0.75113883578,1.53499535452,0.034233974389275806,974.7921724582361,974.69908343847,974.92484954426,0.005841464361400308,0.0008891898463046375,Stairs down
-0.8389990234338001,-1.1904296875,-0.58325195312,0.026102982289942338,0.1402221679656,0.02185058593,0.275390625,0.0030962699893153996,-0.5681298828083999,-0.82104492187,-0.31494140625,0.017913165501899714,1.0289596044338003,0.67848015024,1.37186430338,0.03458243181785394,974.8761695452154,974.78344162377,975.0273260078,0.003505270131256757,0.0010675926451190426,Stairs down
-0.8467211914026,-1.38830566406,-0.54187011718,0.032105430575416524,0.12149658202760001,0.04345703125,0.21447753906,0.0013477653264486187,-0.5746191406218,-0.80749511718,-0.3037109375,0.017107647500713117,1.0363675596530002,0.66584925657,1.56718488732,0.03826552368803512,974.962455203842,974.8664486776,975.13149281542,0.00493709570891566,0.0012584560620789347,Stairs down
-0.8295556640585999,-1.18347167968,-0.60388183593,0.024975690600718487,0.10735351562219998,0.00659179687,0.171875,0.0015671669594711725,-0.5802416992145999,-0.76599121093,-0.21203613281,0.017148082069750614,1.0245641949966,0.73622340057,1.39004213998,0.030191966830480355,975.0858547191013,974.96990236695,975.29526982538,0.008439445650853486,0.0011587456077228303,Stairs down
-0.8774389648406,-1.31652832031,-0.54577636718,0.04776831918913286,0.1427587890584,0.04467773437,0.28601074218,0.004576258129496569,-0.5671533203095999,-0.8369140625,-0.19360351562,0.02106872149211365,1.0599307392038,0.58572939674,1.53093798046,0.06178595103503597,975.1855050302413,975.07060183633,975.31247086359,0.0046686189972788,0.00012142308719367835,Stairs down
-0.23152343750059995,-1.10217285156,0.3037109375,0.20673829242153668,0.7119921874969998,0.18432617187,1.00183105468,0.03546894545493957,-0.5370434570269998,-0.94445800781,-0.25842285156,0.02154430368337481,1.0187426988264001,0.49672091632,1.68197411432,0.07295857741317084,975.2634129804818,975.05799932044,975.49903026025,0.013392562690374988,-0.0025962021077637256,Stairs down
-1.0114599609333998,-1.23779296875,-0.74060058593,0.018087082222444796,0.32975341796659996,-0.17761230468,0.84985351562,0.06167660193471401,-0.5041088867151999,-1.11791992187,-0.26306152343,0.055353409479414264,1.2176742663332,0.99630874108,1.68197411432,0.0373228714241687,975.2740363670612,975.15887068348,975.37530686246,0.002504826623823453,0.0007660696793494445,Null
-0.8611157226526,-1.09387207031,-0.55114746093,0.022703441592008364,0.23180175780779996,0.12170410156,0.37145996093,0.005215278683260936,-0.5561669921847999,-0.70983886718,-0.31201171875,0.009925289972892135,1.0604466583606,0.81840174526,1.33729009028,0.017669212966698534,975.3128886070324,975.27115142844,975.37479068597,0.0011245832967929587,0.00012600684911314298,Null
