avg_accX,min_accX,max_accX,var_accX,std_accX,avg_accY,min_accY,max_accY,var_accY,std_accY,avg_accZ,min_accZ,max_accZ,var_accZ,std_accZ,avg_magnitude,min_magnitude,max_magnitude,var_magnitude,std_magnitude,avg_pressure,min_pressure,max_pressure,var_pressure,range_pressure,std_pressure,slope_pressure,kurtosis_pressure,Pressure_below_avg,Pressure_above_avg,skew_pressure,Label
-0.45462364783282055,-1.01647949218,-0.22387695312,0.0840533230603564,0.28917517247854385,0.24927258613353845,0.08654785156,0.72045898437,0.041131019413383665,0.20228715013242846,0.7470221103728719,0.10998535156,1.01440429687,0.09463209671090216,0.30683351170831474,1.0220351327982564,0.89918753787,1.15708726776,0.003080949271937488,0.055363792609262226,969.8946801622268,969.8172096334,969.9452205922,0.000853774566543359,0.12801095880001867,0.029144403157945784,-0.00021895623863508546,1.339277484183631,0.25,0.75,-1.4859611664767813,Null
-0.506505737301,-0.88830566406,-0.31066894531,0.03383276627255321,0.1834764356564364,0.28393676757705,-0.08605957031,0.78308105468,0.11525487060761792,0.3386422836188355,0.5772058105437,-0.14575195312,0.95751953125,0.1783920406554145,0.4213075841379282,0.99727514639165,0.88417088812,1.07677882918,0.0016273961451979233,0.040240019439258895,969.9182426271774,969.88470183323,969.97470963885,0.0005482576961193514,0.0900078056199618,0.0233562926775367,-7.4392936886206e-05,-0.3713061591304472,0.58,0.42,0.7947990785205902,Null
-0.3238293611521519,-0.3330078125,-0.310546875,4.042726141532485e-05,0.006317873370767644,0.023973682255316455,0.00817871093,0.03442382812,4.9110948172674194e-05,0.00696342520609421,0.9519769209799998,0.94299316406,0.95678710937,1.5482504778397018e-05,0.003909798422585588,1.005876115513671,0.99579291943,1.01298958632,1.740252666867113e-05,0.004145146742995528,969.911260647927,969.90333678486,969.92106581252,3.605902314906213e-05,0.01772902766003881,0.005966789741398748,0.00024042895894425562,-1.159148507600191,0.51,0.49,0.24723436245215163,Null
-0.723234925085696,-0.72778320312,-0.71752929687,8.465981860575454e-06,0.002900413711335148,0.6363208625841138,0.62646484375,0.65576171875,4.002436337525442e-05,0.006306428832525968,0.3343034575225949,0.30847167968,0.35437011718,0.00019701038283979723,0.01399155036736756,1.0197834314393035,1.01098701349,1.0275694378,1.7610083082475723e-05,0.004183136007881496,969.9199003602633,969.90537489855,969.93301899993,7.504101089881259e-05,0.027644101380019492,0.00863516460710843,-0.00010726737706619476,-1.1420860334249947,0.61,0.39,0.2584318580258492,Null
-0.7085251581059763,-0.79858398437,-0.62805175781,0.0008319940014169309,0.028809947298082988,0.6663713727640239,0.623046875,0.74157714843,0.0007032393880656187,0.026487072480178408,0.29485328310640474,0.2265625,0.341796875,0.0006801184218771951,0.026048015131700478,1.017400552176643,0.99304218725,1.05896131883,0.0001251495344109474,0.011173699446871506,969.9371708686907,969.90028296368,969.96384634805,9.626224314066485e-05,0.06356338437001341,0.00979964526519523,-1.2448792777213693e-05,3.4311715498762787,0.48,0.52,-0.6693268822078944,Null
-0.7619585530979696,-0.8974609375,-0.59545898437,0.005409890136654801,0.07345855600969008,0.5726073599065482,0.30126953125,0.79675292968,0.015347320355356278,0.12372698883275982,0.3744506835901015,0.24865722656,0.57202148437,0.006917094323628741,0.08306345915422265,1.0349440209632743,0.92388738397,1.18653507305,0.005181429473140707,0.07189074096790533,969.9283918125814,969.89237207244,969.97700367058,0.00039567107858195236,0.0846315981399357,0.01986622352803256,9.067406119142806e-05,-0.39767117692384746,0.46,0.54,0.36862792588840665,Null
-0.7436172321241665,-1.17651367187,-0.48828125,0.020514515942842697,0.1430362520293693,0.5226906396967204,0.24755859375,0.87878417968,0.0146276332615495,0.1207820833847487,0.4608751522562902,0.04663085937,0.76635742187,0.024688973860634397,0.15691591905008115,1.0441370555555376,0.86149230568,1.27276818993,0.008047728314755476,0.08958847379261466,969.9250492963519,969.87755195817,969.97401027253,0.0004332029680144148,0.09645831436000663,0.0207855344869178,-6.271823685364078e-05,0.5664434676468324,0.55,0.45,0.10675266979255424,Null
-0.9458139592917899,-1.23474121093,-0.80224609375,0.00931332584690969,0.09636839489606853,0.37568283080698867,-0.47814941406,0.67492675781,0.03720421944320918,0.19260977555143144,0.17547191272698862,-0.15783691406,0.36486816406,0.010152928577321082,0.10061851236341363,1.0552616699769035,0.90124543959,1.43499601006,0.009451163086519434,0.09707890188597766,969.9128566131327,969.8629951303,970.32229704353,0.004556419791605251,0.4593019132300924,0.06740530704030122,-1.9207333466808136e-05,24.586173951159328,0.74,0.26,4.676381749509947,Null
-0.8549126519058667,-0.94067382812,-0.64196777343,0.012818881014815365,0.11296861604138149,0.49915635850293333,0.36547851562,0.88635253906,0.01968571279089369,0.1399936453345125,-0.01929796007102223,-0.48608398437,0.29150390625,0.06017325287676407,0.24475664689097165,1.03474731684,0.98319186149,1.24201190355,0.0019778497649000247,0.04437408389477431,969.9006249082906,969.86357707516,970.05523467173,0.001297832518245662,0.19165759656993941,0.03594529696246959,7.796171796484233e-05,10.196277524816596,0.8,0.2,3.194687586528039,Null
-0.6653875732384,-0.89868164062,-0.544921875,0.005530063141119472,0.07417825035287551,0.7238189697229,0.53845214843,0.88500976562,0.006762328899383443,0.08202753961253821,-0.29184936523079996,-0.40893554687,-0.00073242187,0.008871167914628084,0.09395111534758352,1.0350155341453,0.93702479875,1.17649442645,0.0016393585658339052,0.04038764381595856,969.8781628426144,969.84592037458,969.93898939764,0.0003559888356845478,0.09306902305991116,0.01882043813268238,0.0001456859569151917,2.6166933992957917,0.64,0.36,1.5405212453216428,Null
-0.22408935546834993,-0.87121582031,0.35327148437,0.1817231638382302,0.4252229391966514,0.82870544433275,0.49768066406,1.0634765625,0.022353554116128313,0.14913680412811478,0.19017883300609997,-0.36474609375,0.80603027343,0.1158462508519754,0.3395099698060655,1.04043805727635,0.82739712558,1.27371402967,0.008993712720354612,0.09459780207146908,969.8690312139512,969.79915277359,970.08046800787,0.0028491979684635333,0.2813152342799867,0.05324426709629137,-0.0001308826281142788,7.305809968402842,0.6,0.4,2.283715205695885,Lift down
0.46709350585590004,0.19348144531,0.67126464843,0.019303124680322383,0.13858791093353262,0.60278503417675,0.09826660156,1.00439453125,0.0656893629941001,0.25565781071410587,0.4853778076146,-0.20373535156,0.97839355468,0.1321528800875042,0.3626184160892365,1.011837935236,0.77734890653,1.3999670657,0.009408432669374394,0.09675427900629265,969.8653206787244,969.79179077769,969.97267670656,0.0019610667877178085,0.18088592886999777,0.0441730851738841,-0.00025951457438030484,0.2883421750990216,0.52,0.48,0.6277634949320414,Lift down
0.37761962890275,0.25109863281,0.47497558593,0.002404810621485785,0.04891611767483552,0.9199743652299999,0.56103515625,1.00439453125,0.003747047717502464,0.061059908933071234,-0.24468383788755,-0.62512207031,0.02685546875,0.018906615449786,0.13715714481038555,1.0356004685890001,0.90007678869,1.1698669013,0.0012909027283860292,0.035839199415501725,969.8764235825121,969.81456467063,970.00186881124,0.0014718866230619047,0.18730414060996736,0.038269141484316,0.00017775290475827065,1.0610648035610728,0.42,0.57,0.6794707981117737,Lift down
0.4083532714802,0.35656738281,0.55310058593,0.0016093057469301574,0.040015737131727395,0.8015484619101,0.51354980468,0.95678710937,0.00854378824525292,0.09220124350585873,0.3678771972628999,-0.32202148437,0.64990234375,0.06728498446608575,0.2587441971209312,1.0093700340876,0.80635212502,1.08242458121,0.0028030007438059374,0.05281084869690041,969.8572534215299,969.79472951665,969.8962837584,0.0007324323165233818,0.10155424175002281,0.026995743274463937,0.00025970474475551093,0.40879755191119393,0.29,0.7,-1.2050257126201374,Lift down
0.49788940429335,0.43615722656,0.57104492187,0.000751644760816445,0.027347514274836074,0.7697888183556,0.68359375,0.86547851562,0.0020335305860283777,0.04498180669001897,0.43321716308300007,0.20617675781,0.52233886718,0.008460999849599488,0.09175344598624889,1.0191485030974499,0.93444291604,1.08997754331,0.0006754443389841914,0.02592425731413092,969.8693121104059,969.84821377527,969.91024133676,0.00022101390818246602,0.06202756149002653,0.01482932360701437,-0.00010125823612010041,0.9268373422874103,0.56,0.44,0.9890253926761022,Lift down
0.51239440917625,0.47888183593,0.57067871093,0.00041039203838651823,0.02020742631298171,0.6857159423793,0.62878417968,0.92749023437,0.001626973427367863,0.04023479290652586,0.5051745605433,0.37060546875,0.63928222656,0.0013023705922028054,0.03599803799155992,0.9948484108873,0.9302000428,1.25530320187,0.0015632136111577346,0.03943852866299586,969.9159170731671,969.86749571142,970.12285223659,0.0032307672492560653,0.2553565251699865,0.0566975609088238,0.0008377897143783577,1.221891362742297,0.66,0.34,1.438452694749732,Lift down
0.11937499999895002,-0.21533203125,0.55395507812,0.027619690355271325,0.16577572772723687,0.9346514892538,0.5107421875,1.28869628906,0.020457643701443016,0.14267219590002742,-0.10240417480409998,-0.68334960937,0.72985839843,0.11338152169348895,0.33587886817277074,1.0227225572263,0.75822341239,1.29798146811,0.013065873786118856,0.11401992991222308,970.2651417249551,970.05342821819,970.53001391717,0.016549857418261982,0.4765856989799886,0.12832423049124694,0.0016885751210002403,-1.1740634517453519,0.56,0.45,0.31519150326586554,Lift down
0.0962945556602,0.07116699218,0.15698242187,0.0004013035610962996,0.019982418354413917,1.0385711669881,0.98278808593,1.07458496093,0.0005086800317542992,0.02249748056106567,-0.05894226073905,-0.12097167968,0.11938476562,0.00300642524477714,0.0546936295975432,1.04631616265295,1.00238147673,1.08308350528,0.0004987085574364894,0.022275884149665234,970.6734121449203,970.47594855664,970.78555053862,0.010515024861467649,0.3096019819799949,0.10228611703041772,0.001707632271347585,-0.9970464357168596,0.43,0.56,-0.6242970908332068,Lift down
0.13501770019089998,0.07202148437,0.37744140625,0.006679668360308602,0.08152465895977154,1.0109393310505002,0.91711425781,1.04162597656,0.0003315446480992233,0.01816278956709919,-0.0310150146461,-0.08837890625,0.07580566406,0.0022746083328425274,0.047573472557490636,1.0248434293575,0.9956763571,1.04688156182,0.00012600914538938326,0.011197280904864194,970.7947005821899,970.78437752131,970.80557258925,2.6936112248048324e-05,0.021195067939970613,0.0051770099175883445,3.9210925046499645e-05,-0.7686324104187916,0.49,0.51,0.15458672428645565,Lift down
0.36430053710695,-0.05395507812,0.931640625,0.08980173707444886,0.29891926734333574,0.0853552246105,-0.56237792968,1.11108398437,0.36075192969572684,0.5991228338556696,-0.5228179931608499,-1.05187988281,0.21118164062,0.14238745018037288,0.3763980777441232,0.9998388483606498,0.85457095409,1.13540204137,0.0036560184442201494,0.06031366637835117,970.8121780920582,970.63473734713,971.00264545772,0.005137361478452357,0.3679081105899513,0.07149597660749936,-0.0005954529347265591,1.1322310364124935,0.44,0.56,-0.5139813653525869,Lift down
-0.14022399902169994,-1.44006347656,0.91906738281,0.3989004974016497,0.630004757850797,0.55155395507535,-0.34765625,1.08813476562,0.12336284298145851,0.3503512933707413,0.20370178222455004,-1.21435546875,0.9580078125,0.23848004540635964,0.48712179706858516,1.04292220353765,0.79496840919,1.92505468393,0.0347958769581072,0.18606960410909854,970.7845264627537,970.69895451528,970.97445668358,0.003432839731223033,0.2755021683000223,0.05844378095714649,0.00035012319185307583,2.254225611962193,0.52,0.48,1.2199717238999621,Lift down
-0.9212359619107001,-1.20080566406,-0.80041503906,0.006137706972457364,0.07814741478510391,0.30654968261255,0.00073242187,0.73071289062,0.03131818921091549,0.17652648035028884,0.22191772460710002,-0.48388671875,0.56591796875,0.05359450113594979,0.2309253745915984,1.0382645605882,0.93807073545,1.33741866648,0.004520331138588136,0.06706511375443416,970.8132534277454,970.75152852953,970.87791553471,0.0007814799770867065,0.12638700518004953,0.027884988384456483,-0.00013449650094968701,0.22104727216132947,0.56,0.43,0.04596691494992546,Null
-0.6390026855426001,-0.86853027343,-0.47924804687,0.009756033083541093,0.09852539225054315,-0.11783325195020002,-0.25048828125,0.14685058593,0.010177481801526804,0.10063098127574416,0.7338378906216999,0.509765625,0.869140625,0.006247159074920327,0.0788411268282343,0.99227971799485,0.87564116215,1.09870701518,0.002479788295117269,0.04967282308910661,970.7779384605268,970.71807883935,970.84465629147,0.0011449579707315917,0.12657745211993188,0.033752528510882465,-0.0002144384447921208,-0.9587128636492714,0.56,0.43,0.14894905129849847,Null
-0.48943847655895,-0.90808105468,-0.30261230468,0.028395161550905105,0.16808683988685902,-0.12170410156070002,-0.33776855468,0.18762207031,0.01879077520718334,0.1367363204534458,0.84752685546525,0.48828125,0.9599609375,0.011722809950765668,0.10800090694532079,1.01424513046905,0.91153695811,1.14814341276,0.0021401700041070305,0.04614617160812471,970.7974955293356,970.76398921898,970.87488010923,0.0008398456804572417,0.1108908902500616,0.028907550087389895,-0.00011238047467439184,0.0901362531268628,0.6,0.4,0.9792360464024655,Null
-0.1522937011703,-0.70202636718,0.24865722656,0.0609930529338339,0.24634952337921162,0.6138159179665001,-0.27258300781,1.0537109375,0.17789267079059815,0.42071749124162305,0.6773791503866,0.29968261718,1.09399414062,0.04503224246307456,0.21167683210677352,1.058132081063,0.87136405548,1.5221505133,0.02176958927472412,0.14717588568903026,970.7884098010377,970.72810998192,970.86398029871,0.0009624598512326392,0.13587031678991934,0.030945881017939623,0.00012780187245046016,-0.7032743402995232,0.54,0.46,0.14690292838396385,Null
-0.19236328124959998,-1.51892089843,0.978515625,0.5758516550971763,0.7569494017579315,0.6560363769488,0.31408691406,1.31921386718,0.06961073209736673,0.26317803562774744,0.042841796874,-0.80847167968,0.44360351562,0.07453372577752643,0.27232527820354613,1.0613507085376,0.37730393367,1.63637445329,0.05945083950635098,0.2432151009062127,970.7764906087924,970.68380628519,970.92067377576,0.003159328621148241,0.23686749056992085,0.056067209472582986,-0.00032488306843574593,0.5973219508840475,0.49,0.51,0.7063076256330892,Null
-0.9472619628876001,-1.42749023437,-0.615234375,0.026847906734243376,0.1634431619878059,0.45192199706680003,0.21691894531,0.97729492187,0.023465679877547354,0.15280167367591108,0.1743682861308,-0.18041992187,0.48229980468,0.029744387486435715,0.1720339081373307,1.08422162916435,0.70914263049,1.73207183793,0.036245386990485504,0.1899056609359844,970.7222220842348,970.62701383742,970.89687508547,0.002646073404735535,0.269861248050006,0.05131123695363285,-0.0004219804481768838,1.2581260992205294,0.6,0.4,0.46399713442847146,Stairs up
-0.92054931640245,-1.25549316406,-0.69775390625,0.02112011245159184,0.1449638295897769,0.43703613280840004,0.330078125,0.55310058593,0.003608190234528937,0.05991785446222429,0.1449078369109,-0.08483886718,0.29089355468,0.008342540410309506,0.09110887831741733,1.0354580245446001,0.83464249455,1.35167919052,0.020243291252136805,0.14192277757948554,970.634749381857,970.55976996129,970.73380255428,0.0013449427012797446,0.1740325929899882,0.03658166190556883,-0.0005477814080916362,-0.06215116278317678,0.55,0.46,0.32112239825751443,Stairs up
-0.9057617187464999,-1.22412109375,-0.72546386718,0.016119590356778055,0.12664514362972693,0.48829101562104993,0.3603515625,0.74084472656,0.008902275436538173,0.09411569507449584,0.184549560544,-0.07470703125,0.45727539062,0.01833202567933319,0.13505689745783636,1.0578266571309998,0.84332406808,1.36511032348,0.018657167745334373,0.13624933727034308,970.5100660118344,970.45808530344,970.5707002518,0.001232722809697987,0.11261494835991925,0.035022267140342254,-0.0005913506455814247,-1.3198919951991217,0.56,0.43,0.1890929554508197,Stairs up
-0.8853247070270001,-1.29248046875,-0.64245605468,0.018790160645205185,0.13673408441928134,0.5110266113244001,0.03466796875,1.96923828125,0.09211441651527147,0.3027438594467196,0.3491308593719,-0.06616210937,0.78662109375,0.038507951168076635,0.19574322826661525,1.1202735742671002,0.87643618736,2.2882979519,0.06079696061331103,0.24595319841434157,970.417299198503,970.3058982282,971.09279959909,0.02038479552191053,0.7869013708899502,0.14241794670722147,-0.0006987097096105301,17.267980474554893,0.67,0.34,4.226807715449119,Stairs up
-0.8739440917933,-1.03552246093,-0.69787597656,0.00604203010176421,0.07753592684204781,0.4498449706994,0.22021484375,0.69360351562,0.011982542382617332,0.1091907948075489,0.2444458007782,-0.11108398437,0.53100585937,0.014079910277015818,0.11836177898980202,1.0262163999942002,0.85617134992,1.23215974538,0.004740083912883593,0.06867593096070249,970.3424794307005,970.30832053016,970.39837893036,0.00036331488765740217,0.09005840019995048,0.019013108983517536,-9.746813793362262e-05,1.2079866168041429,0.62,0.38,0.9662708646590464,Null
-0.70879333495795,-1.13293457031,0.35290527343,0.12612990736484775,0.3542587441800463,0.5101495361285001,0.23315429687,0.84594726562,0.043427853937438365,0.20787187079485087,0.4380841064419,0.17895507812,1.01574707031,0.040028680940176,0.19957088348623184,1.07485167677895,0.83705037452,1.29034946816,0.008597250770723283,0.09248926703607109,970.3268726015101,970.29320806806,970.36198780134,0.0002296327712506029,0.06877973327993914,0.01511570730711434,-8.430410352127917e-05,0.17952931818978568,0.44,0.56,-0.005068615722116129,Null
0.36090576171579997,0.12683105468,0.80895996093,0.021461383607329,0.14613034143973097,0.7817187499961998,0.32373046875,1.193359375,0.05191876232925131,0.22728653395572085,0.3208483886694,-0.22937011718,0.92810058593,0.10635848497278225,0.3253101482399809,1.0053016081397,0.73744343847,1.32614584041,0.01255223706093041,0.11175632364938352,970.3037232743048,970.26707008761,970.41451053599,0.001189423572067974,0.14744044837993897,0.03440169260672553,-0.0002638548328401429,2.408252207852035,0.62,0.38,1.6572191922042254,Null
0.2740844726539,-1.10021972656,0.77746582031,0.1784606796096379,0.42138862847921005,0.6958093261684,0.02685546875,1.00048828125,0.05229171294503483,0.22810141249082536,0.40539672851139996,-0.24853515625,0.94396972656,0.05992863091246801,0.2441904743389997,0.9897175361987002,0.49769301465,1.50987062668,0.03347360895713957,0.18249997510233767,970.2964739118659,970.25094175802,970.388947153,0.0006675889745401842,0.13800539498004127,0.02577306791337584,6.390870301452887e-05,1.9299307846206606,0.51,0.49,0.9360336618306827,Null
-0.9088928222625,-0.96484375,-0.76159667968,0.0012324228882945988,0.035018006423169296,0.4059838867146999,0.34350585937,0.82873535156,0.0037087454807776207,0.06074703081940493,0.2206347656213,0.10900878906,0.35754394531,0.0035327545122387457,0.05928820067836055,1.0233319702395,0.90990727829,1.14825727385,0.000816090838541094,0.02849579590656117,970.3182181611289,970.26554297285,970.46609235415,0.0013477322685696352,0.200549381299993,0.03661957956103247,3.3679734522405736e-05,8.154080096977633,0.56,0.44,2.4553861858504145,Null
-0.9255297851519001,-0.96032714843,-0.85925292968,0.00027698452749131433,0.01660119287442495,0.36366821288639994,0.30749511718,0.45971679687,0.000860860615841706,0.029266983321867963,0.2041210937463,0.08459472656,0.38037109375,0.0022379419671790697,0.04718847589553168,1.0167316189374,0.9877469952,1.04647768366,0.00014180543767959046,0.011878401007340698,970.3286252191884,970.31036887577,970.39816972431,0.00015762949789607908,0.08780084854004144,0.012523631678015713,8.502565913584507e-05,16.350177991067156,0.54,0.46,3.279128583525458,Null
-0.93970458984055,-1.11047363281,-0.82507324218,0.00502912807107546,0.0707388325512945,0.44643615722310004,0.31713867187,0.66711425781,0.006793717687656243,0.08221769334649301,0.26022094726275,-0.11450195312,0.64892578125,0.0309258059503381,0.17541715115856377,1.0877966009709998,0.91630086138,1.39911239471,0.009345088849572802,0.09642802188847877,970.314400454504,970.26680578217,970.34099769106,0.0002653379284565236,0.07419190889004312,0.016248422656191617,4.004417888144086e-05,0.20448341796237246,0.43,0.57,-0.6918299848642174,Null
-0.889948730465,-1.66711425781,-0.16357421875,0.11660122494616644,0.34061447241923765,0.5035925292935,-0.34204101562,1.37707519531,0.11020623087668219,0.3311422650799785,0.2235925292932,-0.04711914062,0.50695800781,0.01435125384929322,0.11949685175788839,1.1104662580659999,0.30823179336,1.89134910998,0.10294010391508913,0.32003969034404733,970.3595139044508,970.31281339147,970.41628330916,0.001078151042125461,0.10346991769006308,0.032753019508357295,0.0004990986578636414,-1.3724503708806948,0.45,0.55,-0.08285484402221464,Null
-0.34773803710779994,-1.2880859375,1.26696777343,0.5191752146952844,0.7187345397445485,0.5856237792935001,0.0380859375,1.13879394531,0.061892294780363726,0.2481588872203893,0.22088500976390002,-0.54296875,0.90686035156,0.13304680810160993,0.36384278756229577,1.0789104576644,0.55368351405,1.45159131299,0.0594604132636522,0.24323468337663925,970.5139771756122,970.35354621805,970.96729411829,0.023696809808211525,0.6137479002400141,0.15355235510786042,0.00031195479381540526,1.6636245975806574,0.75,0.25,1.5871752331390783,Stairs down
-0.685797119138,-1.65100097656,0.78039550781,0.4291216875932202,0.6534340664177635,0.5618212890601,-0.61181640625,1.87463378906,0.329256692218327,0.5723726135632586,0.07624633788900001,-0.71716308593,0.52038574218,0.06539806226086971,0.25509032116010466,1.1803754361342,0.14578088316,2.08351181735,0.21924195289742585,0.46706074886778776,970.6405993837936,970.38335970343,971.23824225033,0.02322760447582038,0.8548825469000576,0.15202455871812712,0.00028335979277446685,7.103377577444528,0.41,0.59,2.0560674696479335,Stairs down
-0.6963653564417,-1.51025390625,-0.03002929687,0.1887698937952793,0.4333890219263784,0.7556799316370001,0.01953125,1.72485351562,0.170311694006197,0.4116553601450684,0.11666564941330002,-0.2880859375,0.50891113281,0.057030652475005446,0.23821313820322845,1.1795104629722502,0.41474383456,1.87434918711,0.09283868271235356,0.3039317181519425,970.743954003683,970.69575261889,970.78757690039,0.0004281577229434027,0.09182428150006672,0.020640177671926316,0.00029995637640495575,0.17980611460360807,0.36,0.64,-0.4408689991670558,Stairs down
-0.142126464842,-0.30834960937,0.09460449218,0.012342158124231206,0.1108171797764681,0.6433129882781,0.34228515625,1.01599121093,0.03197449624821648,0.17836654329491108,0.7146276855433,0.33666992187,1.09399414062,0.031945163237712744,0.17828470888307887,1.0035107882491001,0.71515253829,1.20333272825,0.013659164051549199,0.11657987918715414,970.745975362366,970.71607167064,970.79258320402,0.0002808086618497196,0.07651153338008498,0.01671540063954409,-0.00010229743749191731,1.30960090960156,0.59,0.41,1.0141345257265972,Stairs down
-0.9173986816373001,-1.14794921875,-0.26440429687,0.019863674704943088,0.14058576148180288,0.49357299804370003,0.34875488281,0.81713867187,0.010224075885007651,0.10086107031745506,-0.0434448242185,-0.29956054687,0.33666992187,0.01780583196483547,0.13310448078487552,1.0582704400215999,0.71515253829,1.40907897377,0.014914460940405142,0.12181908157469878,970.7611383076824,970.73359730902,970.80122617144,0.0001869397880725346,0.06762886242006516,0.013638368272347389,3.7190285161419124e-05,1.5661206889001251,0.61,0.39,1.1942544315544932,Stairs down
-0.2573950195307,-1.03369140625,0.91918945312,0.466809957819921,0.6815246936324622,0.5229150390592,-0.03381347656,1.17346191406,0.07091931424516934,0.26564020342174016,0.21256958007739996,-0.53674316406,1.31567382812,0.21439152855531327,0.4618653168538819,1.0366323846306,0.45901390143,1.59809855375,0.058926287720616394,0.2421397453579509,970.7819188745738,970.74739967644,970.87344482746,0.0007977146008739507,0.12604515102009373,0.028173143734229963,0.00016374279105967773,2.1977786580442187,0.61,0.39,1.4870835188142342,Stairs down
-0.9713989257778002,-1.60705566406,-0.48388671875,0.09145410171686011,0.30165681031310365,0.39312622069979997,-0.21203613281,1.13635253906,0.0886418308724129,0.29698252763092114,0.114112548826,-0.58959960937,0.39318847656,0.035125315695988014,0.1869483594940273,1.0992776332118,0.51966364328,1.82394300496,0.11750713504275556,0.34193508063306666,970.9012890781447,970.79139944449,970.98782121495,0.0026074694715974263,0.19642177046000597,0.05093556836081678,0.0008241740808490827,-0.8814562771469809,0.45,0.55,-0.21401253865969544,Stairs down
-0.8675854492155,-1.373046875,-0.28576660156,0.06498372962731572,0.2542809685744868,0.5965869140583,0.0126953125,1.25280761718,0.10314526004382348,0.32035844571917305,0.1951599121063,-0.14526367187,0.80883789062,0.03059809392822149,0.1744852528398328,1.1218883963072,0.36842027648,1.66759391164,0.08623891801225271,0.29292955368516754,971.0731989203475,970.98782121495,971.11836668763,0.0016482790013230102,0.1305454726799553,0.040497377770868016,0.0006663925878781868,-0.934136220563146,0.45,0.55,-0.5915685366906901,Stairs down
-0.4205285644519,-1.88366699218,0.46643066406,0.3877515446733009,0.6211382993745712,0.5901257324193,-0.65002441406,1.75061035156,0.28273964577804755,0.5304016850926827,0.43164916992010005,-0.23120117187,1.39904785156,0.2007298464303901,0.4469073698186663,1.1721325416108999,0.32086736025,2.32989982824,0.2054109508260109,0.45208837197154367,971.1420548458077,971.05729573547,971.27492148856,0.0023940083187342386,0.21762575309003296,0.04880612950378843,0.00028394968431985683,0.9526862871302089,0.58,0.42,1.1236711088510354,Stairs down
-0.9154003906221999,-1.17102050781,-0.0732421875,0.06413454384075397,0.2526140754620578,0.4783520507772,0.20068359375,0.8916015625,0.029653087099558544,0.17176967620642694,0.19267211913659998,-0.14270019531,0.79235839843,0.022447010875946197,0.14944823793396317,1.0964768185762,0.71959119789,1.32770307795,0.01738006036156376,0.13150346025772836,971.1520817317444,971.0811014384,971.18342609283,0.0006102991303855161,0.10232465443004912,0.024642395068937364,0.0002942639946182808,1.2225799147774188,0.29,0.71,-1.4346658009897377,Stairs down
-0.9933972167926001,-1.16125488281,-0.35949707031,0.012373166795538914,0.11095630203625759,0.3656640624968,0.16076660156,0.69165039062,0.01459648126337623,0.12051347998070319,0.1450939941378,-0.04248046875,0.29077148437,0.005926044111475718,0.07678811034866231,1.0803990071409002,0.70893436181,1.31804271144,0.007105229294063272,0.08408152679151917,971.1734826474302,971.16492227275,971.18124543761,1.4623243945301056e-05,0.016323164859954886,0.003814462966863691,-3.402238970521512e-06,-0.23400843649510072,0.54,0.46,0.15840904166993652,Stairs down
-0.8151000976525,-1.71533203125,-0.26843261718,0.10891834440555584,0.3292016899767194,0.6033959960904,-0.04077148437,1.39404296875,0.08029503138802628,0.2826544820643857,0.1792248535134,-0.11560058593,0.59887695312,0.0358900266949307,0.18897242275384007,1.0898108652084,0.44900396436,1.80241621026,0.09737347634117073,0.3112661384723126,971.2369589167399,971.1697393054,971.2929405731,0.0012274151059086735,0.12320126770009665,0.034946788556019424,0.0005833265806421347,-0.9671221466928994,0.47,0.53,-0.23563382618187242,Stairs down
-0.5050183105434001,-1.25439453125,0.06860351562,0.15165890547954083,0.3884592783705174,0.9044348144495001,0.45593261718,1.57568359375,0.0861633877221585,0.29280124792006557,0.024797363280500005,-0.40844726562,0.48693847656,0.04898710197402753,0.22077628148004802,1.1350121966551001,0.68676855451,1.59071069647,0.07113909391194514,0.2660514958469232,971.3735358342622,971.2929405731,971.62877884773,0.00417120863677586,0.33583827462996396,0.06442323023251768,0.0006800497860756587,3.279875980594551,0.65,0.35,1.5337763459497522,Stairs down
-0.7217968749962,-1.50891113281,-0.08605957031,0.11568140681657287,0.33926833006116264,0.6661035156217001,-0.27185058593,1.3359375,0.1374482758314717,0.3698121610389717,0.2138208007779,-0.15856933593,0.67016601562,0.028940774321862043,0.16969404954285444,1.0972943344152,0.38127602504,1.58949327003,0.08744643765753977,0.29497322839412404,971.5412875791255,971.45672327214,971.6369266703,0.0017266966739647237,0.18020339815996067,0.041449525818697854,0.0005964150733319748,-0.5025568938387193,0.41,0.59,-0.20712477726658063,Stairs down
-0.5410729980448999,-1.53674316406,0.74963378906,0.412762130757804,0.6408574881391454,0.5415869140591001,-0.27185058593,0.87805175781,0.06204720594182006,0.24846925345424725,0.10793457031170002,-1.01293945312,1.20275878906,0.18497891851170084,0.4290151791244015,1.076589370382,0.13679387889,1.69217703966,0.09564913334448179,0.30849779201439903,971.6308578881383,971.27921799303,972.14538951952,0.03825472122850545,0.8661715264900067,0.19509855873984033,-0.0006201700819836546,1.7948741757782338,0.54,0.46,1.0993638904999596,Stairs down
-0.7966772460906,-1.14831542968,0.34741210937,0.11954324442422692,0.3448848042493403,0.48301269530960006,-0.19116210937,1.42443847656,0.09712516084949807,0.31086899981382926,0.20672729491970002,-0.24230957031,0.97302246093,0.0690695075804665,0.2621529325461841,1.0743539109431,0.44424489524,1.47195532229,0.04101002016620219,0.2020024011376379,971.6411185449156,971.54848626891,971.75116014202,0.0010186337890863719,0.2026738731100295,0.03183615272203819,0.00014092321861742496,4.25619583864719,0.43,0.57,0.952125760253097,Stairs down
-0.6773937988252,-1.39501953125,0.65246582031,0.2340361596622398,0.48256189122632615,0.4457116699182,-0.07153320312,0.95532226562,0.046024103516294664,0.2139952873282802,0.3011157226547,-0.21252441406,1.19445800781,0.12851393121481122,0.35759105352166903,1.04994564631,0.48800741528,1.57298055944,0.052600395010001647,0.2287736720755945,971.6367896512426,971.56549771271,971.73346186574,0.0009845792197021787,0.16796415302997048,0.03129946203377412,-5.340993648888274e-05,1.40895699541118,0.42,0.58,0.2712762231308077,Stairs down
-0.9139184570276001,-1.75952148437,-0.07641601562,0.14410450931218094,0.3786607806013451,0.46897094726230004,-0.17724609375,1.27917480468,0.12550271177208136,0.35337685013766956,0.1666809082,-0.20361328125,0.36853027343,0.014750502029902381,0.12114763522146386,1.1210600443781003,0.3834063925,1.87286677603,0.10967189148509748,0.3303385112693826,971.7315049205654,971.65556044926,971.78922735976,0.0017497437334695227,0.1336669105000965,0.0417252323516859,0.0006818904045564616,-1.3503090664163422,0.43,0.57,-0.3620930998228558,Stairs down
-0.8737292480428,-1.28356933593,-0.35705566406,0.055548144673379304,0.23509658430103236,0.533847656246,-0.07849121093,1.30578613281,0.1029647615922943,0.3200780182773144,0.18910156249780002,-0.34497070312,0.54907226562,0.035918761521323575,0.1890480566250734,1.0953363572013999,0.36558285576,1.66776570104,0.07824451652876564,0.2790220312916559,971.8784361439189,971.78786352157,972.05625486392,0.003632136294839928,0.2683913423500144,0.060116350632467105,0.0009610877347519197,0.8846692741136661,0.47,0.53,0.7430836098466442,Stairs down
-0.9601647949182,-1.65161132812,-0.43115234375,0.1061155023450866,0.32493834004832545,0.5297802734344998,-0.13464355468,1.11291503906,0.10884988005974681,0.329098208228863,0.0963000488268,-0.10925292968,0.38488769531,0.012222863290067382,0.11028031997422318,1.1595103978875,0.49800859191,1.73531154743,0.09391478651446702,0.3056880968927228,972.0587963892732,971.95909220373,972.13517404293,0.0021487276012823442,0.1760818391999237,0.04623833867339886,0.0007729958678349548,-0.6204337521689021,0.39,0.61,-0.5835739095818733,Stairs down
-1.1119946289018001,-1.56311035156,-0.50207519531,0.036438107017080404,0.19040986445558697,0.3565246581996,-0.28479003906,0.70861816406,0.03717671697877645,0.1923300116827391,0.1244189453109,-0.04467773437,0.33410644531,0.009760580805312852,0.09854835311300889,1.1916564381566,0.5045812802,1.67157160599,0.04224665501720459,0.20502541730750987,972.1867784135726,972.13517404293,972.20664024273,0.00025703518036305557,0.07146619980005653,0.015992185731201355,0.0002296794403297052,1.4142104771845094,0.33,0.67,-1.4619556908094544,Stairs down
-1.00470275878535,-1.14733886718,-0.86840820312,0.0037153035157835145,0.06080071544155214,0.35724121093365,0.10778808593,0.5400390625,0.013025496317641876,0.11384361570177602,0.1139410400355,-0.02941894531,0.2509765625,0.004478468981282633,0.06675385109771735,1.0796023113497,0.9493529064,1.2424501885,0.0047249220793409985,0.06856600811586083,972.2014977052604,972.19121816542,972.20838737165,1.5090887584815842e-05,0.017169206230050804,0.003874975244681153,2.4808765778988466e-05,0.17905105594861048,0.45,0.55,-0.4707395387388699,Stairs down
-1.00090332030855,-1.36462402343,-0.74230957031,0.021451202618930288,0.14609567620513497,0.3591174316376,0.02233886718,0.71362304687,0.02862888766126735,0.16877719994999624,0.17156127929290002,0.04760742187,0.32067871093,0.00536096493050879,0.07303533463917479,1.09278124905295,0.79083537179,1.405516889,0.021305578411193977,0.14559893721843578,972.2867490388993,972.20630630694,972.35607799919,0.0025289913159135344,0.14977169225005582,0.05016319725988333,0.0008577093222308102,-1.4282227676606676,0.47,0.53,-0.21782757483051224,Stairs down
-0.9256835937461,-1.21923828125,-0.58959960937,0.02480826156234581,0.15711212637646427,0.4190881347617,0.2060546875,0.65759277343,0.018001733130210203,0.13383469081131077,0.1008825683563,-0.04565429687,0.28344726562,0.007319463633561752,0.08533971124508181,1.0315045277381,0.65314262265,1.30256746701,0.0287231088611389,0.16905470510113937,972.4510347073561,972.35607799919,972.53916420524,0.003293626664906665,0.1830862060500067,0.05724647178282808,0.0009873708695356505,-1.2978856115124708,0.47,0.53,-0.0888696373364541,Stairs down
-0.9200384521448501,-1.24182128906,-0.55822753906,0.03697704599410278,0.19181282742333022,0.4879327392544499,-0.01831054687,0.953125,0.056379212266307197,0.236848720083043,0.03495239257735,-0.19409179687,0.28649902343,0.013313043073327209,0.11509334410799163,1.07283446674995,0.62210066165,1.39541341623,0.04472780286300052,0.21096010013432756,972.6513850031054,972.53916420524,972.7412734608,0.0026445167562720866,0.20210925556000348,0.05129614188699503,0.0008625471235656423,-0.7836427718267864,0.47,0.53,-0.35859645859294187,Stairs down
-1.0222778320272001,-1.38708496093,-0.85522460937,0.013805717080185053,0.11720361980239402,0.30072570800405,-0.00354003906,0.7216796875,0.023697598764872204,0.15355491125668316,0.2190728759729,-0.00622558593,0.43579101562,0.00953108639815804,0.09738290900444108,1.0999563567411499,0.88124279972,1.56263943526,0.020478478184796527,0.14274482755558096,972.7783151912558,972.7412734608,972.79384384274,0.00021333519722159148,0.05257038193997232,0.014569437917623437,0.00023183227995683805,-0.024298591892409682,0.39,0.61,-0.9798660770508147,Stairs down
-0.9526098632775001,-1.03564453125,-0.88354492187,0.0006941660505110852,0.026281081032912816,0.29158630370655003,0.21667480468,0.37817382812,0.0015384583224026843,0.039125005185822924,0.14990234374609998,0.0048828125,0.36389160156,0.0070150988784290335,0.08354653424312039,1.01174301011555,0.9550937113,1.06584416761,0.000539098393534554,0.02316037351958904,972.7912614918688,972.7833555526,972.79806955984,9.274289709743958e-06,0.014714007239945204,0.0030377488805355913,-2.6627802064304757e-05,0.6500788083015636,0.43,0.57,-0.49847656762405507,Null
-0.91163879394155,-1.12475585937,-0.62512207031,0.014671051531721036,0.12082092647411057,0.46395629882475,0.10925292968,1.32788085937,0.055154600741019986,0.2342623054127891,0.0977301025367,-0.24536132812,0.32104492187,0.017364623392882247,0.13144504660091924,1.0584476847842998,0.67055901571,1.72042086188,0.022446968485243985,0.14944809681898852,972.7908678409044,972.75495423185,972.89490643516,0.0008812640997199788,0.1399522033100311,0.02961178446533371,-0.00010237982813405556,5.222677633712243,0.52,0.48,2.0748699799125414,Null
-0.8713586425741501,-1.16906738281,-0.53295898437,0.0257628892697998,0.16010644841308172,0.37684570312095006,0.19995117187,0.57189941406,0.007869415181475556,0.0884876720541804,0.32385375976245,0.06774902343,0.77355957031,0.05354861218603446,0.23082649138498876,1.04019100522035,0.85052429571,1.2603226842,0.00917250570087697,0.09553346624284385,972.7986567223555,972.78684091407,972.8053503238,1.2126159209023852e-05,0.018509409729972504,0.003473546949873966,2.9777076371115242e-05,0.15565831927388407,0.45,0.55,-0.3675060296952909,Null
-0.4557897949202499,-1.56311035156,0.85131835937,0.28654818784883224,0.5339620275914646,0.7337463378871001,-0.13049316406,1.22875976562,0.08622802438239201,0.2929110517895835,0.22430541991955,-0.16394042968,1.03466796875,0.06912496431192475,0.26225815428765054,1.0699581735352002,0.51289315902,1.85516795882,0.09178102961375771,0.3021955070243251,972.7905011110581,972.75572449961,972.83394113053,0.0005124856788111778,0.07821663091999653,0.022581480253010915,-0.00021526246387772218,-1.1749585150282609,0.5,0.5,0.07191870889942752,Null
0.5477917480433,0.13891601562,1.0107421875,0.08128226581971618,0.2843868043538898,-0.48515747069954995,-0.90881347656,0.34484863281,0.07407527460938022,0.2714864605027907,-0.5186993408160498,-0.80981445312,-0.08837890625,0.03375225496606319,0.1832579976187475,0.9932591392846498,0.69502828982,1.17213013096,0.006133774280047681,0.07812237457122923,972.7441055558145,972.70682810043,972.82062337251,0.0007878476402580943,0.11379527207998308,0.0279983642746644,-0.00029177002700932626,0.3526665424275417,0.59,0.41,0.9463604872248171,Lift up
-0.01122619628819999,-0.36352539062,0.64038085937,0.06863178250850971,0.26132092070090207,0.6522052001922499,-0.27551269531,1.07104492187,0.09676819735306139,0.31029720650740006,-0.24539428710724998,-0.8056640625,1.2119140625,0.4161285696151909,0.6434655598919922,1.0200894522663502,0.6081256898,1.32850370617,0.02387379184925966,0.15412469915627852,972.8526730092731,972.30934359642,973.32074951112,0.06005659576825099,1.0114059146999352,0.24445104374784274,0.0008537538746356612,-0.2869476768150614,0.61,0.39,0.1424783004832424,Lift up
-0.7063409423793,-1.142578125,-0.32653808593,0.030882254407376245,0.17529359125575403,0.6523114013642499,0.39770507812,0.98559570312,0.014797134686547975,0.12133898389683027,0.019590454100450003,-0.69555664062,0.40942382812,0.0973947019681104,0.3113000617704241,1.0301717802669002,0.84826716369,1.2284876664,0.005946031027125056,0.07691749392686575,972.7551176925703,972.27467185139,973.2706013857,0.03328037258305429,0.9959295343099939,0.18197244494741235,0.0008168324037763915,2.1660508936618657,0.42,0.58,0.05449933549989848,Lift up
-0.7537573242149999,-0.89038085937,-0.53930664062,0.004747167478350821,0.06872722634414302,0.6588244628865,0.43725585937,0.80310058593,0.006160162979315452,0.0782902430984786,-0.2046099853485,-0.50769042968,0.09436035156,0.01901217363217178,0.13753949528775697,1.03447233103425,0.84826716369,1.15922203725,0.0037205283473788573,0.06084345244676672,972.8158217165815,972.57462418599,973.32541519099,0.019579702678232492,0.7507910049999964,0.13957723369103334,-0.0007953441957190006,4.710202762986848,0.58,0.42,1.6944869175710662,Lift up
-0.7436035156209999,-0.78002929687,-0.72607421875,0.00012178456961272428,0.011007981048523869,0.6734954833951999,0.64831542968,0.69982910156,0.000107480943131801,0.010341350898994869,-0.22034545897994998,-0.24060058593,-0.18493652343,0.00024640013674435876,0.015657845830785184,1.02732915128975,1.00857994519,1.07333885916,0.0001633950996165148,0.012750612695805337,972.5589272409427,972.34785879945,972.77572207912,0.015387884114360583,0.42786327966996396,0.12373740216195254,-0.002140846333986137,-1.1820761355581624,0.47,0.53,-0.026281779713415502,Lift up
-0.7407666015583,-0.75122070312,-0.73278808593,1.7153414057779623e-05,0.0041313008831953555,0.6803863525356999,0.63000488281,0.72998046875,0.000353470210682935,0.018753742549942408,-0.17819885253560003,-0.2119140625,-0.12487792968,0.000666161981872271,0.02574550780161288,1.0219270736141,0.99495798321,1.0531323659,0.00011279963892572116,0.010594132372737871,972.1291949046285,971.92224658763,972.34785879945,0.015532250588225006,0.4256122118200665,0.12431648858974373,-0.0021503971652425,-1.222552109201815,0.49,0.51,0.015285065205310566,Lift up
-0.73969543456695,-0.7490234375,-0.73156738281,1.3485367798771854e-05,0.0036630507722085963,0.6903491210899501,0.67736816406,0.70422363281,2.8104105187185802e-05,0.005288060576548823,-0.16252258300439998,-0.17712402343,-0.14526367187,5.9041497326926365e-05,0.007664612830423447,1.0248039660636998,1.01401293534,1.0340335876,2.190336929416682e-05,0.004668388635032005,971.7246928851088,971.51633313636,971.92224658763,0.013403904168424402,0.40591345126995293,0.11548543045589033,-0.001996425493126538,-1.1198069832579405,0.49,0.51,-0.02551337280636314,Lift up
-0.5474743652316,-0.77612304687,0.06164550781,0.09131052733365086,0.30141993082240365,0.48969299316195,-0.35900878906,1.205078125,0.167432529477588,0.4081609570135292,-0.3461175537071,-0.97436523437,-0.15380859375,0.09144674831584966,0.30164468265538913,0.99663130011365,0.58115046376,1.36196397465,0.014562489303636817,0.12037307363824615,971.3759362467857,971.30344669423,971.51633313636,0.003684803156563354,0.21288644212995678,0.06055063286853852,-0.000779209467672104,-0.5891352373564147,0.56,0.45,0.7113167693916445,Lift up
-0.10431396484370001,-0.82214355468,0.21545410156,0.06900321820738352,0.262027101873731,0.7642193603473499,-0.37023925781,1.02905273437,0.10743425449097119,0.3269511939395792,-0.12158325195249997,-0.93725585937,0.68115234375,0.2498077822041839,0.4985566600629892,1.01565517190025,0.86442584974,1.10818090782,0.0022650468019038,0.047473377464577776,971.2260622553306,971.10472273399,971.37264826573,0.0018587021824648996,0.2679255317400475,0.043004751732251344,0.00027813394520438033,0.7546849369732516,0.5,0.5,-0.28786695067799073,Lift up
-0.9189660644489501,-1.04638671875,-0.81469726562,0.0031852571075133896,0.05629681005151022,0.44206298827734997,0.29821777343,0.54174804687,0.003461372546814326,0.05868616262868322,0.13427917480145,0.0478515625,0.32861328125,0.003022029992475867,0.054835388596357074,1.0315927033958001,0.89552012594,1.18466734587,0.0034030358277273138,0.05818952352948663,971.2474573575919,971.20902091536,971.29222498068,0.0004427788981477904,0.08320406531993285,0.020989640388940717,-0.00032263381202304257,-0.724224822843829,0.42,0.58,-0.1424363596935825,Lift up
-0.5601940917925,-1.02160644531,-0.06665039062,0.09882705906441516,0.31358080899361984,0.74306396483935,0.38146972656,1.06079101562,0.05177868741795902,0.22697972151905824,0.10906005859095,-0.18200683593,0.31677246093,0.01671520644627725,0.1289636786620398,1.0190039488645,0.87415516462,1.19629321039,0.006000877454254955,0.07727142464704323,971.2111046415553,971.13905186865,971.28279863163,0.0011157499392445544,0.14374676298007216,0.0333192315269775,-4.7965847505171855e-05,0.6130190129043824,0.54,0.46,0.030164697113171844,Null
-0.11091064453175,-1.07897949218,0.50817871093,0.14318850357060445,0.3774553762403596,0.8410235595669,0.30151367187,1.45080566406,0.046065948308766244,0.2140925467344027,0.1823779296866,-1.28051757812,0.84045410156,0.25483636667605847,0.5035495852869687,1.08601835994435,0.93515444431,1.50582651184,0.015394969227247018,0.12376588536875087,971.2201763244439,971.14128655508,971.4866729591,0.006253044395855988,0.34538640402001874,0.07887825539321155,0.000835368010358951,4.734908950710304,0.65,0.35,2.140502797872764,Null
0.05311096191260003,-1.18395996093,0.80859375,0.33831758216888375,0.5801947899266585,0.7186779785117,0.30346679687,1.19494628906,0.05226004890267042,0.22803234125482522,-0.38045227050584995,-0.73352050781,0.35656738281,0.12955630099128024,0.3590383259295919,1.0706466895723,0.68414151724,1.62055021618,0.03548911529528612,0.18791399553734597,971.1292576754063,970.96373779944,971.31862732758,0.004900009816344845,0.3548895281400064,0.06982485064261235,-4.858764363669511e-05,0.8946300441102699,0.58,0.42,0.48662741436104273,Null
-0.9122845458939501,-1.01745605468,-0.75207519531,0.004767310915450026,0.06887288552741766,0.40039611815975007,0.23608398437,0.65747070312,0.011932938736504656,0.10896455406609129,0.14055175780965,-0.01733398437,0.33190917968,0.009552123258899495,0.09749032076367888,1.0183250186024,0.91202575006,1.10424852592,0.0014775962548930466,0.03834329502818689,971.1865161296449,971.16607611307,971.21613036008,0.00010948500327578605,0.05005424701005268,0.010437316621594226,5.707595863048301e-05,1.4309419999107522,0.54,0.46,1.1670616671109468,Lift down
-0.44315429687304997,-0.87292480468,0.68334960937,0.24273185570323286,0.4914450085459376,0.7467053222621002,0.20910644531,1.25061035156,0.04673390861580741,0.21563914086438105,0.021533813475349998,-0.22631835937,0.20788574218,0.010495318104493003,0.1021902222033524,1.0134828915679501,0.47364420139,1.30360117246,0.025861286197679037,0.16041190656148516,971.1708151934395,971.12468945706,971.2178574673,0.0004269824195649482,0.09316801023999233,0.0206118293090915,-0.00011464376548333664,-0.1078301760593674,0.49,0.51,0.30036512079603167,Lift down
-0.69973022460525,-0.7626953125,-0.63220214843,0.0011535017918942413,0.03387822726966053,0.73822143554305,0.68017578125,0.78576660156,0.0007898726640077916,0.028034323617447107,0.028301391600149998,-0.08093261718,0.18322753906,0.003551524502527284,0.05944549503549153,1.0201247776207,0.98219436225,1.05456804376,0.00020814717356457818,0.014391193060228026,971.1668736408614,971.1434409158,971.19117870325,0.0002016700727872035,0.04773778744993251,0.014165511724723096,0.00016879817577902115,-1.296273295419495,0.55,0.46,0.18174418291458658,Lift down
-0.6752374267543,-0.69604492187,-0.63818359375,0.00028660755622896537,0.016887111015440756,0.75252929687125,0.70190429687,0.80310058593,0.00046296068172172513,0.021462662423686316,-0.0908068847618,-0.14135742187,-0.06176757812,0.0003451041225550086,0.01853047765013718,1.0153277377929002,0.95164102972,1.06477060045,0.0006940696765549328,0.026279256613765886,971.1639532438497,971.15137423904,971.18969006817,3.685769359959638e-05,0.03831582912994236,0.006055857093062748,-4.212755910266245e-05,2.530338585551946,0.66,0.34,0.931613260049787,Lift down
-0.6889849853477,-0.76745605468,-0.62866210937,0.0014121665393196548,0.0374847396499303,0.7505444335895501,0.71057128906,0.93688964843,0.001101202527458378,0.03310130684461093,-0.034183349608550004,-0.19750976562,0.06420898437,0.002862291705605293,0.053366471188165204,1.02107244599455,0.96183843944,1.22176856579,0.0019553776073528693,0.04410896416054343,971.3464317841358,971.16291648723,971.57164932416,0.01720016358823264,0.4087328369300849,0.13082110980377548,0.0022489576932579235,-1.2247875143429086,0.53,0.47,0.2650284806437998,Lift down
0.12301452636690001,-0.91296386718,0.96301269531,0.5450341649763263,0.7364163184988806,0.59116760253495,-0.00952148437,1.52490234375,0.135385037830898,0.367026038097767,-0.0488763427728,-0.388671875,0.28662109375,0.03676090676117086,0.1912514110467293,1.0162403184589999,0.24341818158,1.60354433951,0.04809088344151814,0.21874740918308164,971.627560328077,971.57164932416,971.70305104702,0.0011004892650813274,0.13140172286000507,0.03309058504704806,0.0005038240427314313,-0.9033760833319433,0.58,0.41,0.5156018850052613,Lift down
-0.5680145263631,-0.720703125,-0.39758300781,0.006843075895757532,0.08251581979401734,0.8116125488243501,0.66088867187,1.10668945312,0.007015550362789102,0.08354922268324917,0.2537005615196,0.15881347656,0.36059570312,0.002371785116129291,0.04857907152826868,1.0291064413867999,0.89374889493,1.25346940295,0.0028227116590847467,0.05299620836238497,971.672262857003,971.62112528655,971.70845465001,0.00048670684194933723,0.08732936346007136,0.022006210662892205,-3.865305293450762e-05,-0.08679218069706085,0.48,0.52,-0.4016782116439145,Lift down
-0.352873535152,-0.55895996093,-0.08117675781,0.013475022609577699,0.11579139647024649,0.93738159179305,0.82604980468,1.11267089843,0.0048226941634891924,0.06927178857710942,0.13654907226245,-0.12878417968,0.43603515625,0.016092146878832543,0.12653729151692153,1.0254200199593502,0.8875524324,1.16640101186,0.0046043483215678525,0.06768549756011263,971.6456309229989,971.60398516952,971.68897689135,0.0004803157205251669,0.08499172182996517,0.021861247492367425,-0.000300208658798826,-0.5508401948351427,0.4,0.6,-0.29811049921729615,Lift down
-0.0122902334020398,-0.2646484375,0.26306152343,0.022377759189193602,0.14921939235207995,0.9161747415233832,0.34777832031,1.10571289062,0.03122909981670544,0.1762774266912838,0.31093069806870643,-0.07946777343,0.80358886718,0.05083885556519576,0.22491315198431186,1.0173975955884575,0.7040961764,1.12017913221,0.005058489097550987,0.07094591239194377,971.6287042578889,971.58274247323,971.66392049214,0.0003591915230983767,0.08117801891000909,0.018905144818154654,0.0001456186611028458,0.0030282783331987417,0.46,0.54,-0.12214428397366618,Null
0.0832838508918593,-0.01513671875,0.1591796875,0.001788361386491577,0.04218263441104575,0.8062327015902512,0.73974609375,1.01049804687,0.005154852671722431,0.07161668024596274,0.5898768746028643,0.06726074218,0.71691894531,0.019112393813009013,0.13789978837200637,1.0149903510785931,0.93660579792,1.10024774833,0.0006244966850339249,0.02492706382102136,971.6212487871943,971.59320418496,971.65216321455,0.00014670036309445434,0.05895902959002797,0.01208152206223251,5.092022400472277e-05,0.3832306878682643,0.42,0.58,-0.5246860328617206,Null
0.058428955075349995,0.01477050781,0.08715820312,0.0004038927168576128,0.020046776630504085,0.7362322998004001,0.63024902343,0.77856445312,0.0018475620108334438,0.04287568309402518,0.6858221435506,0.64514160156,0.80151367187,0.0021499792231677952,0.04625180350053343,1.0100058408518502,0.98474535711,1.02480510888,7.194258572079745e-05,0.008460666214441593,971.6285007639258,971.60283090707,971.65809442737,0.00010928500526175869,0.05526352029994541,0.01042777925713092,-2.7331452474287472e-05,2.0799047734262457,0.64,0.36,0.3856223198700428,Null
-0.48665466308474997,-0.99743652343,0.1455078125,0.19985550011740302,0.44593297996090847,0.6030981445276999,0.45092773437,0.86926269531,0.012073479758920988,0.10960434462249379,0.43960571288675,0.05053710937,0.84838867187,0.057201717629443226,0.23857013442863298,1.0290004041134,0.94051428045,1.18065811799,0.002770380092976924,0.05250264938564567,971.6294259218646,971.52826263666,971.76174218249,0.001199250891127061,0.23347954583005048,0.034543518012377164,4.819284405887352e-05,5.5197212452245985,0.55,0.46,1.3298734225943905,Null
-0.5380456542954,-1.0791015625,0.18872070312,0.18863772748289467,0.43323727776529136,0.6678851318318999,0.28686523437,1.13818359375,0.067568918055794,0.25928955525727415,0.17382263183420002,-0.34741210937,0.50708007812,0.060866872163248695,0.24609457085119218,1.0334220927942999,0.69973286316,1.28489244066,0.013371769854317386,0.11534691588874753,971.6257404845048,971.55930190339,971.66699951978,0.0006756246547337174,0.10769761639005537,0.02592771743636622,-0.00020701258860630648,0.3612002068551994,0.4,0.6,-0.9674031828037047,Null
-0.13905266149850748,-0.974609375,0.49584960937,0.3019265874542332,0.5481099024179277,0.7143002030828358,0.30456542968,1.15930175781,0.05714933826027999,0.23846386140106943,0.3534767568378109,-0.2041015625,1.00366210937,0.1103117559561002,0.33130490676995855,1.0420871600658705,0.5022627918,1.60618695903,0.03475761500022885,0.185969598436186,971.6252077881412,971.56257123795,971.70918213591,0.00109560135795231,0.1466108979600449,0.03301742880552136,-0.00017832704859941945,0.23722736295942726,0.42,0.58,0.4231751789953524,Lift down
0.2199081344186432,0.18713378906,0.23559570312,0.00011897476322265499,0.010880114893275845,0.9945718583105025,0.97521972656,1.041015625,9.551038779066285e-05,0.009748355558412011,0.09645394943115577,0.02111816406,0.1796875,0.0020967390409013047,0.04567496758413024,1.0242260132609549,1.00196288849,1.07139950568,9.730602475623067e-05,0.009839565526864266,971.6228405540088,971.60751211835,971.65654043025,0.00010349548463279331,0.04902831189997414,0.010147679873772537,-9.025310651945139e-05,1.3017175778668753,0.6,0.4,1.105773025551806,Lift down
-0.24859680175904997,-0.91955566406,0.21545410156,0.2775015558394107,0.5254655536381179,0.7791827392543,0.40197753906,1.00964355468,0.06111246573218997,0.2465905582205633,0.20889709472315002,0.10754394531,0.29052734375,0.0017215610116064607,0.04138783887264988,1.0238818849091,0.80510375913,1.16014198011,0.002878289049803374,0.05351539595811992,971.628100640176,971.60442520906,971.65141839888,0.00011484683144806942,0.046993189820000225,0.010689836167632742,0.0001022363647434083,-0.4243587160697384,0.56,0.43,0.05732266333407095,Lift down
-0.8516949462854501,-1.00549316406,-0.68298339843,0.00513967209393854,0.07151205306428314,0.4973846435512,0.232421875,0.67065429687,0.006947019507075566,0.08314014920325911,0.12277709960620001,0.03771972656,0.24450683593,0.0029604049468291054,0.05427340897801574,1.00005960283045,0.90038306177,1.09241264189,0.002161824963351082,0.04637904525250953,971.6590846867973,971.60220556809,971.73677944126,0.0007603068838849526,0.13457387316998393,0.02750464232571527,0.00012481601570736258,1.4414044913057564,0.46,0.54,0.8114965098159534,Lift down
-0.815566406246,-0.88342285156,-0.78601074218,0.00045796413519246133,0.02134652933187264,0.568041992184,0.51647949218,0.64184570312,0.000825284713512153,0.02865585960924209,0.1696166992148,0.0615234375,0.27282714843,0.005803558844246241,0.07599040103871679,1.0113517476504001,0.94540640467,1.06918864171,0.0008131745869356702,0.02844483633282132,971.797172321303,971.58488656502,972.00506213701,0.01663940592380852,0.4201755719899438,0.1286709325923671,0.002189054555190135,-1.2140721052126446,0.51,0.49,-0.10144350116696091,Lift down
-0.8390548478272637,-0.865234375,-0.81396484375,0.00031039997713508665,0.017574290843214053,0.5429280598928358,0.52502441406,0.58361816406,0.00017944296202255044,0.013362268182000835,0.2878745918808458,0.27490234375,0.29821777343,4.237573537407373e-05,0.006493451379657344,1.040080244202388,1.01324643595,1.06883361723,0.00042044473788599164,0.020453678716086433,972.1510073420984,972.00506213701,972.20028789394,0.0026286803806147745,0.1952257569299718,0.051142960109588104,0.0007983437940729055,0.12164185341572376,0.34,0.66,-1.1434606050086822,Lift down
-0.8199849344335678,-0.84460449218,-0.80041503906,6.45017876154352e-05,0.008011095931857762,0.5263696411711557,0.51184082031,0.54382324218,6.127868634622546e-05,0.0078083771200556295,0.2929343985519095,0.27648925781,0.3076171875,6.56506209409145e-05,0.008082123379602724,1.017527314892764,0.99964666084,1.03945506001,7.226487680494672e-05,0.008479489178040134,972.201512959427,972.19113232531,972.21609291419,3.837591233807342e-05,0.02496058887993513,0.0061792449828017085,-3.227008460495086e-05,-0.7625447653168651,0.48,0.52,0.4045438729699255,Lift down
-0.8018969726522001,-1.02819824218,-0.65161132812,0.006234514060334344,0.07876129436488885,0.5767578124966001,0.31958007812,0.87243652343,0.010194372292106289,0.1007144499595056,0.24458251952760002,0.02331542968,0.44519042968,0.01360322356223826,0.11634091045039603,1.029979467588,0.88823000643,1.20940797869,0.00455596341466023,0.06732892095962127,972.1929982697458,972.13495517166,972.30451065704,0.0014468656614187462,0.16955548538010135,0.037942473998299746,-6.685617004855197e-05,-0.10582323684028383,0.48,0.52,0.36837769853904234,Lift down
-0.7700366210904,-0.90893554687,-0.65270996093,0.003823137768571466,0.061676754776241335,0.6330175781208,0.48083496093,0.87768554687,0.010291347815202625,0.101192346924689,0.23427978515300002,-0.029296875,0.4228515625,0.015298850745870741,0.12337891429308893,1.0350346063998002,0.87414916428,1.24494563098,0.00655708840717077,0.08077315745428623,972.1818336905677,972.15590626009,972.21473762804,0.0002268575853448177,0.0588313679500061,0.015024090568753024,-6.996869625706987e-05,-0.6718676466865738,0.56,0.45,0.46158448460208,Null
-0.7036572265586,-0.87976074218,-0.54821777343,0.0044099162931552915,0.0662409745677818,0.5835107421842,0.4287109375,0.72436523437,0.005458484127330094,0.07369661937086018,0.44689453124620004,0.35229492187,0.67712402343,0.00845413229567903,0.09171620159056215,1.0256981062236001,0.93434408194,1.1200970529,0.001514890186778119,0.03882416432898754,972.1829427943803,972.12543949398,972.29683958016,0.0009186377251282416,0.17140008618002867,0.030233169474975667,0.0002271488921049833,6.448334335667795,0.84,0.16,2.3941680814609874,Null
-0.6348388671841999,-0.85266113281,-0.42211914062,0.008961561936220342,0.09442856626328307,0.6736914062460001,0.36669921875,1.04602050781,0.022334514934213606,0.14907327848928037,0.45056640624660005,0.220703125,0.71997070312,0.016464256138103622,0.12799193278255122,1.0456338336666,0.82077638134,1.3080540868,0.014132665137846891,0.11858331169333085,972.1759841425746,972.14227052468,972.28496648755,0.0011041406896193438,0.1426959628699933,0.03314543688309519,3.891660867132112e-05,4.452505608732476,0.72,0.28,2.245347766048653,Null
-0.3740258789046,-1.00512695312,0.31774902343,0.1674422639613133,0.4081728220270266,0.25323242187300005,-0.39001464843,0.75915527343,0.08573201687320603,0.2920673839867095,0.7813769531214,0.23974609375,1.29431152343,0.05495125022952969,0.2338300536252388,1.0492531293624001,0.82307573583,1.36179901363,0.02032636621290836,0.14221369266650738,972.1005331513475,972.03768766397,972.34247847202,0.004305663362208772,0.3047908080500292,0.06545330431229372,-0.0006687013045299755,4.831876505569567,0.54,0.47,1.9509610493069816,Stairs up
0.067441406249,-0.51013183593,0.26110839843,0.026404376747897675,0.16208749138708448,0.7000415039023999,0.25415039062,1.18151855468,0.06588793388585067,0.2560439302471773,0.5806347656218,-0.55859375,1.1689453125,0.14093663833776046,0.3744755734972198,1.0151476856322,0.69497167613,1.39165284179,0.033448404115325896,0.18243125306467986,972.0312126395818,971.92941195212,972.21634701223,0.006377999555096313,0.28693506011006775,0.07966247270403318,0.00017838909212548044,-0.2630062458807947,0.58,0.42,0.8324763859726247,Stairs up
-0.7284057617152,-1.29077148437,-0.35986328125,0.06440906623470286,0.253154144551357,0.5685766601526,0.23352050781,1.01635742187,0.04487396142573079,0.2113044997594754,-0.05097167968660005,-0.53698730468,0.54028320312,0.12740154311585836,0.3560400755536925,1.031071626967,0.80599906661,1.4633783411,0.0289898816971133,0.1698379589156315,971.8456258608442,971.77848651723,972.04410604389,0.0017222445068769726,0.26561952665997524,0.04139605397066957,-0.00026588971403183697,2.743442472550286,0.57,0.42,1.3631627585765933,Stairs up
-0.8973876953086,-1.21752929687,-0.71997070312,0.01827193205075701,0.13483535289568246,0.3863549804643999,0.12780761718,0.89282226562,0.01967444161676241,0.1399145074989674,0.3668383789024,0.09790039062,0.78625488281,0.03700217590285351,0.19187799515144838,1.067913484826,0.83372949283,1.40181452825,0.02339682272076687,0.15257732009431493,971.7470024040371,971.61614706754,971.90325156709,0.002235047891752813,0.28710449954996875,0.047157954284447585,-0.0002929821192487195,2.626875589092613,0.6,0.4,0.21100764937086935,Stairs up
-0.9991601562460001,-1.39318847656,-0.73059082031,0.03160704778058342,0.17733869442871317,0.26230224609,-0.16564941406,0.53857421875,0.014699018354974874,0.12093602963219853,0.19851562499639996,-0.169921875,0.39929199218,0.011684551047203758,0.10782452546599841,1.0640698265352,0.7912217425,1.47501983487,0.032148751614442216,0.17885191599859926,971.6360679141397,971.5821871843,971.67893898226,0.000954483252196262,0.09675179795999611,0.03081737879728386,-0.0004945052252396776,-1.3541634932304427,0.5,0.5,-0.27332487048352294,Stairs up
-0.9779541015586,-1.14184570312,-0.84509277343,0.003959791145080839,0.0627693570889127,0.37280029296500006,0.19799804687,0.60021972656,0.008162041099840471,0.09011787222488817,0.1166577148424,-0.17639160156,0.47131347656,0.02534746022013325,0.15881033631043223,1.0677369842606002,0.92106697263,1.24605240349,0.006234154842747848,0.0787590253147797,971.568002922739,971.54713890345,971.60944021952,0.00028877708312983206,0.06230131607003386,0.016950905513104096,-0.00022396884826654924,-0.4679906338246065,0.52,0.48,0.6533252142893085,Stairs up
-0.04504394531259999,-1.09912109375,0.9931640625,0.6558786990013317,0.8078361872968585,0.4923583984344,0.01477050781,1.05859375,0.06823590053422111,0.26056615480823675,0.15584472656040002,-0.40563964843,0.64599609375,0.0982463338489024,0.3126581234825954,1.0226029702724,0.57341729889,1.50134047078,0.04147298715733037,0.20313941572610597,971.5418576617053,971.22740348956,972.30131081417,0.04976052159951877,1.0739073246101043,0.22251228952918797,-0.0012221284415140112,4.192975228744503,0.52,0.48,1.9838739597535981,Stairs up
-0.9682543945274,-1.2587890625,-0.68041992187,0.018120054869441404,0.13427380457518212,0.4060913085902,0.29809570312,0.64794921875,0.004753765898256222,0.06877497414586893,0.1675878906216,0.0380859375,0.4287109375,0.010391244720598462,0.10168229195388678,1.0698785706514,0.77912343516,1.34093958802,0.019066340442740574,0.13773528502358018,971.4735789816494,971.36981401112,971.99615743821,0.0077684513085848434,0.6263434270900916,0.08791819522739261,-0.000523072089555871,22.190885882272273,0.56,0.44,4.077724532667822,Stairs up
-0.9614892578088,-1.21850585937,-0.74060058593,0.01635031918201495,0.127548295112498,0.40796386718500005,0.26025390625,0.59777832031,0.006380180593786302,0.07967609234153851,0.1118383789034,-0.01281738281,0.2412109375,0.004443639900124102,0.06649377189349,1.0557713982983998,0.83979958706,1.28274328158,0.015868297806763448,0.12565411381140543,971.356433621169,971.26966656485,971.43504966182,0.0024934499870341562,0.16538309697000386,0.049809464332584284,-0.0008243926660713437,-1.0926097374475985,0.52,0.48,0.09037030446868823,Stairs up
-0.9090296806945274,-1.23791503906,-0.69177246093,0.018488946666765416,0.13563540045828018,0.43930615476890544,0.26489257812,0.80871582031,0.015129459100723797,0.12269550994198677,0.1630586083217413,-0.01049804687,0.32470703125,0.008081114212039253,0.08967111945169777,1.0321417848329353,0.8307046478,1.37964928359,0.0221988052499731,0.1486215443090572,971.2007928084757,971.07603824727,971.546660699,0.008651298684288388,0.47062245172992334,0.0927806951757847,-0.0007546239002501301,5.192883343224265,0.48,0.52,1.8951480871804791,Stairs up
-0.9382556152299,-1.16845703125,-0.71252441406,0.01109914270337708,0.10508875767588174,0.5091094970671499,0.279296875,0.91918945312,0.02941748161943846,0.17108592639764753,0.24104553222265002,0.05590820312,1.17431640625,0.04929892709784403,0.22147783740671392,1.11893430948435,0.80203761655,1.73799698894,0.035147249089717794,0.1870067187142462,971.0565603887482,970.98745828555,971.1018314735,0.0007253949162078085,0.11437318795003648,0.026865739178864395,-0.0003797591229297062,0.517440768149954,0.51,0.49,-0.8160393432774619,Stairs up
-0.6350956442340703,-1.13647460937,0.18334960937,0.12395140569985469,0.3511816258212099,0.7622303411550754,-0.41027832031,1.61340332031,0.10437347196097534,0.3222560816371449,0.0760712743388442,-0.25170898437,1.08447265625,0.0474363933333103,0.217251051775278,1.091597310537437,0.20551402677,1.78542074251,0.07328753574893858,0.2700356581542951,971.0366442685681,970.99895209943,971.13827159564,0.0007455233632630518,0.1393194962100779,0.027235583612324907,-0.00017448182783733163,3.3743243959069584,0.68,0.32,1.7034289812351895,Stairs up
-0.9595190429656,-1.21826171875,-0.67260742187,0.010714267899737728,0.10325064920008513,0.50443115234,0.33618164062,0.71350097656,0.007196590079726904,0.08462037065227421,0.2033203124966,-0.03894042968,0.39721679687,0.01047545701393499,0.10209348524203353,1.1105580032626,0.86896689746,1.3468693025,0.011429181453972856,0.10663974656150957,971.030994205167,970.98058720151,971.05137068381,0.00016806265363090124,0.07078348229993026,0.012931447728802323,-0.00010377604499731622,4.472064023622698,0.5,0.5,-1.6181404605095608,Stairs up
-0.9454956054652002,-1.22607421875,-0.70324707031,0.01496079713859523,0.12200816838598248,0.473771972653,0.22692871093,0.64807128906,0.009421102970718293,0.09681940640111725,0.17668945312159998,-0.05407714843,0.60900878906,0.018683992534344482,0.13634724996006617,1.0877254258458,0.90584661286,1.30726299089,0.009391905546266004,0.09666926098059649,970.9204308881345,970.84498629542,970.99058494321,0.001872219947263777,0.14559864779005238,0.04316084854966892,-0.0007357149880268401,-1.1087176788149784,0.46,0.54,-0.07315436932315678,Stairs up
-0.9537596441580098,-1.24377441406,-0.71472167968,0.012754181626371177,0.1126531312766715,0.43900978505527366,0.28356933593,0.60778808593,0.0052798374560447114,0.0724815121807257,0.07977689676263681,-0.06604003906,0.30651855468,0.0035321570960922793,0.05928392847320594,1.0587015520502985,0.83720079671,1.35977238842,0.009408115456943873,0.09675385735143568,970.766933505944,970.68684724836,970.84954472538,0.002044900462554649,0.16269747702006043,0.04510794639985937,-0.0007705107290707669,-0.9895695345710331,0.46,0.54,-0.06814205736538552,Stairs up
-0.9937371826129001,-1.45349121093,-0.75146484375,0.02867664961314366,0.16891792789718307,0.4331604003872499,0.1494140625,1.14782714843,0.03955645773091511,0.1983902100464147,0.1297235107396,-0.12670898437,0.36389160156,0.017668809602395953,0.13259134796201438,1.11298780233325,0.79407897987,1.6456370634,0.03889474274249654,0.19672383950295413,970.6230821959011,970.56269793924,970.69154090917,0.001421770572051955,0.12884296993001954,0.03761198903530223,-0.0006059965624227258,-0.9114616511448888,0.53,0.47,-0.05353671592880345,Stairs up
-0.97129333495675,-1.10424804687,-0.8203125,0.003215688673221361,0.056565097276105286,0.25341308593374995,0.03503417968,0.43225097656,0.011752657830519509,0.108138312088579,0.26796264648,0.03393554687,0.45239257812,0.01030639274495385,0.10126628649866194,1.04901079916875,0.8822413006,1.21999577894,0.004178515923396373,0.0644796351089194,970.5740342804395,970.56606916927,970.57952410572,8.767709339302055e-06,0.013454936449988963,0.002953619947218251,7.237067302558836e-06,0.5130058260372907,0.49,0.51,-0.7559062814643478,Null
-0.9517429677648241,-1.02734375,-0.88708496093,0.0005807837013790194,0.02403882672504657,0.2746612702146231,0.15502929687,0.33081054687,0.002013131439847118,0.04475505783099745,0.20748272612683416,0.07629394531,0.44689941406,0.009113484403518954,0.09522440863287716,1.017653930492563,0.98025185059,1.0706448561,0.00033329266974136226,0.01821037704730392,970.5789856677217,970.57254822466,970.58697736908,1.1059946582871435e-05,0.014429144420091689,0.0033172833707496227,4.4385888598070255e-06,-0.41665048255068937,0.48,0.52,0.30332013793721513,Null
-0.9090991210902001,-1.17199707031,-0.30065917968,0.02631249236725811,0.1618052221203686,0.4205468749968,0.18212890625,1.20324707031,0.05650178070599764,0.2371060349347263,0.24368164062080006,0.06701660156,0.40881347656,0.00736967556427504,0.08563192854568712,1.0674195797546,0.84854320408,1.45147128501,0.013115676045035654,0.1142370240544215,970.5745641776823,970.52401738927,970.75980587717,0.0015640363885207954,0.2357884878999812,0.03944890627860539,6.631383305792069e-05,16.519806642888295,0.62,0.38,4.062604936623511,Null
-0.5337272378302985,-1.35400390625,-0.07849121093,0.09128303734097316,0.30137832184248126,0.7435163051889552,0.08947753906,1.22692871093,0.0750968595121404,0.27335552545295677,0.2149427423395025,-0.0869140625,0.59912109375,0.023274395526725188,0.15217950753683762,1.0141110372683584,0.6626472314,1.53193307257,0.044392041676367476,0.21016942153326998,970.5908244129441,970.16571392875,971.17397572804,0.062048976269508865,1.0082617992899259,0.24847590405315703,-0.0007533365084489601,-0.23697895412519232,0.56,0.44,0.34428393580855454,Null
-0.5415850830039,-1.17004394531,-0.03991699218,0.12952506920782508,0.3589950471270961,0.7927050781215,0.1826171875,1.44372558593,0.10768789403983627,0.32733691293472705,-0.03647338867049999,-0.47497558593,0.42639160156,0.05455834745471581,0.23299260871847893,1.07684284271845,0.56616213569,1.51469107985,0.05401808776718774,0.23183614327440794,970.7421397502818,970.60472131312,970.92216545985,0.006668529750429548,0.31744414673005394,0.08145665781062589,0.0005074524130059962,-0.5964179460035353,0.46,0.54,0.18243152210882965,Stairs down
-0.7338500976512501,-1.45336914062,-0.17333984375,0.08538084398546275,0.29146859138770925,0.6681347656213501,0.35668945312,1.42456054687,0.05394848762461125,0.2316867393410512,-0.025737304686749996,-0.35437011718,0.33874511718,0.025790006885756365,0.16019068902819408,1.0516583758584,0.60730137503,1.5381452664,0.04413149949850458,0.20954913982408055,970.864576881685,970.61673242829,971.06514799176,0.009222425605982581,0.44841556347000733,0.0957930763570764,0.0009121043206732134,-0.023697801172246624,0.68,0.32,0.37191199558293453,Stairs down
-0.92935485839395,-1.49072265625,-0.1767578125,0.05862062479648687,0.24151091418920273,0.51605102538665,0.18310546875,1.23791503906,0.03860677456571948,0.1959942363767131,0.1527008056607,-0.21411132812,0.49682617187,0.02254441094988201,0.1497721232243591,1.1147530469536,0.76320942489,1.51711084347,0.029975120849290316,0.1726998704256719,970.9583695546529,970.82007284165,971.08961244306,0.0028703960311851216,0.26953960140997424,0.05344196900404397,0.0005920673305792627,0.35419021019625374,0.4,0.6,-0.019034951451280292,Stairs down
-0.9729316749719598,-1.18518066406,-0.81042480468,0.007286187519348314,0.08514442736734681,0.3685995897419095,0.271484375,0.5166015625,0.004313865607643696,0.06551479139112305,0.1341742894121608,-0.0400390625,0.275390625,0.004046768715417467,0.06345418184985498,1.0524978311115578,0.90336758876,1.27060499706,0.00782808811125007,0.08825390067902315,970.9832490865273,970.95383302109,971.02085094502,0.0003522694804565256,0.06701792393005235,0.018721626052837177,5.192963537103885e-05,-0.9139433073405292,0.5,0.5,0.28502521986098606,Stairs down
-0.6549685653729352,-1.32507324218,-0.27490234375,0.08186921106649404,0.28541531416288884,0.6366768452622388,0.28125,1.01416015625,0.03186218807942387,0.1780552434801346,0.36679092330965174,0.1044921875,0.69775390625,0.022000436005119556,0.14795601069108835,1.0321227909979103,0.51311472858,1.48432875109,0.03884918456062156,0.19661105013565322,971.0180331663132,970.88912032206,971.40130928569,0.008912616831378856,0.5121889636300239,0.09417152146009065,0.0007250634422348157,8.285658522917409,0.62,0.38,2.612391303716648,Stairs down
-0.9310223388637499,-1.42028808593,-0.60437011718,0.049481185099180224,0.22188686120111825,0.39090087890264996,0.22131347656,0.70397949218,0.00912697789040805,0.09529608072190593,0.17440246581660002,0.0322265625,0.46728515625,0.009111111906507121,0.09521321519082625,1.0351555716655,0.68141615486,1.49749165656,0.04608636547141612,0.21413998609334745,971.1127992156657,970.99428086387,971.23477028661,0.003507423921051106,0.24048942273998364,0.05907526387114873,0.0008541734799586341,-0.8343224313357784,0.49,0.51,-0.290188751112668,Stairs down
-0.6246838378884499,-1.32568359375,0.29504394531,0.21753560915330097,0.46523964911380294,0.4321203613245001,0.07080078125,0.83874511718,0.0285583023914056,0.1685690092497686,0.39317016601085003,0.01538085937,1.37622070312,0.13010351812882737,0.3597957761538943,1.0354081802109,0.73715843114,1.41092275356,0.03395460955785103,0.18380651922622815,971.3034609106187,971.18239931954,971.5139085635,0.004703726636425809,0.33150924395999937,0.06841204574666424,0.0009691977826679517,-0.969943268359803,0.47,0.53,0.1043804036460604,Stairs down
0.5528570556603999,0.18896484375,0.77600097656,0.017236106733883372,0.13095772676789239,0.57689819335515,0.13354492187,0.84777832031,0.0216117712045557,0.14664144144317773,0.6168408203087,0.38757324218,1.37622070312,0.031065125028309642,0.17581182953137167,1.0338339744397,0.7669031121,1.399900944,0.01858321589522536,0.1359790418253829,971.4287816873766,971.26191431944,971.57058892271,0.00397864252360615,0.3086746032699921,0.06291859272892329,-0.0001535318311254637,0.7182810023617869,0.5,0.5,-0.1566156192068642,Stairs down
-0.042931944880804054,-1.04077148437,0.68737792968,0.46697193849574514,0.6816343197345536,0.71674166731799,0.35888671875,1.03076171875,0.039384274568333606,0.19795545872962064,0.15851903560497488,-0.10595703125,0.39807128906,0.015507868911114792,0.1242173092673147,1.0250875547097988,0.81443248695,1.18143615214,0.009173305806215651,0.0955364265194908,971.4689052473761,971.02159367878,971.98445500198,0.03950795841884622,0.9628613231999452,0.19826604844117957,-0.0012066075422491316,0.24584127457727778,0.6,0.4,0.36557012069857314,Stairs down
-0.9544944952933334,-1.39611816406,-0.62341308593,0.02403047281264858,0.1546315563574941,0.37699442241597014,0.19201660156,0.62390136718,0.011454039290225348,0.10675698581415984,0.11749905258517412,-0.23620605468,0.28332519531,0.007570047058004444,0.08678931462076844,1.0415725418182586,0.68708410471,1.46203491486,0.025082348747491455,0.15797962192250484,971.5147187205133,971.45570053133,971.84234841852,0.0032381520541976687,0.3866478871900654,0.05676303237999891,0.0004856287993884364,19.335610950057788,0.64,0.36,3.830331781126882,Stairs down
-0.8938848876912,-1.60046386718,-0.24890136718,0.1336544163257298,0.3646726535457535,0.42501342773170003,-0.03735351562,1.04992675781,0.0704789352757822,0.264814162384498,0.30038452148085,-0.08520507812,0.91137695312,0.04634900948897991,0.2147493060327204,1.106300732711,0.56130165032,1.67164534479,0.08902647996433334,0.2976261876322574,971.653810823024,971.53552248951,971.92225357051,0.005051667025409586,0.38673108099999354,0.0708971698326706,0.0007556355407435094,5.670315730456833,0.59,0.41,2.006836335922222,Stairs down
-0.9471411132772001,-1.44262695312,-0.49182128906,0.0668176897744774,0.25784414153826535,0.39049682616830006,0.16577148437,0.70471191406,0.02023228250423541,0.1418841819644256,0.13144042968380001,-0.06506347656,0.306640625,0.008539143554911874,0.09217617825196114,1.0472118911897998,0.5559619983,1.50578872475,0.0656272075084003,0.2555368299694944,971.8229928359381,971.69743929605,972.32767662761,0.011360539244598901,0.6302373315600107,0.10631903191985857,0.0006727361689781968,8.20986006127043,0.52,0.48,2.2166613130395816,Stairs down
-0.9885119628861001,-1.61157226562,-0.36376953125,0.06231698196008205,0.24900882926169834,0.4164355468708,-0.16027832031,1.24938964843,0.05768747045681222,0.2395809531338586,0.17639038085540001,0.001953125,0.94873046875,0.03355844131515533,0.1827310841334324,1.1249227750911002,0.5997438311,1.68885387752,0.06937875504773097,0.26273915062756126,971.9746103162979,971.88228002846,972.41499451689,0.0038648735116727385,0.5327144884300878,0.0620124918392607,0.0007966842003169324,12.07316041778289,0.57,0.42,2.3693928459151468,Stairs down
0.88186157226235,-0.36376953125,1.13659667968,0.06713263452142056,0.2584511004983601,0.28969604491855,0.08801269531,0.98132324218,0.01512370477805138,0.12267064137013844,-0.21515624999650002,-0.44226074218,0.35632324218,0.01572665701539606,0.12509206102035045,0.9893377527738,0.39059039916,1.19634111563,0.02673340226761114,0.16309425267701216,972.0574357169378,971.95322342063,972.41499451689,0.009933656092122203,0.46177109626000856,0.09941824687481465,-0.00029768615088750905,4.011989059905019,0.62,0.38,1.934857935633085,Stairs down
0.8380688476528,0.32958984375,1.14880371093,0.030202028864887185,0.17335229655404844,0.16815429687349998,-0.6923828125,0.53308105468,0.09511273724150697,0.30763155487579524,-0.3481188964807,-1.02966308593,-0.05969238281,0.03475032927834315,0.18594778200331252,1.0003959994703,0.7641089279,1.32992258156,0.010346373067484314,0.10146251131401633,972.0278588430642,971.97597988606,972.19090089394,0.0010922996327705065,0.2149210078799797,0.03296722819113936,8.590206476411317e-06,1.8739595598676013,0.59,0.41,0.8546705613174858,Stairs down
-0.29733642578009994,-1.21997070312,1.09020996093,0.5117482817239953,0.713575181964294,0.24873168945219995,-0.91552734375,1.25,0.367108799369271,0.6043784041247872,-0.09584350586030001,-1.03356933593,0.28137207031,0.1309718841187194,0.36099449399973654,1.0604264307209,0.62209724835,1.50822424331,0.039937674839685335,0.19934388996276486,972.1379556960248,971.95666425549,972.30434289288,0.007103103768585046,0.34767863739000404,0.08406894937931673,0.0010123076005021311,-0.4095745678369358,0.42,0.58,-0.3496544649489103,Stairs down
-0.9518835449182,-1.3291015625,-0.60717773437,0.04440751448802846,0.2102034179445908,0.43564086913669997,0.2978515625,0.68542480468,0.010490932013733157,0.10216886685123061,0.1289953613248,-0.06335449218,0.30676269531,0.006438228010099919,0.08003772154459059,1.0620520354493,0.69361457963,1.40637877192,0.045809566159933986,0.2134959445262001,972.3549695536516,972.23996233891,972.45051406692,0.003369735826574432,0.21055172801004574,0.05790412029762269,0.0009289304934283158,-0.9893875769626761,0.52,0.48,-0.1843915844726781,Stairs down
-0.8443444824173,-1.50561523437,-0.27185058593,0.08264523434748186,0.2867612389702354,0.5859887695274,0.25573730468,1.29309082031,0.05389747493201026,0.23157717408533643,0.1735156249968,-0.1474609375,0.67138671875,0.03296021430312559,0.18109503922418735,1.0852023670779003,0.61268184307,1.5797705852,0.0777882880157499,0.2782073805197683,972.5270644545681,972.40706107001,972.90148722646,0.008157206030837638,0.4944261564500039,0.09009117604229312,0.000421627264562118,4.469892544925532,0.59,0.41,1.6457968739242375,Stairs down
-0.8817834472613001,-1.1416015625,-0.35888671875,0.030416353040853186,0.1739662935043709,0.4871044921837,0.1513671875,1.16918945312,0.07117539899432737,0.2661193754677696,0.17986328124750003,-0.14953613281,0.42700195312,0.020422000477285974,0.1425478532805722,1.0746289406856,0.87275262435,1.42363781173,0.013809002716962395,0.11721756567757916,972.63804490473,972.55245212316,972.7789666126,0.002904505220908332,0.2265144894399782,0.05375855927016451,0.0002288224466257815,0.16892458136962718,0.43,0.57,0.5713600952422778,Null
-0.6907836914024,-0.87890625,-0.47473144531,0.016822975933895885,0.12937875039675722,0.6566064453089,0.41479492187,0.89636230468,0.019062249408833106,0.1377205074118918,0.3039916992148,0.18737792968,0.44055175781,0.004788164068175595,0.06902335291649281,1.0178016578364,0.85372946567,1.19661804035,0.005301400293298837,0.07262846061863312,972.6471726760066,972.459061245,973.03245460256,0.012048126684799744,0.5733933575600076,0.10948920518195274,-0.0006206059418689633,4.510081144315957,0.71,0.29,1.8287469888881012,Null
-0.4209704589805,-0.84362792968,-0.220703125,0.03280999615426056,0.18068189221249942,-0.0496948242158,-0.24548339843,0.53881835937,0.049007719035196476,0.22082273533316377,0.8522705078083002,0.32751464843,0.99353027343,0.033497046585416766,0.18256385554783205,1.0101611614183,0.97034496093,1.04881950815,0.0003651631138469856,0.019061408612108147,972.6283574707688,972.58773244582,972.70325334412,0.0006610684501604986,0.11552089829990564,0.025646892753503223,-0.00026732246500425365,1.2707470507167216,0.72,0.28,1.340814690692964,Null
-0.06536499023200001,-0.4970703125,1.01318359375,0.18575399977692136,0.4299130490902047,0.0830993652358,-0.42199707031,1.16796875,0.22505665704939426,0.47321387740021664,0.7286389160118,0.02160644531,1.13269042968,0.12048073255063112,0.3462344998521637,1.0299758950905,0.70072405229,1.27498834174,0.00992697923728609,0.09938482953197465,972.6244620567579,972.51364728758,972.78198479363,0.0032481396173870076,0.2683375060499884,0.05684979260560299,-0.0001281997907503349,0.964313868775506,0.61,0.39,0.9368674148631694,Null
-0.9323876953087,-1.39147949218,0.57080078125,0.08306386910434681,0.28748660796431036,0.3803173828084999,0.08239746093,0.73266601562,0.017495765254886476,0.13194046547065097,0.20982788085540002,-0.07971191406,0.39196777343,0.011857883742848586,0.10862133457168689,1.0694122991061,0.5587464504,1.55975621118,0.02636043281181849,0.16195255678055656,972.5655435002886,972.49782304396,972.7427406654,0.0023526413900889416,0.2449176214399813,0.048382622739352364,-0.0005468227890359466,3.917302338138817,0.55,0.45,1.7095185618714315,Null
-0.9731835937456,-1.28015136718,-0.78271484375,0.015584463713754198,0.12452526408398187,0.3863684081993,0.28308105468,0.61791992187,0.006027954503841103,0.07744555979087438,0.12494018554309999,0.01599121093,0.27026367187,0.0029377489518881083,0.05406533276628072,1.0591957436283999,0.86342699883,1.32705675809,0.0145816049930596,0.12045205256903803,972.4411844007984,972.35610121742,972.51685316275,0.001686309090377437,0.16075194532993464,0.04096190358034584,-0.0006408992309862135,-0.6486451387900747,0.45,0.55,-0.08510415516193758,Stairs up
-0.5510742187471,-1.22888183593,0.908203125,0.5014617988178479,0.7063671069803283,0.44771362304359996,0.13537597656,1.08703613281,0.05460462470012318,0.23309140176467805,0.19817138671640003,-0.23791503906,0.80151367187,0.04445905996239814,0.21032537807546228,1.0473349363057998,0.54200530165,1.48018911836,0.04423574733475088,0.20979649329308897,972.2706978046787,972.20818412049,972.40213278086,0.002228529710134515,0.19394866036998337,0.04708913952902349,-0.0005595477488660034,-0.35624491178668993,0.61,0.39,0.686377877107309,Stairs up
-0.9429431152311,-1.3447265625,-0.70861816406,0.021580926465933212,0.14653675932544552,0.395523681637,0.109375,0.67504882812,0.01582901820921385,0.12549849846977365,0.15459350585509998,0.01489257812,0.287109375,0.004542779160225262,0.06723143062901558,1.0436695362699,0.79166836592,1.42258503236,0.022087148371989246,0.14824544724924707,972.1550134791728,972.11470090847,972.22804473058,0.0012188388074738242,0.11334382210998228,0.03482448296007358,-0.0004924545049497831,-0.9166230333405756,0.57,0.43,0.6055156083720767,Stairs up
-0.9609326171835,-1.08984375,-0.82653808593,0.003920097123407176,0.062453956142026264,0.4084631347622,0.255859375,0.54467773437,0.0051308066566316795,0.07145035075735123,0.1248144531216,-0.03002929687,0.28259277343,0.006022004170496582,0.07740732620136223,1.0567646747636998,0.94210767929,1.2164010618,0.004078633685755941,0.06370432102555651,972.1196249794829,972.09419370769,972.16493215117,0.00025356530806818075,0.07073844347996783,0.015883874890209877,-2.2793607043438513e-05,0.8493994777167466,0.61,0.39,0.9882820376339461,Stairs up
-0.9658618164032,-1.24487304687,-0.80187988281,0.00917336186564658,0.09553792470175572,0.4085913085902,0.27990722656,0.53686523437,0.005505567034329619,0.07401377709020106,0.1254516601532,-0.0673828125,0.29150390625,0.008783268119602908,0.09348450020727977,1.062792766894,0.88631328269,1.29800879083,0.009437633717849519,0.0969043113037819,972.0949206347983,972.05443569909,972.16977400608,0.0006320159237506143,0.11533830698999736,0.025076998307848992,-0.00020530087656593673,1.375067142133064,0.59,0.41,1.1349724469846705,Stairs up
-0.9741503906208001,-1.24841308593,-0.7275390625,0.020586355283453723,0.14312031130149366,0.36190917968409997,0.20849609375,0.62683105468,0.010391653218957688,0.10168429059035078,0.155209960935,-0.15930175781,0.36193847656,0.011293668087794093,0.10600565903457759,1.0614275401195,0.82946831237,1.37178672493,0.01956710064727837,0.13953230860285362,972.0187299749373,971.90844934609,972.42116738976,0.010208746423656347,0.5127180436699064,0.10078542896439974,-0.00034921431204572176,7.542306831189634,0.65,0.35,2.519747029274352,Stairs up
-0.787041015621,-1.25671386718,0.11596679687,0.13799776213748188,0.37055063530750354,0.5313879394491,0.13928222656,1.64562988281,0.08553952447610695,0.29173931317826607,0.0678674316389,-0.48278808593,0.47119140625,0.0409279017746067,0.2018000551678162,1.0485695998478999,0.33347681305,1.70627854117,0.07040939443391439,0.26468348543448045,971.8428655748494,971.61957679944,972.63061433764,0.029118800437639536,1.0110375382000711,0.17021517686578755,-0.0010561518426222215,7.350588755527891,0.75,0.25,2.326144763331489,Stairs up
-0.8681616210895001,-1.30358886718,-0.18249511718,0.06690474430516584,0.2580120551130121,0.46627807616829997,0.24609375,0.99890136718,0.03793948031394809,0.19429303361772482,0.10317016601180001,-0.06762695312,0.25427246093,0.0058979245450255235,0.07660571076819532,1.0332025985373,0.70313654996,1.36626897747,0.024567594571620034,0.1563481902637889,971.7436649265361,971.64658087445,971.79245789482,0.0011697160104949833,0.14587702036999417,0.03411550132186992,-0.00023917078292036518,0.9756775877559902,0.49,0.51,-1.0275586418479834,Stairs up
-0.8559143066364,-1.24548339843,-0.32861328125,0.051570734598635794,0.22652346661139242,0.5419311523404999,0.27124023437,1.36267089843,0.07068670350096952,0.26520420430955594,0.14979125976240001,-0.08666992187,0.67028808593,0.020282716036424245,0.1420609110777561,1.0727760753417999,0.77584721648,1.62290431565,0.039894513792758275,0.19923614437093107,971.5577856325539,971.43591884562,971.73328115943,0.005227722921756402,0.29736231381002654,0.07212200986625109,-0.0006675698000093918,-0.04889832745603062,0.61,0.39,0.6531026817419134,Stairs up
-0.1767785644513,-0.8330078125,0.54736328125,0.06516968306963548,0.2546445260638589,0.6725695800738998,0.21557617187,1.16589355468,0.03776641338165223,0.19384937790651785,0.6340930175738001,0.12414550781,1.06896972656,0.04075143340098464,0.20136453569082047,1.0100212451581,0.83779306443,1.18930697365,0.008543349106002865,0.0921988739653194,971.5129149997866,971.41655907822,971.59350989002,0.0019372433234017788,0.1769508117999976,0.0439039532022433,-0.00024104040179557412,-0.7539462263834769,0.53,0.47,0.1658103918055191,Null
-0.05397949218640001,-0.26586914062,0.21789550781,0.01691711907327003,0.12974025388407284,0.9949414062464002,0.77856445312,1.11767578125,0.003806196361276246,0.06153994945943541,0.17504394531030001,-0.20764160156,0.59313964843,0.028898602729096463,0.16957036803478073,1.0345088842365,0.8896952511,1.14110971628,0.002640951998480158,0.05126155712117763,971.4819157570595,971.34587269953,971.58129334182,0.0027699202070128616,0.23542064229002335,0.05249829145770172,-0.000252724266180433,0.1943615155430014,0.46,0.54,-0.37287950029431544,Null
-0.0893664550767,-1.05578613281,0.1552734375,0.06522396973385321,0.2547505640527297,0.9835632324181001,0.51599121093,1.22229003906,0.013198910159260852,0.11459893371434374,0.0994543457013,-0.28698730468,0.27856445312,0.02383402839153529,0.1539962929734921,1.0398603525279,0.89301023311,1.22751194962,0.005738927959715935,0.07556608577872322,971.4871150976443,971.38222597473,971.54935396726,0.0013757306930378163,0.16712799253002686,0.03699800048073716,4.9094183602491894e-05,0.21854448241280577,0.44,0.56,-0.5942462724366265,Null
-0.9501391601522,-1.56921386718,-0.4755859375,0.034025485617346134,0.18399825594080885,0.4424243164024,0.31201171875,1.00036621093,0.007331390842074477,0.08540921430304874,0.14785522460590003,0.02160644531,0.35632324218,0.005885459027360127,0.07652471321229062,1.0680424247237001,0.60767637606,1.61580760337,0.02679032124942888,0.16326778507464887,971.4805537444842,971.403936023,971.59801678067,0.0005351499594243239,0.1940807576700081,0.023075402696967225,0.00025188235258066495,6.699643520456155,0.51,0.49,0.5803348424133652,Null
-0.1654040527323,-0.8134765625,0.29968261718,0.05824648989274682,0.24073898197691848,0.9450488281203999,0.45471191406,1.57495117187,0.07158908584049,0.2668916267163276,-0.14391601562450002,-0.77124023437,0.32702636718,0.10119159404748447,0.3173099999641471,1.0458070328338,0.48436321736,1.73999603214,0.07773597160944197,0.27811381078866754,971.5966790146704,971.43707378816,971.7793994592,0.006973128493039718,0.34232567104004374,0.08329623551262398,-0.00021128361155930866,-0.589648337967466,0.45,0.55,0.056093689591756785,Stairs down
-0.3155346679664,-1.20727539062,0.64379882812,0.2440504027403692,0.4927779933465651,0.8351025390583001,0.32214355468,1.51953125,0.08949645132291272,0.2984107388588724,0.0196972656245,-0.7001953125,0.68225097656,0.13338752682893462,0.36430837101937413,1.0850588226611,0.5687419351,1.86492992932,0.08501851262215387,0.2908494800735307,971.7202339308913,971.57575496707,971.890093893,0.00678513279929668,0.3143389259299738,0.0821657296888441,0.0004433567043412568,-0.6994708565862635,0.59,0.41,0.4200066159103006,Stairs down
-0.54216125487975,-1.724609375,0.15002441406,0.22737404190036836,0.4756439547506796,0.8374670410123001,-0.07592773437,1.5634765625,0.18835842608055559,0.43291642836713046,0.1743170165983,-0.09887695312,0.52136230468,0.02185188712986694,0.14745381546171535,1.11519520743815,0.19234179529,2.04837567521,0.21850490049458846,0.4662750003936685,971.9097839706644,971.78984193187,972.04027665647,0.003813959591896035,0.2504347246000407,0.06160267684067434,0.0007884384593594687,-0.6698235624652886,0.47,0.53,0.3515348183653226,Stairs down
-0.8960900878871,-1.60339355468,-0.55114746093,0.03051816753863229,0.17425721420055795,0.5334985351521,0.25903320312,1.22082519531,0.0348029322899641,0.1860884672098577,0.19856445312159998,-0.23327636718,1.05627441406,0.04507080320088119,0.21176744127669103,1.0992070492943,0.87521081326,2.04837567521,0.02875354870392942,0.1691442607965454,972.0346488139505,971.977682938,972.1386237092,0.0011629452824067352,0.16094077119998929,0.03401662176046736,0.00025368721958874237,0.23406492861949113,0.45,0.55,0.33487864939040335,Stairs down
-0.7666625976528002,-1.67053222656,-0.14794921875,0.14698326902193773,0.38242430973570185,0.38424682616879996,-0.67846679687,0.91198730468,0.08568380117751068,0.29198524307167156,0.36080688476300005,-0.29638671875,1.05627441406,0.09939391734469119,0.31447885105038104,1.0801418514746,0.73806527425,1.85241845622,0.029440234624333535,0.1711520769701959,972.0452081215642,972.01051586017,972.13817868498,0.0006921937531053387,0.1276628248099314,0.02624371895025193,-0.00013543435626037036,1.5474399777745456,0.6,0.4,1.086102119698593,Stairs down
-0.35523803710845003,-1.1611328125,0.83947753906,0.4231821373122773,0.648896160125575,0.24064147949135,-0.72534179687,1.33166503906,0.24765469908919313,0.49640349071470796,-0.03130065918064998,-1.00146484375,0.76928710937,0.22108774722200752,0.4690227163857818,0.9961540400172001,0.31338896671,1.65050159058,0.08164794309579537,0.285025794236796,972.0598149799695,971.92140557307,972.48213569216,0.009402233991140489,0.5607301190899534,0.0967224008241358,0.00019526107067632036,11.802379000027006,0.68,0.32,3.1506093841719687,Stairs down
-0.5397497558562498,-1.47766113281,0.71740722656,0.21504152514453942,0.4625649332999819,0.47755615234035,-0.20886230468,1.14733886718,0.0828448219571759,0.28710729326749956,0.31707824706724996,-0.16687011718,1.1162109375,0.07317874015210238,0.2698385562727126,0.9547286317465,0.54201073142,1.84387617568,0.07802140089667957,0.27862392914499673,972.1851217273554,972.01391443804,972.44378313328,0.011039933940865108,0.42986869523997484,0.10480808304305915,0.0011785434808428993,-0.35673782219717776,0.51,0.49,0.5921268142336616,Stairs down
-0.21705078125114993,-1.27746582031,0.81335449218,0.32478528545920304,0.5684728305133915,0.7080377197219999,0.07385253906,1.46374511718,0.12151794689618224,0.34772166622415307,0.258766479489,-0.07214355468,0.84436035156,0.05987207600145023,0.2440752253331808,1.0160708321238,0.34935542425,1.61675578265,0.08706838293744129,0.29433491302044695,972.3727648617598,972.22557350924,972.50066139279,0.005988785726642627,0.27508788354998615,0.077193534690474,0.000977582503695768,-1.036544921524037,0.51,0.49,-0.1393741173460699,Stairs down
-0.70031249999685,-1.158203125,-0.10546875,0.09154468547782248,0.3018061663558804,0.64347839355105,-0.06506347656,1.50537109375,0.1548031465848774,0.39246545179410763,0.1845501708949,-0.07019042968,0.56176757812,0.016037424721193475,0.1263219600765738,1.0487083157401,0.30679662344,1.76127018684,0.09923189668240316,0.31422243267944944,972.5374332696089,972.44125036515,972.60887287913,0.0017896791970970073,0.16762251397994987,0.04219870615447258,0.0005864295116474746,-0.6912209270798484,0.49,0.51,-0.3095134036230466,Stairs down
-0.9132476806603,-1.08264160156,-0.72338867187,0.007414088767006413,0.0858895705145356,0.45404052733959993,0.28588867187,0.57360839843,0.004997596818732576,0.07051672733925556,0.1894421386677,-0.04052734375,0.45922851562,0.018052792906868103,0.13402435951099995,1.0502573339294,0.9279047679,1.20278503519,0.0033508936993948677,0.05774200577480742,972.6029707751527,972.53224648259,972.76811823382,0.0028123206927204397,0.23587175122997905,0.05289857360323469,0.0002500650233723736,2.2789850029209395,0.76,0.24,1.691332572251432,Null
-0.7841271972628502,-1.09143066406,-0.43957519531,0.01579188933763857,0.125351226124639,0.5449090576137501,0.33862304687,0.81616210937,0.015212527531107002,0.12303034135306407,0.31975280761415,0.05383300781,0.56164550781,0.014177113213976668,0.11876964110372139,1.02475443313635,0.75408733742,1.23767995224,0.008901683148343238,0.0941125641591043,972.5962291575561,972.45706078182,972.74882294156,0.004285077502838461,0.2917621597399602,0.06529664704503799,0.00021165179403624004,-0.033411607189308246,0.62,0.38,0.3995565853034534,Null
-0.5497235107396,-1.06298828125,0.35827636718,0.21183165806927715,0.45909966214203507,0.6734582519497,0.39050292968,1.21032714843,0.054857230052840156,0.2336299293810105,0.1986328124963,-0.03491210937,0.76477050781,0.04006226577948121,0.19965458785258056,1.04107129690155,0.78951923446,1.47168563102,0.016668243697769144,0.12878238419628787,972.6003606044923,972.52344671467,972.65721234585,0.0010472139029006043,0.13376563118004015,0.03227968143253743,0.00028819892423274224,-0.5549479118909679,0.49,0.51,-0.31917303486839743,Null
-0.6665466308557001,-1.11535644531,-0.22033691406,0.0766536931522759,0.2761710062380092,0.6775854492153499,0.31079101562,1.02551269531,0.055772383482515585,0.23557062967420833,0.22642333983994997,0.03845214843,0.4658203125,0.008696976924047778,0.09302414761462499,1.0438644988489,0.90334397568,1.24569295697,0.005465655530184193,0.07374501510294287,972.6255729985645,972.59647693972,972.71604623016,0.0008624924742188308,0.11956929044004028,0.029294709622178144,-0.00011363177289775481,1.8677635635462213,0.63,0.37,1.5406983277866129,Null
-0.11900695800864998,-0.94995117187,0.29284667968,0.14869978074200255,0.38465085706168983,0.80769348144205,0.24670410156,1.24658203125,0.09121908216624143,0.30126896082306626,0.3028826904264,-0.03918457031,1.0205078125,0.07748501008392226,0.2776645188595451,1.0292796797944999,0.82785001723,1.263561126,0.014743250821099629,0.12111785403892414,972.6452158416879,972.59659395327,972.74228304125,0.0012607519496878297,0.14568908797991753,0.035418190099712754,0.00014020755866233544,0.7198020772015661,0.59,0.41,1.169131597062697,Null
0.19467346191255,-0.47338867187,0.6591796875,0.0999354672139279,0.3153344096001232,0.8549041748009999,-0.46166992187,1.35583496093,0.10181516774880257,0.31828617926334557,-0.025570678712249998,-0.97619628906,0.42199707031,0.12130209368096882,0.34741269869215197,1.0372340412468501,0.69323078091,1.41811470457,0.015071128798405336,0.12245722989849685,972.6587263560156,972.27578185336,973.14947136441,0.04245245872480715,0.8736895110500882,0.20552419913767606,-0.00144769945753605,0.146176724145346,0.49,0.51,0.3812685567627524,Null
-0.1621044921844,-0.4990234375,0.08166503906,0.015054116871956883,0.1223880970012897,0.9527966308561,0.82507324218,1.09509277343,0.002654937402387444,0.0513971080448648,0.31001403808155,0.1298828125,0.47607421875,0.007787946057926497,0.08802844044760116,1.0265710568974,0.95073820093,1.16006425049,0.001738060740341116,0.0415856999056095,972.6905966292419,972.66985521049,972.71579003471,0.0001514858267254377,0.04593482422001216,0.012277149408222192,2.193873315545803e-05,-0.6969271223511075,0.55,0.45,0.3820800603057689,Lift up
-0.12499877929610001,-0.86071777343,0.79760742187,0.3648341546647667,0.6025030986571297,0.7168292236296,0.25170898437,1.05786132812,0.04000677797033012,0.19951627522705628,0.13078857421729997,-0.1455078125,0.58203125,0.03725672402512589,0.19253685466684103,0.9849982077345,0.69105015221,1.21283264144,0.016321789906278878,0.12743696856386488,972.6691088390653,972.54341457086,972.83936565654,0.004400316721446183,0.2959510856800307,0.0661688381176438,-0.0003094005348216896,0.024313268490962603,0.56,0.45,0.5907066467593752,Lift up
0.025502319335000002,-0.07849121093,0.27954101562,0.0037780908446913178,0.06131231842352612,0.90912536620715,0.63427734375,1.17651367187,0.023584824066190356,0.1531890986521541,0.3459149169894499,-0.07641601562,0.77893066406,0.07686003136223236,0.27654245823276613,1.0240613040202,0.96168740017,1.18807576676,0.0018258358984155419,0.04262284268937801,972.6423955039834,972.54128612266,972.76727031066,0.004119011200645441,0.225984187999984,0.06401887334717953,0.000810631972805786,-1.1529062657772462,0.58,0.41,0.3773840692887341,Lift up
0.17378356933245,-0.08764648437,0.330078125,0.010756198811088576,0.10345249062750077,1.00739135741845,0.87365722656,1.11486816406,0.002780808538352926,0.05260137351496785,0.0532244873033,-0.3916015625,0.26574707031,0.02811079580471209,0.16724306211525944,1.042179155444,0.8748351606,1.17728240796,0.0031890393129167553,0.05633022382657619,972.6284042860117,972.01097309509,973.52262119162,0.09159159630467689,1.5116480965300525,0.30188348468101645,-0.0017647470956336884,1.6786430842856497,0.49,0.51,0.6344996307927414,Lift up
-0.6724945068324999,-1.12036132812,0.11437988281,0.17621225012666214,0.4187256725781557,0.4886187744112,-0.21960449218,1.07153320312,0.15839948635793435,0.3969980968797516,0.14987121581845,-0.06323242187,0.47448730468,0.021408768753640707,0.14595110451748045,1.0297047891939999,0.75832924479,1.25502313207,0.00744422068532431,0.08606392729766454,972.4310137006039,972.23093750933,972.59229632977,0.013593326677300099,0.36135882043993206,0.11629858143551708,-0.0019085168782951767,-1.4641181540527735,0.4,0.6,-0.2578131625099328,Lift up
-0.39204711913699997,-1.09912109375,-0.04736328125,0.06903239347104996,0.26208248988380495,0.39135009765409995,-0.27014160156,0.76696777343,0.11550632877479788,0.33901149999804414,0.699219360348,-0.04931640625,0.97192382812,0.058141974871862824,0.240522899112545,1.015068284957,0.67481591619,1.20986813735,0.006901735628189326,0.0828687332475185,971.9625233024738,971.72787283426,972.23093750933,0.025163924953138038,0.5030646750700498,0.15823433675524523,-0.0026013471216792716,-1.2701022434517968,0.54,0.47,0.28404117407082335,Lift up
-0.22848144530874998,-0.28100585937,-0.1806640625,0.000388468653691854,0.0196602723893489,-0.24286926269165002,-0.26477050781,-0.22180175781,0.00011908053713973337,0.01088508770998354,0.9471044921830001,0.92346191406,0.96667480468,8.491322023138398e-05,0.009191771000749914,1.0043566474133998,0.98879722273,1.01823797083,5.366193143151731e-05,0.0073070939349620875,971.4651785460496,971.23771616643,971.72787283426,0.019417683682539995,0.4901566678299787,0.13899854410794127,-0.0023973952401624464,-1.1936043301484458,0.54,0.47,0.0850866404322744,Lift up
-0.23684509276935,-0.32739257812,-0.21240234375,0.0008246916588420406,0.02864556162039471,-0.2231951904254,-0.27160644531,-0.12768554687,0.000797511236981971,0.02816955237125825,0.9230578613246,0.88500976562,0.96862792968,0.0006081225868709677,0.024598414053280202,0.9795866448915,0.94153541058,1.02019162915,0.0005795832740826634,0.024014274040916793,971.0714599087266,971.00631104686,971.23771616643,0.004480427800536179,0.23140511957001308,0.06676844809888499,-0.001078435025007839,-0.5092403984925609,0.64,0.36,0.8695701184507172,Lift up
-0.24573608398000002,-0.31481933593,-0.13159179687,0.002740287228150706,0.05221671946809712,-0.25053710937144996,-0.5966796875,-0.11145019531,0.01335177559348191,0.11526064686402944,0.933649291989,0.79968261718,0.98779296875,0.0019522663932581878,0.044073859160412725,1.0062919103494,0.98365319748,1.04383903797,0.00018770382602544797,0.013666210407253385,971.016376740319,970.98919501295,971.05037293456,0.00021064480001655773,0.061177921610010344,0.014477277921504267,-5.5131816189179506e-05,-0.3239161680343292,0.55,0.46,0.17347535370325406,Lift up
-0.6823748779261,-1.04821777343,-0.00073242187,0.10083631002664423,0.3167524719343339,0.47576660155934997,-0.11145019531,1.15148925781,0.08996081126941682,0.2991839019951938,0.3766723632772,0.05834960937,1.23645019531,0.12242644471136052,0.3490190718109882,1.06374222705855,0.90660796823,1.56464744342,0.01405158290610681,0.11824265301309962,971.0221656702191,970.94968691024,971.10878035182,0.0007388747273415389,0.15909344158001204,0.02711420944274111,0.00014128906628181758,2.992641637985308,0.47,0.53,0.5964992297232116,Lift up
-0.8903204345666501,-1.13916015625,-0.56616210937,0.01546449232916957,0.12404503161160355,0.46481506347245,0.30151367187,0.81372070312,0.01803896369904059,0.13397301549396204,0.19819458007445,0.02844238281,0.57177734375,0.015021423117937346,0.12225512669147114,1.0449327359976999,0.93114630262,1.18675003085,0.004424565828646902,0.0663509080533467,971.0474496521576,971.00505233814,971.08146325727,0.0004204710303704107,0.07641091913001219,0.02045406256024848,6.0640243085787856e-05,-0.22370999929249757,0.45,0.56,-0.548730936804247,Null
-0.3898376464838,-1.05053710937,0.83447265625,0.40622965410795364,0.6357660779228582,0.6644537353477,0.3017578125,1.21484375,0.05345225817859338,0.2306187262294639,0.078300781249,-0.37072753906,0.5087890625,0.052971517415415906,0.22957931054069056,1.0464559804601001,0.7119077936,1.25984570152,0.014696696373898168,0.12092647721664879,971.042340890913,970.70225282646,971.53967008339,0.03460705115272439,0.837417256929939,0.18556404796447173,-0.0011801890172746107,0.5848953989432046,0.42,0.58,0.538771769074496,Null
-0.9033721923792499,-1.08679199218,0.20581054687,0.037254316788232815,0.19253063445667978,0.41477722167619996,0.07507324218,1.06518554687,0.040305344662723376,0.20025937665789775,0.1834106445279,-0.07531738281,0.36535644531,0.010094186618756862,0.10021834006639242,1.0480207318933,0.70966351771,1.44387492262,0.010682462776718284,0.10309728639898673,971.0591827422066,970.92261905568,971.29455974616,0.004781355825145705,0.3719406904799598,0.06897426364971196,0.00030816856417142826,3.963082706271261,0.76,0.24,1.8080137817452226,Lift down
0.8572686767541501,0.20581054687,1.16088867187,0.024557097772276486,0.15631478587585726,0.19893249511495,-0.61535644531,0.66674804687,0.12371503581728319,0.35085105192687793,-0.07182617187385,-0.63830566406,0.23876953125,0.05768567832718553,0.23957723167185485,0.9863748248305501,0.6996495928,1.1998539339,0.011693918110846854,0.10786773623420777,971.0237831124239,970.85450746688,971.21507596685,0.010346820851242097,0.3605684999699861,0.10146470690336559,-0.0012353489910551668,-1.1451899110381152,0.49,0.51,0.027595599201391787,Lift down
-0.7915454101531,-0.95935058593,0.59985351562,0.14960183816154138,0.38581579668377197,0.44571533202735,-0.25451660156,1.12756347656,0.04755312548809919,0.21752094120028695,0.07616882323925,-0.63830566406,0.23657226562,0.025503245195840612,0.1592976113124783,1.01931810505975,0.57475101688,1.31346221121,0.013611559467833146,0.11637655120553272,971.0260352048721,970.93313198405,971.14117773555,0.0013968764801969976,0.20804575149998072,0.03728125665526865,0.0003595520179675658,1.7428954935713197,0.27,0.73,-0.610082201391206,Lift down
-0.9191644287068502,-0.94165039062,-0.82666015625,0.00036490147696873387,0.019054578703920227,0.375283203121,0.3427734375,0.57458496093,0.0013261149516116666,0.03632470752605736,0.1540270996059,0.11767578125,0.24487304687,0.0004700676265685372,0.02162677249234602,1.0056930947277498,0.98123482491,1.0360876895,0.00015754252377665583,0.012520176163208429,971.0306707047697,971.00419128794,971.04803784387,7.285267640585623e-05,0.04384655593003117,0.008514012745105973,-7.690676622349127e-05,2.398920792654125,0.4,0.6,-1.1877239172503116,Lift down
-0.46340270995699995,-0.82666015625,-0.37316894531,0.010522764785911848,0.10232375560925376,0.6881524658172501,0.39050292968,0.90893554687,0.02758003053923428,0.1656566641778655,0.49288024901984995,0.24487304687,0.80969238281,0.03162439099160888,0.1773873418162943,1.00003421515945,0.9377620728,1.04481244093,0.0005396448005688545,0.023172107728172037,971.1915208964565,971.00740096458,971.39304573858,0.011882375196705808,0.38564477399995667,0.10873345079009623,0.0018248572357755849,-1.0649056468518703,0.47,0.54,-0.14846043489407737,Lift down
-0.33585876464555,-0.49072265625,0.15942382812,0.048060687476467134,0.21867872333422106,0.7730230712851,0.67883300781,1.15979003906,0.007843842892341666,0.08834378120660197,0.49380126952735004,0.22741699218,0.73022460937,0.010884484328302926,0.10406758336130138,1.0082279161031,0.77432017581,1.22592752871,0.00415780013260337,0.0643196014597444,971.6488676921086,971.39304573858,971.92118209922,0.02055259028831225,0.5281363606400191,0.14300289275700226,0.0024288750159234115,-1.1906613658946097,0.47,0.54,-0.05072497002304372,Lift down
-0.3180505371057,-0.36206054687,-0.18969726562,0.0008014608133570715,0.02823921934633261,0.9214575195270501,0.8369140625,1.15979003906,0.0028779564130925928,0.05351230354812928,0.3151977539024,0.05676269531,0.49133300781,0.013850339243888878,0.1173928769034537,1.0323866863052,0.98808761629,1.22592752871,0.0012156443625130323,0.034778817413771666,972.1229543794601,971.90852662826,972.3622123205,0.02050594265408096,0.45368569224001476,0.1428405157537964,0.002382688828617428,-1.3395497764666084,0.48,0.52,-0.040739030076858945,Lift down
-0.36733276366755,-0.42932128906,-0.30029296875,0.0013913315130122121,0.03720718822280382,0.7636346435512001,0.59814453125,0.90075683593,0.007157109669788523,0.08438793824617107,0.5984332275352501,0.33728027343,0.7451171875,0.010384103038434468,0.10164734390648039,1.0461470919301001,1.00414508546,1.09743175722,0.0006107532288407559,0.024651561060033342,972.5160438651781,972.3622123205,972.60683204584,0.004641521006837777,0.24461972533993048,0.06795817391457475,0.0009776988359772698,-0.6778868264399782,0.36,0.64,-0.7264479651563965,Lift down
-0.70099426269215,-0.96008300781,-0.318359375,0.07069268175671117,0.26521541875978405,0.5186779785122999,0.33068847656,0.74328613281,0.022721448733816887,0.15035904193013402,0.40854431151985,0.13635253906,0.69787597656,0.03664529867201569,0.19095044430075467,1.0274962940018002,0.95439890637,1.09507253252,0.0009937226384828138,0.03144445937347946,972.5931380382419,972.54359997057,972.63701586882,0.00038638960196952875,0.09341589824998664,0.01960759174298774,-5.703678283822684e-05,0.5570936639810995,0.4,0.6,-0.10084047027180454,Lift down
-0.9106610107388999,-1.0517578125,-0.80334472656,0.004044039267075738,0.06343357999309482,0.42469848632470003,0.29235839843,0.59545898437,0.004884469495619848,0.0697140383864093,0.1833111572228,0.06604003906,0.30090332031,0.002863093173915026,0.05337394221945247,1.0249550005098498,0.91134016451,1.18139739882,0.0044976401869658575,0.06689657678858485,972.5784601359238,972.53844825904,972.60917005701,0.0002848270679674123,0.07072179797000899,0.01683457551076282,4.780728664107599e-05,-0.08906447821104413,0.47,0.53,-0.5044383914634359,Lift down
-0.9380865478479001,-1.04931640625,-0.82629394531,0.0018448718375861024,0.042844456798962594,0.35842407226175,0.24035644531,0.45385742187,0.0031819639478465078,0.056267700575972315,0.1422259521452,0.00830078125,0.2724609375,0.0038849319312116125,0.062173203806427366,1.01778358717625,0.92326200531,1.12444668646,0.0016946601489558164,0.041063205527711026,972.5872085009652,972.52478439088,972.68738639612,0.0010070468343024545,0.1626020052400463,0.031654566813193674,0.0001462322561201752,2.3108318210193692,0.5,0.5,0.9815905609823706,Null
-0.9196557617148501,-1.01574707031,-0.75390625,0.002771581351471318,0.05251403093187536,0.39350158691059994,0.27795410156,0.57885742187,0.005865916022319565,0.07639755521093569,0.16394470214455,0.03247070312,0.4306640625,0.008316182667491958,0.09096483800982938,1.0216127395101997,0.96943433493,1.11430489175,0.0006677451575300255,0.025776082552288183,972.5838831013956,972.50745276554,972.70776026124,0.0010940274424302459,0.20030749569991713,0.03299329182149145,9.229625203469006e-05,5.817593159082101,0.48,0.52,1.727715096008178,Null
-0.8751501464803,-1.06323242187,-0.56811523437,0.013898322137421294,0.11759604809148218,0.462824707027,0.25268554687,0.75439453125,0.015805786105329938,0.12540636815889092,0.2503491210898,0.05651855468,0.53039550781,0.013100706758151162,0.1141718144918456,1.0399627839546002,0.87284194964,1.20671752753,0.0034786929896326643,0.05883280993361188,972.5878648226055,972.56069632237,972.62108750025,0.00020865821854323778,0.06039117788009207,0.01440884892871466,3.382286301408346e-05,-0.5231826027154995,0.46,0.54,0.08432002399449863,Null
-0.18596679687399997,-0.9287109375,0.32080078125,0.147741744361181,0.38340974901451724,0.7633154296836,0.41381835937,1.06115722656,0.03341912315090086,0.18235138479086566,0.46989746093420004,0.0615234375,0.98559570312,0.05263505928437742,0.2288490419205541,1.0317693458441999,0.86444411344,1.28437937645,0.006147419762985841,0.07820922365150361,972.5854187855974,972.35595990239,973.01480734742,0.020151617914321667,0.6588474450298918,0.1416010586992557,-0.0003156293761951652,1.996165574947975,0.69,0.3,1.342512937159368,Lift up
0.14544982909850002,0.03308105468,0.26440429687,0.005324514208355485,0.07278661715805804,0.65664489745745,0.36096191406,1.02209472656,0.03101971625332325,0.17568328797030364,0.7215570068322501,0.36608886718,1.01965332031,0.035479454164250294,0.1878884160703609,1.02156509209005,0.97282807238,1.12222936314,0.0008562985708353995,0.029189331578184905,972.5596989855526,972.50217874696,972.6246758908,0.0012730803703548856,0.1224971438399507,0.035590939415855706,8.393123579471888e-05,-1.3409867194061214,0.54,0.46,0.18810913866327833,Lift up
0.08812072753595,0.05737304687,0.12060546875,0.0003221219474796944,0.017902830439410856,0.51356262206685,0.47399902343,0.55053710937,0.00043466827942751713,0.020796512641074693,0.8652203369106499,0.822265625,0.91442871093,0.0004056848140024151,0.020091201804083372,1.0105086158236,0.97362663703,1.04349723028,0.0001477998218994746,0.012126863683161331,972.5547239505061,972.50034324884,972.62891996894,0.0009571488874085449,0.12857672009999987,0.03086038144565783,0.00014785488502303055,-0.12757736198116065,0.55,0.46,0.6841627265015897,Lift up
-0.4745184326160501,-1.03833007812,0.09509277343,0.21838663690273735,0.4661487999750977,0.42317626952799997,0.12524414062,0.919921875,0.019624755376587272,0.1397377243256249,0.5586187744102,0.03662109375,0.94775390625,0.08987139312191265,0.29903517544981745,1.01720918130595,0.80653242073,1.3468708182,0.007777505652555415,0.08796941584603503,972.5652607294128,972.45001018549,973.04501926595,0.007318041075842724,0.595009080460045,0.08533141783929006,0.0007295668678409572,12.619773797175924,0.64,0.36,2.6694443503668173,Lift up
-0.9061743164024,-1.03820800781,-0.87231445312,0.0007445146630782884,0.027217496023016097,0.29126708984000005,0.17639160156,0.32678222656,0.00039454705151959445,0.01981348824064043,0.43205322265199997,0.37719726562,0.46899414062,0.00017420544097822548,0.013165652804678329,1.0456828160934,1.01277748149,1.11860075173,0.0005151210892326024,0.022639467391845584,972.6329532007284,972.16220888347,975.72186006595,0.49566650912335264,3.559651182479911,0.702273576733267,-0.006192957106488145,12.422035779488906,0.73,0.27,3.543379427425726,Lift up
-0.7666381835902,-1.35620117187,0.04016113281,0.09573795882225775,0.30864100347838824,0.3677075195272,0.15441894531,1.01354980468,0.034259576779587644,0.18463011372928767,0.17758056640359995,-0.97424316406,0.48022460937,0.21313337273698402,0.46050809533959236,1.0368973414640001,0.79007890598,1.64940252576,0.020841144807300094,0.14400326066885982,971.8132840284093,971.01216546354,972.46328631022,0.15341863479167295,1.4511208466800554,0.39070646477594223,-0.00422188121063259,-0.786165711856325,0.52,0.48,-0.28839693597105986,Lift up
-0.7441748046840999,-1.04846191406,0.07788085937,0.08397201454733183,0.2890538954496119,0.4632189941374,0.099609375,1.16259765625,0.04434333725012885,0.2100514712252171,0.16212707519360003,-0.98657226562,0.45751953125,0.17347125737192914,0.41545625652416107,1.03773132885985,0.64805050297,1.52636811005,0.018558288831807414,0.13588781177003467,971.5527877395522,971.29727466133,972.1618463731,0.04234546335793928,0.8645717117700542,0.20526503852616887,-0.0018515248317491214,1.1161598423732348,0.49,0.51,1.0509324376048803,Lift up
-0.8410058593712,-0.84936523437,-0.83142089843,2.085038765222008e-05,0.004554792609324708,0.4426708984332,0.43237304687,0.45629882812,2.238005249797523e-05,0.004718914306859721,0.3740039062464,0.36303710937,0.38500976562,2.455852738295334e-05,0.004943251434636779,1.0213585703454,1.01206410526,1.0310481553,2.1530161696815136e-05,0.0046284458394077665,971.0685873033243,970.80642626603,971.29727466133,0.01820155638560837,0.49084839529996316,0.13457543833731447,-0.002322049233204056,-1.120838129613939,0.47,0.53,0.019518980844072574,Lift up
-0.8176757812457999,-0.84973144531,-0.78881835937,0.0003655424070051625,0.01907130553921615,0.42867675780899994,0.4033203125,0.447265625,0.00012472888333919842,0.011140253090594595,0.3701977539024,0.35583496093,0.38439941406,8.275916826392794e-05,0.00907443510212114,0.9947254839358,0.96150943359,1.03307118862,0.0004976882754172219,0.02225308594420414,970.6239987065909,970.48186341162,970.81691147341,0.009685741954699833,0.33504806178996205,0.09816981840120889,-0.0015756281927588368,-0.9771770808579481,0.54,0.47,0.3093517846441711,Lift up
-0.8387133789025999,-1.21838378906,-0.06579589843,0.060346459510059444,0.24504025631007886,0.41447021484019997,0.02612304687,1.07531738281,0.060904493649447916,0.24617061396763154,0.3691601562462,-0.01354980468,0.53491210937,0.015247672262921064,0.12317237475021117,1.037671314376,0.07207711867,1.66467659772,0.07091385680181014,0.2656299823397221,970.4385764011292,970.25192352563,970.61629955341,0.00826519114178636,0.36437602778005385,0.09068552908858958,0.0007787593677121373,-0.6738249881735223,0.4,0.6,-0.5455939400518881,Lift up
-0.9025878906214001,-1.21716308593,-0.73107910156,0.0076127573472839416,0.0870327154611846,0.43055419921500004,0.29772949218,0.64819335937,0.009316114474805397,0.09627841867433931,0.252885742184,0.00646972656,0.4248046875,0.009091853352816717,0.09511253380103293,1.0406458427038,0.91969029129,1.38850022984,0.0069747426850993045,0.08330587597326979,970.5181973987632,970.47160363277,970.62523929671,0.000979384088088829,0.15363566394000827,0.031216777022114003,9.892051474477765e-05,3.6300383433264596,0.65,0.35,1.689850520800439,Lift up
-0.939785156247,-1.14978027343,-0.82287597656,0.004549344005356423,0.06727999171618292,0.40411865234059996,0.26477050781,0.65930175781,0.006697549418566848,0.08163370426162232,0.139152832027,-0.16027832031,0.38366699218,0.010543597648997748,0.1024249952929106,1.0399711270064,0.90349819596,1.28337963405,0.006043346073237494,0.07754437015587466,970.5258917036407,970.46748362945,970.70321359103,0.0023576585440341176,0.2357299615799775,0.04843418473881796,-3.8048451603663e-05,5.952282855008823,0.72,0.28,2.4963335950572385,Null
-0.8838281249962,-1.40502929687,-0.1513671875,0.07407986545070841,0.2714948731071268,0.5854174804652,0.23181152343,1.10229492187,0.04684076465573901,0.21588552714913595,0.28844238280999995,-0.13415527343,0.78942871093,0.05357593078612053,0.2308853636162109,1.1576657822286,0.5705804326,1.44843143865,0.0407023154950842,0.20124314626244735,970.4968125562486,970.46517732125,970.55046032184,0.00038476747579664877,0.085283000589925,0.019566390531154835,2.646879868505972e-05,0.1550144430126399,0.56,0.44,0.5486818482211128,Null
-0.43826171874659997,-1.07873535156,0.14172363281,0.18567714532962895,0.42982410309681424,0.5440258789022,0.34521484375,0.89758300781,0.019611754974320057,0.13969143209033422,0.5691943359336,0.06591796875,1.02795410156,0.08476783603881033,0.29042037955111943,1.0423976051104,0.79932178455,1.25440290603,0.014103888055762258,0.11846251987647168,970.4778018093915,970.42222447886,970.53868218716,0.0007236414157331802,0.11645770830000401,0.026833248194255466,0.00012861746638100947,-0.532238725492669,0.46,0.54,-0.1832724143375451,Null
0.052556152342600006,-0.09851074218,0.20043945312,0.006415944727863703,0.07989909263705305,0.8381103515588001,0.56896972656,1.0869140625,0.01947940174651636,0.13921926855785363,0.5409277343716,0.24743652343,0.91284179687,0.019087918463570316,0.1378132028190785,1.0118940986032,0.74648266786,1.2474845909,0.01871618711235201,0.13646467006808116,970.4833978847815,970.42853840536,970.54075236175,0.0007209275911593721,0.1122139563900646,0.02678288545328108,-7.413974534469502e-05,-0.9692570951702275,0.52,0.48,0.16491397730452872,Null
0.3141235351534,-0.13452148437,1.16735839843,0.0909767296133162,0.3008684861617275,0.8010229492158001,0.32507324218,1.37585449218,0.05416025198305843,0.23214101473704113,0.49395996093399996,0.07006835937,0.89965820312,0.03300025070126125,0.18120499288859274,1.0509410168651998,0.42242759259,1.55393982165,0.057364149468041685,0.23890862002175953,970.5333184852099,970.4485295797,970.65045012337,0.0015765793602719675,0.2019205436699849,0.039606772949466705,0.0005047943644673531,1.5949184661971074,0.6,0.4,0.6576953428586483,Stairs down
0.1919799804666,-0.32971191406,1.36450195312,0.09671187835037431,0.31020689701975107,0.9059179687462,0.36474609375,1.56176757812,0.09879169154993923,0.3135246929544618,0.40620117187160004,-0.19714355468,1.19958496093,0.06375775984113916,0.2518709412416078,1.0778405881061999,0.41747149184,1.86525496626,0.11936458367092229,0.34462698784710355,970.7109836261236,970.5174568576,971.06038737164,0.018948364186908286,0.5429305140399947,0.13730849342256196,0.001729126005954165,0.7997148322255119,0.66,0.34,1.2120886874603982,Stairs down
-0.41809814453039995,-1.52734375,0.4501953125,0.3098475612016447,0.5552461826934395,0.6723120117147999,0.205078125,1.5546875,0.14806958783818072,0.38383491229822986,0.20286132812120003,-0.05346679687,0.71423339843,0.02370537187553004,0.15358009316364016,1.0345741005458,0.37162674222,1.63699277527,0.07721915255742144,0.27718776451105187,970.8006000657193,970.60294635864,971.02652826985,0.006232787820447372,0.42358191121002164,0.07875038972186192,0.0006900153616234904,0.5640480619147659,0.44,0.56,-0.1217660857378466,Stairs down
-0.889440917965,-1.39440917968,-0.33215332031,0.03926006049374079,0.1976455417945775,0.5102441406216,-0.08947753906,0.78674316406,0.02970529012318646,0.17192080639809287,0.1443432617172,-0.23986816406,0.62048339843,0.04720036181258723,0.21671262077581982,1.0694032395842,0.38658253361,1.58527891456,0.044473167664929744,0.21035874554342895,970.9237565648115,970.83130529377,971.01564626974,0.002336718531793333,0.18434097597003074,0.048218616105549596,-0.00022906301030873385,-0.686111240225256,0.6,0.4,0.3537713857157928,Stairs down
-0.4661352539034,-1.00256347656,0.05029296875,0.13400622114366562,0.3651522833530516,0.7967309570276,0.32946777343,1.21875,0.07312497522987496,0.2697394119399788,0.11243896484100001,-0.17114257812,0.27905273437,0.012626501333128627,0.11208643462285248,1.0369519185182001,0.86263341459,1.23052291145,0.008135117118460251,0.08996911432746213,970.9259525749235,970.87212138773,970.99249869969,0.0006895580479114016,0.12037731196005552,0.02619370645158574,-5.896948937205389e-05,0.9206358101674739,0.66,0.34,0.7570157333742268,Stairs down
-0.05575927734220001,-0.26806640625,0.30493164062,0.018470160499018496,0.13556478044286946,1.0295605468715998,0.61206054687,1.95104980468,0.06244629972540114,0.24926706205749313,0.04108398437460001,-0.255859375,0.55126953125,0.03451321721580564,0.18531230701096624,1.0545315998654,0.65905915465,2.03426539642,0.06794728079721742,0.26001450804374615,970.9059287951201,970.83387614704,971.04400247106,0.002564179142280513,0.21012632402005238,0.050510971546478,1.9794325266052374e-05,0.5169890767208862,0.56,0.44,0.9189971199176389,Stairs down
