avg_accX,min_accX,max_accX,var_accX,avg_accY,min_accY,max_accY,var_accY,avg_accZ,min_accZ,max_accZ,var_accZ,avg_magnitude,min_magnitude,max_magnitude,var_magnitude,avg_pressure,min_pressure,max_pressure,var_pressure,slope_pressure,Label
-0.8920593261683696,-0.90454101562,-0.88464355468,1.941494398891491e-05,0.4711277173871738,0.45629882812,0.48327636718,6.953683469861523e-05,0.14311284603804347,0.1318359375,0.154296875,3.670854962029751e-05,1.0189744804919565,1.01193451513,1.0330540526,2.806177626527352e-05,974.0914694368741,974.06921731588,974.10463822084,0.00011690046476134547,0.00031231648899157313,Null
-0.8891198730432999,-0.91003417968,-0.87329101562,0.0001116645020112236,0.48391723632399986,0.45983886718,0.50219726562,0.00016680039991034075,0.1305688476537,0.0888671875,0.16796875,0.0006335879757179382,1.0210970165373001,1.01024296912,1.02898836669,2.2302421967207996e-05,974.0965192566684,974.07299684349,974.1250124775,0.00015800136981227396,-8.067175279107424e-05,Null
-0.8878942871054,-0.89672851562,-0.87780761718,2.1799843419214402e-05,0.4831323242137999,0.47192382812,0.49597167968,2.9039617744842595e-05,0.13295166015239998,0.12170410156,0.17749023437,8.940546801072901e-05,1.0195964916530003,1.0132261998,1.0249334933,1.1200409719060011e-05,974.104914594082,974.09646435496,974.12073636176,4.2485737375724476e-05,3.4436177480655163e-06,Null
-0.8486791992150999,-0.98742675781,-0.73669433593,0.005843563748243379,0.5123852539026998,0.23693847656,0.65954589843,0.016675143356563157,0.17651367187190004,-0.14221191406,0.31469726562,0.014919287628162104,1.0246534268286,0.95755950984,1.08696063302,0.0011121996271934594,974.1069638866074,973.95043189202,974.15912583967,0.002054529730244237,2.12823476415915e-05,Null
-0.80216918945,-0.99829101562,-0.66247558593,0.007219774149613051,0.5820385742148999,0.33483886718,0.77404785156,0.013981618610380714,0.1825585937463,-0.10571289062,0.37841796875,0.02088693852330861,1.0259759612001995,0.89247476325,1.13779999083,0.004659318727787006,974.1003471739745,973.94846696971,974.2494556446,0.006329320494428443,-0.0002876273902899568,Null
-0.8124926757783999,-1.04833984375,-0.46728515625,0.029613016777321352,0.5881225585897999,0.20715332031,0.94116210937,0.03428850195036581,-0.023858642578099998,-0.65295410156,0.30029296875,0.05426939580520738,1.0399928326261998,0.6527302562,1.33663584208,0.04243014183274064,974.1916099812992,973.94846696971,974.57428611485,0.02801464880868684,-0.0016200176106963857,Null
-0.9509704589803999,-1.50439453125,-0.61059570312,0.05397054805142141,0.42237792968369986,0.07360839843,0.72485351562,0.032745038403493305,-0.0143176269535,-0.65295410156,0.35046386718,0.04437508886820771,1.0784169613566004,0.73262848038,1.51392509065,0.05025207051152044,973.9086000048663,973.51835001375,974.4120063193,0.061611938945587016,-0.0035635863427756188,Null
-1.0977746581998,-1.56457519531,-0.71069335937,0.06413979285129785,0.3191027831994,0.01037597656,0.53588867187,0.024429579002237117,-0.0038317871101,-0.18029785156,0.19299316406,0.011988780984019039,1.1611305261999,0.72446800148,1.6122637766,0.05886761763561622,973.9995019712802,973.94030113298,974.0723390731,0.0012848811819334194,0.0008191828514672398,Null
-1.0914013671839,-1.35693359375,-0.77368164062,0.025170763069090243,0.28585693359100006,-0.02673339843,0.45263671875,0.0200613251297179,0.08182373046530002,-0.06359863281,0.19482421875,0.004942674678823111,1.1430738664869002,0.88934945066,1.41617885306,0.022849903679747884,974.0091387381627,973.96615564051,974.06431301134,0.0005101156019141887,7.221567829102937e-05,Stairs Up
-1.0827905273409,-1.5517578125,-0.69958496093,0.056338012694138045,0.21558715819969998,-0.00537109375,0.419921875,0.012567555993228412,0.08340087890609998,-0.18688964843,0.423828125,0.025243872216337088,1.1248588571579998,0.73881937024,1.62033959276,0.05431247823011798,973.966185320251,973.90913491175,974.02083287963,0.0008397874189616707,-0.0006842629049761459,Stairs Up
-1.1090686035108999,-1.55944824218,-0.78955078125,0.04491456123741747,0.2468872070282,0.06298828125,0.48596191406,0.013383128877680275,0.08738403319929999,-0.14465332031,0.19226074218,0.0064061661482971936,1.1494951830351003,0.85588295371,1.58183661782,0.0417576479062159,973.8771249846567,973.80579326708,973.96474213051,0.0026182562254179705,-0.0011972196002375732,Stairs Up
-1.1441174316377,-1.45947265625,-0.85534667968,0.03573436745977534,0.2844226074182,0.06079101562,0.52819824218,0.018467103139165032,0.0990893554661,-0.05029296875,0.21276855468,0.007115329943191608,1.1945310618945002,0.92143033505,1.52395403981,0.03385736571774404,973.8309822952699,973.78085498728,973.88248812892,0.0007082693612820747,-4.5423991516013996e-05,Stairs Up
-1.1880688476523,-1.63037109375,-0.85668945312,0.04345676821336231,0.2614636230431,0.03503417968,0.59094238281,0.027331877566069005,0.09323852538800001,-0.17834472656,0.21887207031,0.010775124091670236,1.2362558319467,0.86457730869,1.65612341289,0.04139786434797879,973.75086469011,973.68533093794,973.87308983252,0.0036672044594872402,-0.0007106172269410146,Stairs Up
-1.0842724609336,-1.51171875,-0.67663574218,0.07095092580804223,0.18550292968379994,0.01220703125,0.41918945312,0.009003566828545875,0.06497314453019999,-0.10485839843,0.35595703125,0.019160055336734413,1.1164862567590998,0.68805522606,1.52371503796,0.0665267241723543,973.645370627079,973.5784774351,973.74146612025,0.0021036899233862114,-0.00018642169304482157,Stairs Up
-1.0088642775369696,-1.37609863281,-0.59814453125,0.06695024416977916,0.26735001380505047,0.11694335937,0.41870117187,0.006742722114169232,0.07024838225959595,-0.23889160156,0.47814941406,0.03493654190872879,1.067519611860606,0.69213785376,1.43146003739,0.06278631955796343,973.5907104579082,973.52909589602,973.65733207038,0.0011006512665562155,-0.0004807711913882714,Stairs Up
-1.1242762093545453,-1.57409667968,-0.80407714843,0.05052065400813247,0.276247583250707,-0.01135253906,0.58862304687,0.024026588815600228,0.04041390466969697,-0.10107421875,0.12902832031,0.0031327414426470155,1.1704998849933332,0.82607406686,1.58526509222,0.049265999413121125,973.5189074953068,973.4691531524,973.57997167269,0.0011370028263246728,-0.0008475879143185031,Stairs Up
-1.1187467280084535,-1.70373535156,-0.53881835937,0.10309189387427752,0.24014124919164948,-0.04187011718,0.47045898437,0.021707792695601816,0.021160951593814436,-0.11682128906,0.23474121093,0.008787591953985813,1.157851485821031,0.55195695102,1.72253456464,0.10235508075081279,973.4547440099034,973.36861966661,973.60156546124,0.003371906012891203,-0.0008741532253513628,Stairs Up
-1.1761487193891753,-1.66687011718,-0.78466796875,0.09033574582851751,0.2890184540086598,-0.02966308593,0.48974609375,0.024059025317808475,0.08124974830762886,-0.11999511718,0.38720703125,0.020387573682542147,1.2381615422573196,0.78619980615,1.67988856243,0.08033950547303653,973.4309697489324,973.37426343553,973.5650410881,0.002951940467844588,-0.00013938511928591682,Stairs Up
-1.1378517150841667,-1.66040039062,-0.72290039062,0.08425552835664245,0.22628784179489583,-0.09313964843,0.50183105468,0.02958237152302648,0.03712717691864583,-0.12646484375,0.28601074218,0.013183123807267797,1.1792031410054167,0.73271763234,1.6865793295,0.08333707492566662,973.4289633035675,973.37669768938,973.51495375297,0.0016785081522994628,7.476292001580929e-05,Stairs Up
-1.131739298499271,-1.587890625,-0.75207519531,0.07083246673928986,0.26205444335510414,0.01086425781,0.50903320312,0.02670832464546726,0.06654739379666667,-0.13330078125,0.23425292968,0.012052339417872447,1.1794917048101041,0.75584736895,1.63505746658,0.07193510465287366,973.422939612558,973.37013954045,973.5811869222,0.003091505631224358,-0.00033162703564248725,Stairs Up
-1.2385487657871275,-1.6005859375,-0.84326171875,0.041330410356294305,0.27415823428829783,0.01147460937,0.50903320312,0.020921767421094122,0.08758415059585106,-0.11889648437,0.22924804687,0.010296657118646023,1.2853847189457448,0.94735638685,1.61633446443,0.036791326266447065,973.4162682703482,973.35483385081,973.5156143456,0.002000927393349202,-0.0007393052036954007,Stairs Up
-1.1572694169673403,-1.59155273437,-0.82275390625,0.0467268551250338,0.2196031935636171,0.08215332031,0.41284179687,0.010039424542039252,0.10004311419329787,-0.14343261718,0.37866210937,0.02220984672155586,1.196453190918617,0.84257199917,1.59582829072,0.044617057083913406,973.3608971526406,973.28859149635,973.50175716486,0.00360216238762715,-0.0007846206929983355,Stairs Up
-1.1212430913360636,-1.43127441406,-0.8037109375,0.028936350266756297,0.21477362449819146,0.0283203125,0.43908691406,0.015786851762839716,0.062015614608510634,-0.07958984375,0.22680664062,0.005639269932324877,1.1517652336928725,0.84379890088,1.48595243259,0.03075039540932782,973.2719521977839,973.22862127944,973.36388635958,0.000678316063267923,-0.0005041162938317461,Stairs Up
-1.1002827305917204,-1.359375,-0.83752441406,0.02852603003146408,0.21902039230150538,-0.15759277343,0.39038085937,0.021530040206938012,0.07194535450107525,-0.06689453125,0.16882324218,0.005869275497698491,1.1367256495520426,0.90249708449,1.39434559438,0.027239850717148947,973.2237031475232,973.16940385079,973.27597272219,0.0010165614023055372,-0.000871953920330053,Stairs Up
-1.1058651503660215,-1.44445800781,-0.86096191406,0.03243512843518122,0.2404890162934408,0.05126953125,0.42163085937,0.013798770585673055,0.07115517892827955,-0.02514648437,0.14428710937,0.003184477940746169,1.1421401188526883,0.92516928779,1.45785489976,0.030567384261398822,973.1756204703503,973.12957942349,973.26937960981,0.0015475880444824743,-0.0007792516565698649,Stairs Up
-1.1323454483661954,-1.42895507812,-0.87365722656,0.030251154732345156,0.21856424082597825,-0.00708007812,0.42541503906,0.015908998931530895,0.14211770762184783,-0.041015625,0.37023925781,0.01166563836531427,1.1745337997977177,0.88708933677,1.46502208387,0.028147540087214373,973.0935347259691,973.02435538307,973.14155308707,0.0009792660318172063,-0.0007825110387318679,Stairs Up
-1.0784818209102198,-1.48779296875,-0.7392578125,0.03313918121332362,0.22989461709791212,0.03259277343,0.34313964843,0.008035246032839333,0.02671998411692308,-0.16418457031,0.22473144531,0.01457694618193131,1.1125844344385716,0.75626944721,1.53045478432,0.03436071807963939,973.0607417258277,972.99382939981,973.13515964615,0.0025302837307226776,-0.0009581167353606752,Stairs Up
-1.0945803464076924,-1.61669921875,-0.59484863281,0.10537342502670087,0.2374723664978022,0.015625,0.486328125,0.024240229079379953,0.01407296317010989,-0.19775390625,0.24658203125,0.01358094820835677,1.1389733258738461,0.62735086819,1.62262865042,0.10015875171184173,973.0090211852416,972.9432928906,973.10140962793,0.0019653464404005747,0.00022442893391447553,Stairs Up
-1.1095486111066666,-1.48498535156,-0.80480957031,0.05070915917962128,0.2771253797702222,0.02453613281,0.49536132812,0.02138598899324127,0.069687228731,-0.07556152343,0.26782226562,0.01126704853093188,1.1585915122813335,0.80565611864,1.54325475818,0.05344843562207651,972.977294671031,972.93504305646,973.03732392021,0.0006353285900929027,-1.7461754165729914e-05,Stairs Up
-1.1129959769834783,-1.53405761718,-0.57873535156,0.06992216564702369,0.5069235096772825,0.103515625,1.49084472656,0.16113241895434802,-0.0020539656933695654,-0.27111816406,0.38854980468,0.0251701381199929,1.2887710587664127,0.70375360364,1.83629057309,0.08355930733138478,973.0280320742071,972.9535728456,973.11687109525,0.003046959601736177,0.0005863530098932746,Stairs Up
0.7480495578608791,-0.341796875,1.10266113281,0.11631324058642095,0.4574363624623076,0.224609375,0.65710449218,0.012794321735282634,0.16649854051791207,-0.02416992187,0.34802246093,0.010562671194998617,0.953442106337143,0.56343690676,1.23911253285,0.02591627054313249,972.9490876867371,972.83894616513,973.09695544327,0.0044975179628590125,-0.001029440072020021,Stairs Up
-0.019114064647142857,-1.50512695312,1.05285644531,0.945415464056822,0.4190955528808792,-0.22509765625,0.75830078125,0.06760804556292391,0.20297610104428573,-0.04260253906,0.45458984375,0.015198716786859573,1.0687074849592306,0.32172651569,1.67876657479,0.0930152659431282,972.9649050990954,972.85458472664,973.08945026277,0.004566933828531025,-0.0002798806968181337,Stairs Up
-1.020583767356889,-1.32434082031,-0.65258789062,0.04272028622279586,0.2753038194422222,-0.14733886718,0.46362304687,0.02365410737863849,0.08877360025977778,-0.14184570312,0.37182617187,0.024749004454657098,1.0818925716776666,0.6551991746,1.38584893039,0.043150131080609666,972.9446711998057,972.87448509851,972.98680279836,0.0007709389513085098,0.00015128725753242253,Stairs Up
-1.0848890516444443,-1.32312011718,-0.88952636718,0.011932516665361692,0.2254055447004444,0.04443359375,0.40209960937,0.012308829697343699,0.10282796223611111,-0.01220703125,0.26892089843,0.006512332313918402,1.12096522817,0.92205166336,1.37057318953,0.012351672960759496,972.8818697816173,972.81518074234,972.93483877595,0.0007478180910482383,-0.0002788836089023125,Stairs Up
-1.1383372103189888,-1.35461425781,-0.88977050781,0.0206972965217976,0.2183248112679775,0.03332519531,0.46313476562,0.016600277651565035,0.1032728559483146,-0.00756835937,0.22265625,0.0047330708985217395,1.1718253683014606,0.90921472795,1.42432654909,0.0227822879875743,972.813200715293,972.73626501137,972.89713677266,0.0015553170150219909,-0.0009628570166085171,Stairs Up
-1.0687200996285393,-1.28479003906,-0.71069335937,0.026948134299711834,0.1882420229069663,0.03869628906,0.35900878906,0.007996870788796415,0.06998880793325843,-0.07458496093,0.19226074218,0.0050624236803126525,1.0935581868102247,0.71984200865,1.29799585853,0.026482094551955073,972.7634918423223,972.69301065514,972.83175518675,0.001548749555056769,-0.0007592414147805764,Stairs Up
-1.028128884051477,-1.31030273437,-0.76806640625,0.028583919794872827,0.2450284090871591,0.13745117187,0.42749023437,0.005362933986216526,0.11350180885761363,-0.0576171875,0.31640625,0.010501220944828337,1.0697512316823863,0.81290807013,1.37033838402,0.029885477070638072,972.686262809524,972.60821752274,972.78779001562,0.002494870422281045,-0.0005436869637009403,Stairs Up
-1.0165412288932183,-1.46960449218,-0.70666503906,0.04915166832411049,0.26985817393609185,0.08325195312,0.42199707031,0.008948057714708975,0.05021158854080459,-0.11206054687,0.21240234375,0.010513643769825243,1.0640172423362069,0.779293567,1.53290791676,0.04490892059069737,972.652727623319,972.57477803227,972.826812395,0.0037478341231591025,0.0008949570490326332,Stairs Up
-1.112955729163563,-1.60205078125,-0.68603515625,0.07443731249313038,0.32064082704494257,-0.01245117187,0.59619140625,0.031894200870159595,0.04443359375022987,-0.10192871093,0.32775878906,0.012960317175637975,1.1756789625433337,0.68640970343,1.66055063387,0.0800753831070677,972.5527844626959,972.4892978035,972.826812395,0.0029188022235340887,-0.0001937553057380918,Stairs Up
-1.140692349133678,-1.57751464843,-0.75268554687,0.06977373907665083,0.303326486168161,0.08044433593,0.50793457031,0.01361365288114627,0.06303037445988505,-0.15686035156,0.25109863281,0.01705104522428966,1.1972391956509194,0.75865725006,1.61289264903,0.0637943700961799,972.5611911241054,972.47509227654,972.71803503151,0.004715457310418488,0.00014105248078310584,Stairs Up
-1.10188187,-1.53063964843,-0.74206542968,0.06777956666968377,0.24761962890418607,-0.00769042968,0.49645996093,0.0189003343962217,0.028668070948953486,-0.10180664062,0.22705078125,0.009145292645419644,1.14245764336186,0.75448417254,1.5535787194,0.06655638620566942,972.5603036483229,972.49693281843,972.70738430719,0.002769985835057024,0.0009855478161926218,Stairs Up
-1.115683880969529,-1.50561523437,-0.78527832031,0.05556974532072496,0.26816549861717653,0.00134277343,0.42260742187,0.01776988325199277,0.06584616268282352,-0.09106445312,0.27954101562,0.013311185046451925,1.1604048090924703,0.78860481132,1.51612547348,0.054164183318404946,972.5386972457277,972.4670015176,972.67319323644,0.0017850937551760146,-0.0003628750183852298,Stairs Up
-1.1362673737244187,-1.65051269531,-0.73095703125,0.05252060717375668,0.23263762717674422,-0.05029296875,0.49609375,0.015937957929938122,0.12853152252558142,-0.04162597656,0.27038574218,0.0073738693455043915,1.177036090550465,0.73386666783,1.68216943345,0.05188417025310219,972.5330520270801,972.48707544654,972.57427781254,0.000662121048200451,-0.00017019874308261376,Stairs Up
-1.0314549037359524,-1.3779296875,-0.77075195312,0.027704858335102063,0.3008364722802381,0.00769042968,0.53796386718,0.02385689709742673,0.17292277017892857,-0.02282714843,0.36499023437,0.009662128431183751,1.104022879478214,0.82565750631,1.37899876141,0.026245036544089797,972.5093530316971,972.44772994021,972.64200286147,0.0017156224459296285,0.0001669703874126103,Stairs Up
-1.0736665271545238,-1.32421875,-0.76098632812,0.01941826310360183,0.2521711076979762,0.06433105468,0.44018554687,0.015999185418306555,0.09220813569166667,-0.03662109375,0.17810058593,0.0034831079300493466,1.114472090045,0.81782814937,1.38124707618,0.02149776019201751,972.4366411277044,972.39297208646,972.57310118221,0.0011539692990669905,-0.0009109514906833583,Stairs Up
-1.1202363163550602,-1.33056640625,-0.845703125,0.016402109358347235,0.2502161968146988,0.05358886718,0.53186035156,0.01794786472346798,0.09344408885277107,-0.11071777343,0.28332519531,0.008354882413415698,1.1615959249038554,0.86810244158,1.43961051794,0.01938818739057581,972.3745316397293,972.31833230832,972.43523542696,0.0008134411976415325,-0.0006571431672640845,Stairs Up
-1.160505883484074,-1.34191894531,-0.95104980468,0.01670927247152735,0.2304054542791358,-0.01513671875,0.48486328125,0.02139993090609091,0.10953022521061728,-0.05456542968,0.33544921875,0.008923034001637202,1.20029897013,0.97490981828,1.38843121166,0.017811316774264924,972.2946223330493,972.21403976369,972.44516944767,0.003347732821502082,-0.0018171385429373082,Stairs Up
-1.1114381389814816,-1.48046875,-0.80187988281,0.037250830086374025,0.21704252266197532,-0.02368164062,0.41491699218,0.014248887633082508,0.09317581741790124,-0.23803710937,0.34753417968,0.025370599121313935,1.1533817307835803,0.8478941957,1.55827709317,0.037174757680332675,972.2274265702446,972.15746687728,972.34176847431,0.0013277647840203067,0.0002250044303884254,Stairs Up
-1.0676315307580002,-1.44885253906,-0.62121582031,0.057220702474605464,0.24764862060175002,0.05590820312,0.36730957031,0.008606557885149302,0.04196014404125,-0.18505859375,0.26696777343,0.013911955621436592,1.1079094816865,0.69632948748,1.48282766505,0.05489279454502527,972.1079317513183,972.01147517912,972.21400672763,0.003532786355033062,-0.0020981326779087105,Stairs Up
-1.09830729166321,-1.455078125,-0.75207519531,0.053130586817956904,0.26298918546987654,0.00769042968,0.50561523437,0.019550991347846887,0.07517270688555555,-0.09558105468,0.2421875,0.008985394280145095,1.1466076558965432,0.77457957284,1.49361081173,0.047630810812857347,972.0696835372145,971.99641833558,972.20428197507,0.0029533922073424783,0.0009412132294048161,Stairs Up
-1.1026132317998734,-1.54223632812,-0.72985839843,0.05981661166049646,0.2280227081649367,-0.05346679687,0.41455078125,0.018457288712768933,0.048826579805316454,-0.08337402343,0.21130371093,0.006754495964792353,1.1374740639992402,0.73416018895,1.56009095446,0.061011467585547555,972.0508653351789,972.01383961833,972.12583346718,0.0008002891758765884,-1.396103075176492e-05,Stairs Up
-1.188104248043875,-1.65368652343,-0.71105957031,0.07452964816671151,0.274102783199875,-0.01171875,0.48388671875,0.01951535438426358,0.07113189697112501,-0.12121582031,0.33288574218,0.02352947532019146,1.23947384526325,0.7140731097,1.66087251358,0.07249941321455534,972.0579935775288,971.96339216984,972.23208137001,0.00495534759809509,-0.0005628423006076914,Stairs Up
-1.1093410057322783,-1.55615234375,-0.72729492187,0.07115208909211145,0.24665620054999993,-0.033203125,0.49523925781,0.021056949487649714,0.016626285600886075,-0.17687988281,0.24560546875,0.013547254440928733,1.151335616075316,0.73309986523,1.56940571618,0.07150217741825157,972.0572787090158,971.99132001581,972.18149025666,0.0037800163621143287,0.0008354193615972009,Stairs Up
-1.209189390521795,-1.51086425781,-0.84216308593,0.03273812110315896,0.2314171424239744,-0.02502441406,0.46545410156,0.020588483486261036,0.13938708182615386,0.00756835937,0.26489257812,0.004402357929726305,1.2475441950316668,0.84323101506,1.5652094952,0.03620817091375014,972.022770063903,971.98072995389,972.06908763389,0.0004928490896570743,0.00017167741452960283,Stairs Up
-1.1342588014202528,-1.41381835937,-0.85852050781,0.02450656091873075,0.2610512262620253,0.10327148437,0.48681640625,0.009696499596729143,0.13006823575772153,-0.14721679687,0.484375,0.029430832946044518,1.1866120707393675,0.92001778007,1.47499748831,0.026727028819289067,972.02064043975,971.9259222636,972.12642874968,0.0032500205758398326,-0.0011786105223575457,Stairs Up
-1.1223676632573074,-1.43310546875,-0.86010742187,0.02376744677086884,0.28759452623782045,0.05200195312,0.55529785156,0.02243863877337328,0.11246588290974359,-0.06872558593,0.27905273437,0.009536582344819848,1.1746464214805126,0.87577319894,1.53024804167,0.03069569522493049,971.9393202323093,971.87789305301,972.0758889512,0.003257363485500215,-0.0008329606581687114,Stairs Up
-1.1857434557590907,-1.32922363281,-1.08288574218,0.0052272011402852035,0.2758915888746753,0.04821777343,0.54895019531,0.02697946781552964,0.12634118810597403,-0.05187988281,0.2314453125,0.005252870091033201,1.2351352954861035,1.09118136148,1.42857589135,0.009604393249894634,971.8626076978726,971.81560427808,971.94562937777,0.0014043898219219262,-0.001289010544949292,Stairs Up
-1.1425226384905192,-1.3603515625,-0.78686523437,0.019035319962996494,0.2539014940094805,0.02502441406,0.55944824218,0.026715044693639032,0.13554085074753247,-0.08508300781,0.27905273437,0.007521508071750349,1.1908540313209088,0.8119410371,1.42765253148,0.02293989740148814,971.7844304029813,971.72803157389,971.82232438394,0.0007666112139623543,-0.0008665051051236196,Stairs Up
-1.121704101558701,-1.46691894531,-0.91394042968,0.025498390982123424,0.1899445769048052,-0.00708007812,0.3798828125,0.011545668689010106,0.13494952313207792,-0.23645019531,0.55261230468,0.04859378605323426,1.1700986688672723,0.96985086833,1.58034978919,0.028272351968931853,971.7352271832117,971.63304210592,971.83789711552,0.002854949841381209,0.0004722005450902134,Stairs Up
-1.1776931564496105,-1.67102050781,-0.57678222656,0.09577812670457929,0.17698768516272734,-0.04418945312,0.45642089843,0.02140632153071508,0.10542436079337665,-0.13806152343,0.28063964843,0.0125877703912733,1.2087726076035064,0.59159644985,1.68581078895,0.09762359442831327,971.6416477366453,971.48394138298,971.78304591387,0.008502998065608442,-0.001787011700302484,Stairs Up
-1.2144261410326316,-1.67431640625,-0.75109863281,0.0851755182994671,0.2364855314528948,-0.10192871093,0.46508789062,0.03097950053759277,0.08994172748500001,-0.09094238281,0.32019042968,0.010197703845690192,1.259217937145,0.75809578663,1.68299448805,0.07894489520258041,971.5747842142168,971.52407297338,971.69055860841,0.0018109774224470514,-0.00041964225406450063,Null
-1.1489595112009208,-1.71667480468,-0.67053222656,0.08850616041726998,0.2131444027518421,0.04357910156,0.44982910156,0.011346309091009582,0.03538754111763158,-0.27233886718,0.38732910156,0.04361541810667375,1.193027992397895,0.69418424513,1.7241810648,0.08618920293859644,971.5907697053111,971.46913630159,972.01554586037,0.01370450827683781,4.69880367429075e-05,Null
-0.9040380859332,-1.15661621093,-0.60302734375,0.02631831610515306,0.36380859374720004,-0.21325683593,0.62658691406,0.04883392322605744,-0.1062207031256,-0.56274414062,0.19421386718,0.05484637377897889,1.0403297729847998,0.78823489987,1.20624881062,0.006996945798267291,971.822045586313,971.52834687886,972.92706059024,0.0552033174001464,0.006433027637165472,Null
-0.9103730854197368,-0.98168945312,-0.853515625,0.0010854981734589337,0.4050052040467105,0.28552246093,0.5166015625,0.008097885855100802,0.10777202405144735,-0.04650878906,0.26892089843,0.010160518225458841,1.0114241092702636,0.96168435544,1.05267308327,0.0005409452424050104,971.6855291468622,970.96820726958,972.92706059024,0.2820913994100933,-0.019142356106812114,Null
-0.8907145182254665,-0.92175292968,-0.81311035156,0.00036546118086947107,0.48814941405879986,0.47143554687,0.52331542968,0.00017044462060665746,-0.039430338538,-0.07958984375,0.00207519531,0.00023614373293226197,1.0166688166872,0.94414581467,1.05994896517,0.00036813621711828475,971.638900152912,971.50300129706,971.88273167508,0.010978652133833783,-0.0004132276511416167,Null
-0.9296190869640659,-1.07775878906,-0.84008789062,0.002667781448734549,0.3513036036189011,0.19995117187,0.50244140625,0.012514439170457184,-0.11398818466395606,-0.27893066406,0.05395507812,0.008108765057603369,1.0105805138504396,0.89162580409,1.13393187629,0.002387476820465061,971.4625250139184,971.1692594438,972.04740293013,0.10111400181882058,-0.009753642510345384,Null
-0.755491918442653,-0.93542480468,-0.64587402343,0.00828900149653526,0.6402712452140815,0.45239257812,0.74475097656,0.008729850966401673,-0.2052824059266326,-0.27856445312,-0.10314941406,0.002855492552430815,1.0208536208467347,0.98824882454,1.0651381362,0.0003895781340202212,971.7563517582365,971.36765530315,972.49169949461,0.10715978119697528,0.007586167243554,Null
-0.9344662752982955,-1.03210449218,-0.86779785156,0.0017404678017527591,0.378999189892159,0.23120117187,0.45300292968,0.005674280309931933,-0.051607998931136365,-0.10437011718,0.00305175781,0.001305610875680033,1.0133895198498863,0.9148802482,1.07681342523,0.001256432493180532,971.4922988596701,970.72866221902,971.98752557384,0.1631556680048786,-0.008021859506444283,Null
-0.8826889226417284,-1.06945800781,-0.76843261718,0.007629059811703745,0.5029221522919752,0.3681640625,0.63012695312,0.005560872832483093,-0.13400456934604937,-0.29162597656,0.08947753906,0.011580076169440704,1.0333179741055556,0.87802362841,1.2173085308,0.006830143412521019,971.5955753614501,971.27879730247,972.26993148204,0.06823134782508115,-0.004269349844086761,Null
-0.9029766193836891,-1.03051757812,-0.68212890625,0.010672062561573803,0.43412706689543684,0.15087890625,0.73168945312,0.03197444741324516,-0.08861356568485439,-0.34704589843,0.10485839843,0.023264044548299986,1.0346544135018443,0.90311990525,1.17621551934,0.006509539651353207,971.56623662034,971.2856203887,971.9887029909,0.026442245946056674,-0.0023216324673800814,Null
-0.9252566073768085,-1.0390625,-0.79821777343,0.004485106862452769,0.39556235455180844,0.20471191406,0.54370117187,0.008870285562352103,-0.14073797996765955,-0.27978515625,0.15295410156,0.01273575593003237,1.0272794266205318,0.9123348227,1.17790964192,0.002918151594025723,971.6718535154466,971.44482700187,972.44958060073,0.06603140644156387,0.004811806579487769,Null
-1.002406108805783,-1.48498535156,-0.64624023437,0.05973562144996154,0.32792351044445783,0.01501464843,0.68627929687,0.03190340517284528,0.015385271555180723,-0.15478515625,0.19543457031,0.009230384537442673,1.0783548513940961,0.7803679255,1.57736352924,0.049995833216082,971.3817844848685,971.00480709489,972.00069535626,0.06717761011331144,-0.004647310144891926,Lift Down
-0.9987255859348,-1.13232421875,-0.84875488281,0.006236003154111554,0.1873486328088,0.00817871093,0.30712890625,0.005719269788018439,-0.010112304686,-0.25708007812,0.20886230468,0.0166311429310814,1.0264385904916002,0.87807967418,1.1568388406,0.00738207621322832,971.530278890916,971.38901166986,971.63234795401,0.0031592957714469214,0.002306488275374037,Lift Down
-0.9153564453075997,-1.13195800781,-0.59448242187,0.020349731316377174,0.35071289062239996,0.19299316406,0.55102539062,0.012802138296235607,-0.055444335936799996,-0.41247558593,0.19177246093,0.027063957741404392,1.0072996717312,0.83474236912,1.16924660607,0.008829069924429674,971.7797308139693,971.50945903623,972.04420414244,0.018954686224006315,0.0013503829709932014,Lift Down
-0.910825039474468,-0.97875976562,-0.6474609375,0.003548165395816533,0.401725606710851,0.31115722656,0.52673339843,0.0043185993575660655,0.018226136552446807,-0.0810546875,0.11645507812,0.0031165269195432164,1.000280737415532,0.83745826111,1.04559939514,0.001640251661293657,972.0738700474209,971.44569946944,972.8756426346,0.24859307859303184,0.013109134046463744,Lift Down
-0.9283578523993546,-0.99157714843,-0.88232421875,0.00070802072536733,0.42586788054053765,0.34252929687,0.50280761718,0.0021279115976902724,-0.06970346101827957,-0.18823242187,0.01977539062,0.0026339984115348616,1.02613534835871,0.97412449733,1.07355226822,0.0005334231214976404,972.159742875616,970.23396037647,973.83493084363,1.220727740360864,-0.02819761357329688,Lift Down
-0.9231833065212941,-0.93957519531,-0.91040039062,3.982498949523849e-05,0.42526424631964693,0.41125488281,0.4443359375,8.676685288078716e-05,-0.09444221047411762,-0.1123046875,-0.05786132812,0.00021427138514640908,1.0209519549574122,1.01290227822,1.03814829857,3.0748244000981594e-05,971.0247459461623,970.54019229092,971.46445369993,0.09259879263135833,0.0108299029927416,Lift Down
-0.8998006184846153,-1.17175292968,-0.64074707031,0.013042053780145377,0.46917098607346147,0.10229492187,0.88073730468,0.032728822838114166,-0.09191112028961539,-0.16833496093,0.14965820312,0.004805093592838268,1.0400474755861533,0.84939857586,1.2241788591,0.006522653866807384,971.6832211759316,970.27780853994,973.52756924102,0.9013803444770677,-0.003465847122872838,Lift Down
-0.5783666992142998,-0.76452636718,-0.40466308593,0.013433452802533923,0.6761059570278001,0.45849609375,0.8056640625,0.006875619207983922,0.5058105468715998,0.30224609375,0.67211914062,0.010093289192210073,1.0362382874138,0.92934039392,1.18630115954,0.003818345966526429,971.4247789463599,970.49701164248,971.84054574321,0.10660272727009046,0.00950014336599617,Lift Down
-0.8908447265572222,-0.95544433593,-0.81909179687,0.0021198482995791316,0.42122938367744434,0.31115722656,0.53601074218,0.005486711439239759,0.2650892469583333,0.1884765625,0.45568847656,0.005713622789220448,1.0262009198391113,0.95662763219,1.12548265435,0.001410352569905242,971.6639643730762,971.57138213332,971.81643668473,0.004500491886180823,-0.001428729530643379,Lift Down
-0.9382383765204878,-0.95629882812,-0.92602539062,2.904803018289999e-05,0.33270859136378056,0.29272460937,0.36828613281,0.00038428665400595737,0.2139773485097561,0.18017578125,0.23608398437,0.00026705625975391727,1.0185261101495122,1.00697888045,1.03665086341,4.982771457592121e-05,971.58522851549,971.48146651567,971.67285111012,0.0030751793478738963,-0.0011986126623147653,Lift Down
-0.9270260459457894,-0.95874023437,-0.90063476562,0.00027525942316959044,0.3013482344746053,0.26965332031,0.34533691406,0.0004448686854135388,0.20317961039934213,0.17980957031,0.224609375,0.0001229478497228278,0.9959546607009211,0.96531416355,1.03593228599,0.00038131636886847215,971.595977067979,971.48146651567,971.66325002002,0.002672020438529711,0.002026817479810567,Lift Down
-0.9204638671836,-0.93530273437,-0.89819335937,7.86053328898949e-05,0.24620117187120003,0.22937011718,0.27514648437,0.00016913782903874017,0.22306152343346672,0.1953125,0.24499511718,0.0001530357953418523,0.9787423047007998,0.95615353721,0.99448442041,8.526414128655653e-05,971.6795645046525,971.57862430148,971.81146091891,0.003546861613956213,-0.0006416647508107659,Lift Down
-0.954514723553956,-0.96118164062,-0.93530273437,3.22791501088695e-05,0.24301382211164832,0.23205566406,0.26220703125,4.450151554344503e-05,0.22324916294219785,0.21362304687,0.23852539062,4.1179051474729495e-05,1.0099923552656045,0.99448442041,1.01798016299,2.666273254042076e-05,971.792637331492,971.60469830336,971.94641048455,0.01143829446681203,0.004001504196245886,Lift Down
-0.9601459703906312,-0.96691894531,-0.95288085937,8.929239673312845e-06,0.24490517063705275,0.23449707031,0.25463867187,2.1657477831993655e-05,0.22101151315484216,0.21118164062,0.22961425781,2.76609437609935e-05,1.0152599609061053,1.00764500164,1.02230286492,9.866174127499749e-06,972.0863805281786,971.97044916878,972.20330208362,0.005495129128474497,0.002680409559695094,Lift Down
-0.9558866613021176,-0.96142578125,-0.94873046875,1.238924281247213e-05,0.23352194392929415,0.21044921875,0.26403808593,0.00015190828915034733,0.24137465532682348,0.21423339843,0.25793457031,8.272044465151082e-05,1.013279160769294,1.00212759688,1.02234592902,2.3259659376786508e-05,972.3446870051554,972.23159989591,972.47591914799,0.004085768379887638,0.0024697678531544775,Lift Down
-0.9615076765191136,-0.97021484375,-0.94946289062,2.5461011033109853e-05,0.2337847359539241,0.22338867187,0.23974609375,1.473053540682685e-05,0.22079738182050632,0.20886230468,0.23156738281,3.935394736471144e-05,1.0138841399141774,1.00188207095,1.02154652422,2.156093136782906e-05,972.5608799937436,972.50638202434,972.6665797022,0.002628249495086594,0.0018193296582628485,Lift Down
-0.9594911517485858,-0.97827148437,-0.94787597656,5.229406321323108e-05,0.21810882259848485,0.19384765625,0.24145507812,0.00017006249554084502,0.2343318438250505,0.21350097656,0.24926757812,0.0001490600598955228,1.0116348639041415,1.0009554456,1.03273092487,6.940999033366479e-05,972.8289073618722,972.68137318127,972.9588786016,0.006299277526040218,0.002737271148316569,Lift Down
-0.9653467869982418,-0.97216796875,-0.95959472656,1.0595995576990893e-05,0.1909528459783516,0.1796875,0.22021484375,7.949414706201364e-05,0.2547124506323077,0.24536132812,0.26318359375,1.8116791757724708e-05,1.0165296553670329,1.01035456204,1.02243981253,1.0433318663391803e-05,973.059556436527,972.9588786016,973.17650532633,0.003999214515189722,0.002375121594572048,Lift Down
-0.9586843467575904,-0.96716308593,-0.94970703125,2.136255952927608e-05,0.20646354950771087,0.18530273437,0.22998046875,0.00018317722464722942,0.2606451195363856,0.23889160156,0.27587890625,0.00010938570230854937,1.0148520895740964,1.00390328878,1.02477064735,2.442616139119518e-05,973.2877165127813,973.17650532633,973.39504649402,0.004736741106753747,0.0028082765433330922,Lift Down
-0.9601633172256577,-0.96984863281,-0.94738769531,3.988526368389508e-05,0.2035361842069737,0.17578125,0.23767089843,0.00022770160120849485,0.25793296412052635,0.23840332031,0.27709960937,0.000126711326216507,1.0150058170303946,1.00759642894,1.02397550754,2.2586651759691522e-05,973.5171748275455,973.40494399714,973.64554875335,0.005015852120792938,0.0031544406841935457,Lift Down
-0.9878609572751899,-1.02160644531,-0.9619140625,0.0004655870668824126,0.19703693630835448,0.18200683593,0.21936035156,8.300381102217581e-05,0.24492867385000003,0.22534179687,0.26538085937,0.00016738084547779185,1.0367538048501264,1.00969137217,1.07343222521,0.0005381493864435204,973.7726817693859,973.66403687073,973.8908790112,0.00573155413080942,0.0032674533169603044,Lift Down
-0.9930310058559,-1.01831054687,-0.95812988281,0.00044683558021651673,0.18464111327820004,0.17565917968,0.20617675781,7.185164726214946e-05,0.26029052733979996,0.23889160156,0.27331542968,8.532179124528303e-05,1.0430971974627,1.00598788134,1.07133343308,0.0005053368694360873,973.9709948955636,973.90829176464,974.03460605064,0.0014715938764793674,0.0013073633615181474,Lift Down
-0.956983244817191,-0.98181152343,-0.90051269531,0.00033267303556995526,0.20533186665651687,0.17077636718,0.31176757812,0.0016992042093960324,0.2760805279980899,0.23889160156,0.37963867187,0.0013353787704801507,1.0185561535667416,1.00464304741,1.03492813475,7.215874819637155e-05,974.0473156325684,974.01150518239,974.10707291518,0.0005178093048447767,0.0005186567305869373,Lift Down
-0.808216989771852,-0.90051269531,-0.75830078125,0.002050432263818363,0.4362386067676543,0.31176757812,0.50354003906,0.0026742786169232074,0.4225305627851851,0.37915039062,0.45043945312,0.0004084730314342567,1.0133269483603704,0.98550299699,1.04076449745,0.0002928231798428786,974.1031325583311,974.06024253415,974.13793769383,0.0004654425974229282,-0.0002770630097844117,Lift Down
-0.836381022132,-0.85278320312,-0.80639648437,8.199504586999891e-05,0.4301133897532222,0.40112304687,0.45922851562,0.0002723363827031127,0.3992160373225555,0.37817382812,0.447265625,0.0002712190746803588,1.021948215964778,1.00855893578,1.06093152062,0.0001462555764977614,974.0732021931375,974.06345902893,974.08285681993,3.771887925420492e-05,-9.229491030571153e-05,Lift Down
-0.8366711934370833,-0.84448242187,-0.82629394531,2.3713078865946354e-05,0.4315172831179166,0.41931152343,0.4423828125,4.155651356166362e-05,0.38756434122291666,0.37719726562,0.40185546875,5.254690421145191e-05,1.0180900205285417,1.0069756767,1.02840908641,4.170390377646297e-05,974.0714738821111,974.06033468448,974.08349251655,4.051811029962442e-05,0.00018145247069288638,Lift Down
-0.8450601267224418,-0.88110351562,-0.83117675781,0.00021859317121388712,0.4395283543743023,0.42224121093,0.4609375,0.00011162553417292199,0.3609690111708139,0.30285644531,0.39990234375,0.0011014056046942432,1.019399805200116,0.99930256871,1.0304209599,6.293755619188045e-05,974.0827383932597,974.06665081098,974.11460862667,0.00015357561172372252,0.00037292984974967165,Lift Down
-0.9148919521201281,-0.99621582031,-0.84716796875,0.0019307366280197726,0.32889341696397434,0.17858886718,0.45593261718,0.00679060124288375,0.24730036808692304,-0.06713867187,0.38134765625,0.01953167380429196,1.0166061673498719,0.95888810927,1.06818412166,0.0007681783574297908,974.0562685982371,973.99001250583,974.15145183111,0.002193067745737401,-0.0002014679063824342,Lift Down
-0.9594759554435136,-1.01708984375,-0.86791992187,0.001253428513473053,0.2883036845402703,0.17858886718,0.38171386718,0.004211047034795116,0.12383538323229729,-0.06713867187,0.26342773437,0.010064968176069857,1.016554272022297,0.94556537902,1.06153384627,0.000998821737777663,974.1756631210549,974.06096232948,974.26683901692,0.0032311307895789574,-0.0016797723712564812,Lift Down
-0.9577506856687233,-0.98217773437,-0.92529296875,0.00018430636393797396,0.2997254716552128,0.26416015625,0.33813476562,0.0005129164609321905,0.16354694771840425,0.08679199218,0.21618652343,0.0013977347376904728,1.0176992745670215,0.98094440791,1.04079912378,0.0002326709114096643,974.0594488259422,973.90796986468,974.20982837184,0.01025980465061611,-0.003611146363989791,Lift Down
-0.7622667677824467,-0.97119140625,-0.43090820312,0.03345361728302283,0.5670958174002126,0.28820800781,0.94714355468,0.023544215613779496,0.1902309985841489,0.02062988281,0.37475585937,0.009633752602367048,0.9996417595722341,0.81746192831,1.22372743647,0.005534088852651269,974.0925936186411,973.93186872721,974.39455981905,0.024993344834527524,0.0038658544520113343,Lift Down
-0.8757467830852942,-1.16162109375,-0.58374023437,0.028666072449750273,0.4770206226984706,0.18969726562,0.94714355468,0.034918962456400165,0.2562270220545882,0.08972167968,0.37475585937,0.004994530583438307,1.052164670157176,0.82476431521,1.25658515615,0.02110392480863026,973.912249295003,973.61299324772,974.4600182933,0.044012351318013704,-0.0027763630069106903,Null
-0.9791769679543035,-1.12194824218,-0.76879882812,0.0074522444100052244,0.23329027392746823,0.11547851562,0.36938476562,0.0067370377241481655,0.11349603193936711,-0.06530761718,0.22204589843,0.007557033045959982,1.0205630066589875,0.85801205493,1.1763615681,0.006092551458201418,973.8703652756349,973.75766801707,974.04526307991,0.010014487248550644,0.0028393555992133838,Null
-0.9803551400028713,-1.04357910156,-0.93078613281,0.0006086847953046913,0.23463968710930694,0.07641601562,0.34265136718,0.005772690197602878,0.046404848004455476,-0.07434082031,0.25842285156,0.009283421750239374,1.0158968013639604,0.96789876393,1.07852514415,0.0007727002502772766,974.0428095855293,973.94224025944,974.14275114704,0.0030815742758312946,-8.223102815176188e-05,Null
-0.969928656680111,-1.029296875,-0.92907714843,0.0006479839130739288,0.24846191405888887,0.16760253906,0.31555175781,0.0015440763381622863,0.14290771483933334,0.00170898437,0.26281738281,0.006442968246164321,1.0151493613998888,0.96583162924,1.08657102835,0.0009388259323005109,974.0200817437903,973.96036026665,974.09188114507,0.0015124807991274648,-0.001303396839100101,Null
-0.9749979158690242,-0.99548339843,-0.95629882812,0.00012426726907326772,0.24962039109768294,0.18798828125,0.31799316406,0.0015166821325290798,0.08625309641439023,0.06726074218,0.12329101562,0.0002197865907318753,1.0110218133237805,0.99819492802,1.02559424422,4.4350172276891944e-05,973.9876189298989,973.9330098175,974.01886879198,0.0007284401305349378,0.0009077829680510077,Null
-0.9713247198774999,-0.98352050781,-0.93884277343,4.1381191267407724e-05,0.28239521227026315,0.244140625,0.3427734375,0.000971550133748627,0.09576255396513156,0.06298828125,0.19543457031,0.001429949002897194,1.0171875580955265,1.00535924384,1.04801845021,0.0001311688270413588,974.0084884904114,973.9880853767,974.06894773689,0.0004352826396570544,0.0006218083324234855,Null
-0.9575398762984614,-1.18273925781,-0.78308105468,0.010568389419154077,0.26083139272538464,0.09802246093,0.451171875,0.005507090522568709,0.09773137018884615,-0.06433105468,0.21691894531,0.005361205660742799,1.0031689439766664,0.8572438431,1.2139726441,0.009401509161709988,974.014952820341,973.62338138132,974.30119600773,0.025885258229778624,-0.003458682380652691,Null
-0.9664819335906998,-1.22680664062,-0.7451171875,0.01989939603517177,0.365795898434,0.22009277343,0.56103515625,0.00950022056861439,0.16763671874669994,0.078125,0.23400878906,0.0018855312496262055,1.0534578321987,0.83557079864,1.26270752655,0.0173686150444043,973.9122295114427,973.68794600239,974.13228514209,0.018863203488891644,0.0031845394234254723,Null
-0.9539836069132585,-1.16394042968,-0.70739746093,0.01855980518528548,0.3557224916577528,0.23181152343,0.49597167968,0.004110671317304528,0.0842422313869663,-0.03674316406,0.20568847656,0.0034003415018735023,1.0250112612326967,0.79231950649,1.2329076121,0.01906397060826028,973.9989027401671,973.79070926201,974.27763396766,0.015955987533230423,-0.0010146925139087983,Null
-0.9810775945170371,-1.21020507812,-0.72045898437,0.025187739541504196,0.21487539785567902,0.00231933593,0.35070800781,0.009374008617523985,0.15194589119987656,0.04150390625,0.21264648437,0.0015427264487720062,1.0223403936033333,0.78686766782,1.2329076121,0.02252923559128489,973.9841970278013,973.78576058325,974.26954238548,0.018342051003833827,0.00019082806219346987,Stairs Up
-0.9755408245551085,-1.25219726562,-0.69567871093,0.028253438616166717,0.2328531016443478,0.14282226562,0.44970703125,0.00815587071633592,0.20044476052510873,0.07775878906,0.26403808593,0.002055575858442965,1.0270640463033691,0.71939545135,1.28730621916,0.029586393982930857,973.9193070504709,973.6984858363,974.09188192347,0.013299210842013673,-0.0008055571921552204,Stairs Up
-0.9489219263946315,-1.26049804687,-0.64501953125,0.029248838301826705,0.2380139802595789,0.13696289062,0.35400390625,0.004024118912705581,0.20383043790884212,0.11376953125,0.36437988281,0.00454978333477398,1.0041206121567365,0.70180881016,1.28862769567,0.028112649918552442,973.8717956919995,973.6944965371,974.07222960063,0.013191734402713385,-4.343487333806706e-05,Stairs Up
-0.9620249079524136,-1.22106933593,-0.6484375,0.03248160683543217,0.23972645024724132,0.06066894531,0.47131347656,0.016622889136939316,0.1733833400635632,0.05834960937,0.27478027343,0.003101176292789558,1.0149950741048277,0.68622186366,1.2638288987,0.03481323582660908,973.8559363155815,973.58303544361,974.18086906255,0.026410564874928728,-0.0009365593784026825,Stairs Up
-0.9551078600726922,-1.23840332031,-0.70263671875,0.03031480319543331,0.2266391851924359,0.11328125,0.47668457031,0.007370868715818456,0.18636693709538465,0.0859375,0.25366210937,0.002017403150944358,1.0039754509660257,0.74486253419,1.27024439808,0.029940183521999734,973.7706679396431,973.48343249261,974.08384510194,0.04481045743614753,-0.0009534552529162847,Stairs Up
-0.9779117838502667,-1.29357910156,-0.62292480468,0.02892922384266909,0.27372395832946667,0.10900878906,0.47668457031,0.009547098058605633,0.16709798176773336,0.09680175781,0.27563476562,0.0021120017176257835,1.0350345497132003,0.65331551132,1.30903264556,0.028285768316114672,973.5623720011118,973.24879199318,973.95307959299,0.043710448029736455,-0.002278226131529677,Stairs Up
-0.9683837890582222,-1.25109863281,-0.62292480468,0.02219622356170138,0.2404581705694444,0.126953125,0.40588378906,0.006117863685127648,0.19407009548277776,0.08068847656,0.30212402343,0.003802512662332697,1.0209808198925556,0.65331551132,1.26748140786,0.02286243796538237,973.5732659650724,973.24879199318,973.89157492829,0.017008092173647467,0.0024760046928587382,Stairs Up
-0.9907430012976041,-1.27758789062,-0.66381835937,0.029993773029522407,0.23372268676427085,0.10302734375,0.38928222656,0.009176611532720366,0.10837300618104166,0.01745605468,0.20837402343,0.0028800085710116077,1.0298615515887501,0.68683427309,1.28792325742,0.029244884373834597,973.6343899460261,973.05916021955,974.31833395212,0.11490754775205732,-0.004979365443987398,Stairs Up
-0.9580844612977907,-1.28100585937,-0.68408203125,0.03294216641457849,0.24557424145674414,0.07153320312,0.35180664062,0.006993607979111795,0.0869907112982558,-0.02905273437,0.16748046875,0.0026770020394875425,0.9984426132770928,0.72391268817,1.29459528307,0.03139460749954071,973.3278242195415,973.05051303812,973.69961191805,0.03776706352213216,0.0007519461148967011,Stairs Up
-0.9852959355175948,-1.19018554687,-0.73156738281,0.020496342731288635,0.26648876334708865,0.13098144531,0.3828125,0.0046442192227610715,0.13582717315772155,-0.041015625,0.23974609375,0.005373284355914857,1.0346902364860757,0.7890175816,1.24102338188,0.020071137145050814,973.3558210661654,973.06568635681,973.7978967638,0.054640564884849696,-0.004963253804594811,Stairs Up
-0.9865809849289795,-1.2138671875,-0.74682617187,0.02304147268401683,0.277962820867449,0.20068359375,0.32958984375,0.0014457933835492316,0.10568673269765307,0.05725097656,0.17041015625,0.0008320999668276258,1.0318213492079595,0.7860454724,1.26045523405,0.02240943121654685,973.3490396758245,973.14861047543,973.56875627761,0.015411614326433482,0.00030933383634316347,Stairs Up
-0.9791113811944566,-1.20092773437,-0.73657226562,0.018440555361090006,0.24662979789065215,0.18811035156,0.30480957031,0.0013362942018883643,0.14443704355923914,0.02014160156,0.25012207031,0.0033664202634893104,1.0223419435185872,0.79322428414,1.23767792959,0.01825449503762831,973.4528060633415,973.27519407697,973.71799551351,0.012704369829264758,-0.00036655983100009277,Stairs Up
-0.9799392883997591,-1.29833984375,-0.70581054687,0.03145647604189484,0.2595803134375904,0.09692382812,0.44775390625,0.00890897372937345,0.14203689758795182,0.0380859375,0.21813964843,0.0028658201027968165,1.0291774022193976,0.76701094271,1.33357712881,0.031723930340419204,973.3680704232709,973.18041941121,973.59556215071,0.017299484924523875,-4.757028641522685e-05,Stairs Up
-0.9505342182325,-1.23779296875,-0.65161132812,0.02940894190420342,0.30232640316223686,0.14123535156,0.52819824218,0.013442316274961747,0.2285124126193421,0.06958007812,0.42041015625,0.010671194384014471,1.0328202657742107,0.70233865848,1.28882529648,0.031404556554080275,973.3144881569334,973.07593678073,973.67494895651,0.029479944521308945,0.0008117320330279876,Stairs Up
-0.9429801432249332,-1.18469238281,-0.66003417968,0.029286525367588634,0.2909309895812,0.19482421875,0.39587402343,0.0032549770189537687,0.17542805989199997,0.0595703125,0.37329101562,0.0054013856251987685,1.0074676410841334,0.72136483144,1.25626627142,0.027439186235924187,973.2172476357346,972.99896676234,973.50932693444,0.02072007098261656,-0.0006152476782781042,Stairs Up
-0.9989529079824444,-1.24499511718,-0.70690917968,0.02965391384708438,0.16798366970044443,-0.001953125,0.36022949218,0.008820442948273277,0.13470730251377777,0.07702636718,0.29040527343,0.0027296078432596763,1.026934562010889,0.72931511707,1.27861784174,0.030764862971374013,973.2332766705385,972.86622028874,973.78042188394,0.04559931416571262,-0.006159649461037862,Stairs Up
-0.9833246866819793,-1.26928710937,-0.67614746093,0.027344473876334277,0.23150634765260417,0.0498046875,0.38891601562,0.009740724688960294,0.1881116231253125,0.06860351562,0.28234863281,0.0028726359714671213,1.0336288298495833,0.72633179724,1.29742078901,0.027346519979002296,973.1845656994592,972.94792678417,973.49425034451,0.019811132679057424,0.0028622043220079274,Stairs Up
-0.941599291421279,-1.166015625,-0.70837402343,0.01644746046402749,0.2827673623697675,0.056640625,0.42028808593,0.009112947316778964,0.23871843204441853,0.10339355468,0.32116699218,0.0024879327469830596,1.0163856615829068,0.73990362019,1.23261682627,0.01845001565095827,973.0902966433828,972.78836790238,973.50272355957,0.03119212880919936,0.0004499959647178779,Stairs Up
-0.9402257219099998,-1.23120117187,-0.67175292968,0.026072304111899276,0.29930558988911393,0.06176757812,0.45349121093,0.014805250133713331,0.14607798901911395,-0.0107421875,0.2490234375,0.006185905949054774,1.0040650689467085,0.72456189023,1.25710922032,0.028383798322687406,972.9232094041321,972.69731709187,973.13347324252,0.01679703025625438,-0.001723843734996478,Stairs Up
-0.9663335060545918,-1.14733886718,-0.74597167968,0.01666467950492495,0.30104905731377546,0.18212890625,0.41259765625,0.0038870384577613507,0.16583376514346937,0.0283203125,0.24890136718,0.003437556324735028,1.0296592524943877,0.81534270776,1.1811234911,0.01563769534254231,972.9176699720963,972.66488752063,973.37045690407,0.026044129882378933,0.0033861916912291228,Stairs Up
-0.9803798509641303,-1.14575195312,-0.75134277343,0.01802068100643997,0.267586086103913,0.1923828125,0.33203125,0.001962240516636744,0.1332437266428261,0.02160644531,0.22741699218,0.002910186121477569,1.0276765243425,0.81097803253,1.19501654383,0.017213187034419,972.9694318132296,972.70643435409,973.15035864868,0.016303538033722927,-0.001160342062574802,Stairs Up
-0.9786435782151807,-1.21667480468,-0.74584960937,0.020998639996116307,0.2436229292137349,0.09973144531,0.39270019531,0.0058939033857917334,0.14604021554530122,0.02221679687,0.22485351562,0.003726808246438706,1.0246160522454215,0.81564651621,1.24339476884,0.019065220083143805,972.9177803369295,972.71869790123,973.17933118826,0.013289284792745285,-0.000218366710318795,Stairs Up
-0.9843814247493422,-1.23327636718,-0.75891113281,0.020438730674754962,0.3078902395109211,0.20031738281,0.5009765625,0.00765649591633714,0.11672491776039474,-0.00402832031,0.20861816406,0.0036681375168687792,1.0465711982789472,0.83831492709,1.28232997642,0.019057594941870728,972.9205327832979,972.49251190529,973.44528792765,0.0458300822832733,-0.00464935536341221,Stairs Up
-1.003033854162,-1.22546386718,-0.75512695312,0.01979964717549862,0.2502360026002666,0.04956054687,0.44006347656,0.012485387491827071,0.15890136718373332,0.03527832031,0.26770019531,0.0041650833955330455,1.0540829388338666,0.81833200704,1.25169273441,0.019072184426403863,972.895994663965,972.63856227821,973.21642157825,0.02043709194677624,0.001318651829567559,Stairs Up
-0.9104327466080722,-1.24780273437,-0.64233398437,0.034901323145897334,0.36876853115228914,0.18591308593,0.58117675781,0.012044901129509815,0.22614775507855425,0.06530761718,0.41125488281,0.009126402597611615,1.019599572114458,0.75480604089,1.35150157372,0.032222815078854494,972.9205028742588,972.58321826119,973.35229227005,0.04039121044655479,-6.179262297136543e-05,Stairs Up
-0.9635919064858163,-1.23620605468,-0.67065429687,0.024560195671853777,0.27711081991061226,0.13916015625,0.45239257812,0.008750071564463096,0.19124805683510204,0.12365722656,0.27673339843,0.002047957590248102,1.0260978800587754,0.7209448887,1.25636108841,0.0242435381959015,972.8032179901064,972.51558014805,973.03377768517,0.021680404875922817,-0.0013126247445397795,Stairs Up
-0.9743097478659091,-1.22729492187,-0.68969726562,0.025742260515307983,0.27080882679056817,0.06091308593,0.41198730468,0.011899519223224561,0.1849462335714773,0.10961914062,0.25524902343,0.0014695978101007799,1.034678086200682,0.72811895212,1.26637418378,0.025216756832367303,972.6785917390324,972.44138249993,973.00807906458,0.02434689218767667,-0.00359106215536033,Stairs Up
-0.9555814766545678,-1.23571777343,-0.69799804687,0.02873624055897648,0.2864372347576543,0.10363769531,0.44018554687,0.009871719451095053,0.16966567804382715,0.03002929687,0.23620605468,0.002895544322129606,1.0186483994106172,0.72536521624,1.2694478521,0.027656684605080285,972.6726624351595,972.37689424677,972.93966011361,0.025147110296985204,0.0016035792969055324,Stairs Up
-0.9623387113495743,-1.20068359375,-0.732421875,0.025961989590058694,0.27421926944404257,0.16540527343,0.39453125,0.003907230374433694,0.15248789685478725,0.01159667968,0.30053710937,0.004376124618744297,1.0166716637487234,0.764472415,1.26235022553,0.02507103546579236,972.5712716862575,972.32021422144,972.85530080807,0.018106935107455643,-0.0003975906938441282,Stairs Up
-1.0047327677372917,-1.24816894531,-0.732421875,0.024682728076985513,0.2357610066696875,0.09631347656,0.361328125,0.006839331821084426,0.1834246317509375,0.06176757812,0.32836914062,0.004570402085602039,1.0538465919835418,0.75624174357,1.30253911878,0.024090585364529002,972.4447504490295,972.18314494386,972.68912927983,0.01403916239619285,0.0014246987272037855,Stairs Up
-0.9341086902794251,-1.20593261718,-0.62280273437,0.025525708678740686,0.32608909168057465,0.13806152343,0.49670410156,0.007027718388178188,0.1428615526194253,-0.00415039062,0.29895019531,0.006936824076976653,1.006286253937586,0.6880054025,1.26742093091,0.026026029298255236,972.4982704375648,972.14162275866,972.79078070085,0.02932465396134444,0.0038598845371011635,Stairs Up
-0.9434548402397434,-1.18969726562,-0.72961425781,0.024186570012277548,0.31176914312602555,0.22607421875,0.42053222656,0.003119178984651393,0.10903226411961538,-0.03637695312,0.24499511718,0.005852825477997358,1.0033176670493589,0.78288449967,1.2735203792,0.025610532490299102,972.4185238829601,972.12440734192,972.75463393417,0.03831477031693474,0.0013047906010242246,Stairs Up
-0.9883561197874665,-1.21484375,-0.74157714843,0.022404350901774554,0.28519368489186664,0.19152832031,0.38977050781,0.0036109520669013536,0.12159830728813333,-0.02319335937,0.23205566406,0.0036826320327742602,1.0396261368496,0.80851264215,1.27706400406,0.021738713385079923,972.3104609328202,972.06989109493,972.68950530808,0.04195547333375173,0.00042740067336726476,Stairs Up
-1.0222055535531578,-1.26098632812,-0.7392578125,0.02450978325901688,0.27278378134842096,0.12292480468,0.44177246093,0.009208247941280558,0.13374408922526315,-0.01770019531,0.29443359375,0.006989901797846215,1.0740626777409208,0.82562066125,1.31529798747,0.021914670683075572,972.4751638634477,972.17416653477,972.73443037765,0.022547177180858868,0.0022893662515483704,Stairs Up
-0.992551293699901,-1.23742675781,-0.76989746093,0.017875054174795464,0.2452416750428713,0.07043457031,0.4638671875,0.011773838692870929,0.16428246828257426,0.08923339843,0.248046875,0.002067485159656995,1.0427745635632673,0.85257789025,1.28278381719,0.01647698168868368,972.4627622416905,972.3124255104,972.67270721401,0.012327828713521689,-0.0016441655652510239,Stairs Up
-1.0220160590234444,-1.24536132812,-0.75329589843,0.02319468518023243,0.1898980034685556,0.07141113281,0.33471679687,0.007020106245601067,0.20759412976933334,0.03039550781,0.34167480468,0.0060653990219797374,1.0662661132636666,0.77990190543,1.28559293545,0.022881288808525947,972.4531392406257,971.95403495502,972.9084748446,0.03915505207508804,0.0013986831975323318,Stairs Up
-0.9941406249966264,-1.24279785156,-0.69348144531,0.02631080405008867,0.2514280755790361,0.07824707031,0.45007324218,0.011252467855942673,0.10541433311048193,0.03039550781,0.19055175781,0.001834842945331527,1.0368092131598798,0.73733841774,1.28849437794,0.026918251643144254,972.2024272470551,971.89717066521,972.92102878594,0.0652068740128322,0.004147946166189643,Stairs Up
-0.9370796897159092,-1.28918457031,-0.69287109375,0.02409993158612602,0.3266726407102272,0.16284179687,0.48132324218,0.006513794619380853,0.13818636807068183,0.06042480468,0.19836425781,0.0009958689162787467,1.002142077619091,0.77760611472,1.3264231212,0.022799574535730626,972.1020374770709,971.8621396915,972.41284684616,0.02128045210627935,-0.0026307757396077116,Stairs Up
-1.0151341756153125,-1.2919921875,-0.72766113281,0.026514723106173713,0.1601689656529167,0.04089355468,0.29943847656,0.0038021867147483195,0.1313273111940625,0.00695800781,0.36596679687,0.005222658316293191,1.040531338993125,0.76296685497,1.31975894248,0.026134485827301934,972.1046930060714,971.85800025482,972.38489120397,0.02110372925173916,-0.0008383247050431254,Stairs Up
-0.9604464125324137,-1.24560546875,-0.67858886718,0.02934816964062589,0.1538156092829885,-0.09289550781,0.32690429687,0.013785060185034257,0.19116491558505744,0.06237792968,0.36596679687,0.006525667939328361,1.001271725394598,0.7157153668,1.2773271962,0.029543192645515533,972.0021757937494,971.7875822532,972.30812101217,0.022335789057785545,0.001605473450346321,Stairs Up
-0.9928411169863288,-1.23156738281,-0.71606445312,0.02308087319836958,0.2758881774087342,0.19885253906,0.41674804687,0.004359085885435444,0.11211153826911394,-0.03088378906,0.22436523437,0.003761082737585397,1.0414060940701264,0.77171106026,1.26134815028,0.02096154216002321,972.1805691850005,971.68731236832,972.72860442958,0.09772778750540695,-0.0031052445616701887,Null
-0.9450697008034066,-1.14880371093,-0.73425292968,0.014414710632591735,0.38087278931659335,0.24768066406,0.47668457031,0.0038188935817881457,0.08928034855483516,-0.01403808593,0.26477050781,0.005465246494942608,1.0282454532030771,0.84659537277,1.21533851116,0.012478641329108739,971.83136358807,971.45445908313,972.35811248477,0.04485463896423401,0.0033282974584296784,Null
-0.9777921977762105,-1.12963867187,-0.87463378906,0.0045825503740818665,0.2629201788617895,0.16748046875,0.35046386718,0.0027929922734399675,0.15348221627905262,-0.01647949218,0.32250976562,0.011195993626587172,1.0308989646629474,0.92870834622,1.16862408168,0.0044314107022147345,971.8503836475318,971.64625236908,972.04424084399,0.012974775482280307,-0.0016468183766595442,Null
-0.9933048023856469,-1.13305664062,-0.90710449218,0.0025696355338519932,0.19639389935341175,0.03332519531,0.34143066406,0.0053235977720640665,0.04314539292105882,-0.25805664062,0.19079589843,0.010514381210012047,1.020610741463882,0.92813112308,1.16787579016,0.0036745174473026315,971.9434836796562,971.71565641451,972.2066570477,0.017307467331954967,-0.001889008660710105,Null
-0.9910903742255556,-1.12683105468,-0.92883300781,0.002374226783798351,0.21728515624666667,0.13891601562,0.28686523437,0.0017611399292681278,0.09363546488962964,-0.07751464843,0.23913574218,0.008478034415903815,1.0236562543971603,0.94362112327,1.15432584955,0.002861448779480689,971.9097129434689,971.71685973219,972.06282750325,0.009434272617349386,0.0026324974844918166,Null
-0.9893151855426001,-1.05285644531,-0.91723632812,0.0014619142283937656,0.1556433105424,0.04956054687,0.22399902343,0.0028713229494550813,0.0944628906217,-0.04260253906,0.19665527343,0.0045461894645484,1.0096708729954,0.94718977634,1.07016150251,0.0012605805725443276,972.0213983532553,971.97144828263,972.09891395406,0.001514496134633299,-8.532319810603559e-05,Null
-0.9958943684863333,-1.07153320312,-0.91967773437,0.0013770231537814583,0.17989908853722222,0.11083984375,0.25524902343,0.0015754257024548912,0.09219835069244446,-0.01904296875,0.16784667968,0.004133010929799342,1.0189941129592222,0.95404746801,1.09662637555,0.0013424575123130288,972.0440775511512,971.9647789793,972.23119470528,0.005269719037125788,0.0014782743471197105,Null
-0.9917670355864197,-1.05004882812,-0.93273925781,0.0009875144809587206,0.16461106288209876,0.03515625,0.29614257812,0.004273950354461707,0.05432731722419753,-0.00842285156,0.24072265625,0.005181090124386575,1.0115362667249383,0.96320975317,1.08062449565,0.0007676045219656296,972.0698411613818,972.01461920601,972.17735880758,0.0017300006236679471,-0.0005031534517039831,Null
-1.0055660891796103,-1.0322265625,-0.98120117187,0.00017087446222894206,0.11322734881948053,0.08142089843,0.15344238281,0.00037175514726516066,-0.02472320160077922,-0.05395507812,0.01599121093,0.00038228402958719363,1.0125837911946753,0.98914310132,1.04258768213,0.00018418857015205307,972.0775288209062,972.04046913563,972.11664136965,0.0008059598676888181,0.000472100741149637,Null
-1.0027677328248514,-1.0263671875,-0.99523925781,3.089133171713523e-05,0.1595930344949505,0.12341308593,0.18481445312,0.00031373797960049514,-0.021176177671782176,-0.03942871093,-0.01037597656,5.546945155856232e-05,1.0157872741549505,1.00399051119,1.03483578021,3.4182649984171154e-05,972.0087374938466,971.977985629,972.05162642798,0.0003548635326323301,-0.0006064906909852259,Null
-1.005730446800562,-1.15930175781,-0.89233398437,0.002882286012086878,0.15308988763651687,0.00903320312,0.25573730468,0.004923708207942947,0.05156579178370786,-0.06811523437,0.20971679687,0.009243880105768853,1.0252442582320227,0.91896682211,1.19084712807,0.0033595374778613435,971.9405239226404,971.87032440985,972.02153155866,0.0019373599605294375,-0.00016097531921665107,Null
-0.9844494331139024,-1.13049316406,-0.83801269531,0.007859607815858604,0.2550212580936586,0.11352539062,0.42504882812,0.008756085958862824,0.08620248189414634,0.02734375,0.25219726562,0.004985754432777001,1.0267859045203658,0.87188620508,1.18464838385,0.008762984172756835,971.9662952877071,971.85738605442,972.12674755784,0.003859813900065278,0.0005548244415007955,Null
-0.9820766654032256,-1.04577636718,-0.89855957031,0.0013726439889029092,0.21814489876924736,0.16394042968,0.34313964843,0.0020124393681724877,0.17512627057655913,0.00378417968,0.30688476562,0.008269075720520522,1.0259084788564514,0.94748976896,1.11317430618,0.0017908795515256628,971.8929950811109,971.83361792309,971.95802663056,0.0017147933660166068,-0.0003218556395765414,Null
-0.9757195723643156,-1.10095214843,-0.90344238281,0.0015515447530231989,0.20144942433926316,0.12084960937,0.31726074218,0.0026105437640236043,0.15111790706884212,0.03442382812,0.25732421875,0.004382234277871132,1.011304891581052,0.94817619997,1.12399163354,0.0011763578305934224,971.9466983303623,971.8618075814,972.21572957549,0.004934909809361907,0.0016647053899816668,Null
-1.0102079503635293,-1.08374023437,-0.93530273437,0.0016663574662423644,0.1061997357504706,-0.00537109375,0.20568847656,0.004348710709339243,0.012938017004470588,-0.08959960937,0.24645996093,0.008121430693681646,1.0216925487565884,0.93636454327,1.09814972831,0.0021051687596239104,971.9096096574262,971.58741795583,972.30096976986,0.03669048492710682,-0.004040414460164106,Null
-0.994261109980779,-1.01831054687,-0.9755859375,0.0001029546689973173,0.1661472072812987,0.08471679687,0.26196289062,0.003185914051451181,-0.006531554383116883,-0.06469726562,0.04846191406,0.000700096795028732,1.0099212581049353,0.97932100178,1.03964771196,0.00020154112051062924,971.8612550132286,971.72464459541,972.02812926638,0.00768278517427564,-0.00022561467344100526,Null
-1.0002932493673562,-1.01916503906,-0.96838378906,0.0001835696432830482,0.1792090404945977,0.14147949218,0.23352050781,0.000608523300362674,0.011133654362183908,-0.0166015625,0.02758789062,0.00016791915400119154,1.016466224048276,0.98191840313,1.03278077548,0.0001952648857039442,971.9918060057219,971.75634059083,972.09610353016,0.004319234645184225,0.001982878438483918,Null
-0.9869575500460416,-1.02038574218,-0.95959472656,0.0003097971263669063,0.1924247741659375,0.09216308593,0.31567382812,0.0049506732751734015,0.055948893227916664,-0.03015136718,0.23364257812,0.006261061262351924,1.0126586681815624,0.99341622811,1.07059378999,0.00016847032255370365,972.0656334717623,971.97099804389,972.19093961992,0.0023304995922286253,-0.0008706868130339487,Null
-0.9926658452903487,-1.07495117187,-0.92138671875,0.0016866372665841959,0.1476738508310465,0.03942871093,0.24890136718,0.0028964492103581607,0.07053251044616277,-0.0615234375,0.26733398437,0.012151064878952919,1.0132906413632552,0.94790518495,1.09227411966,0.0019724615825104943,972.0346106924934,971.90937658853,972.18886914236,0.005372480554993316,0.000122429410629669,Null
-0.9946227254706327,-1.02404785156,-0.96472167968,0.00021740370021874276,0.16438853589303798,0.10021972656,0.23779296875,0.0012063489974189119,0.18365401255569622,0.09973144531,0.24389648437,0.00137528963322212,1.0259788519535442,0.99519272986,1.0603050462,0.00015978240631366262,971.9908054289716,971.9331171349,972.11187662942,0.0023501312096921643,-4.375049740898247e-05,Null
-0.5567614368512371,-1.08435058593,-0.13403320312,0.12958977480039255,0.32898578446793814,0.080078125,0.60266113281,0.03189584717481226,-0.5044788478549485,-0.95947265625,0.13793945312,0.14401211911117331,0.9815625183758763,0.81222627687,1.2260651947,0.014278049443502784,972.1518957660551,971.5757737039,972.75571535181,0.10438019252379148,-0.007742129478217284,Null
-1.0034405252172827,-1.04870605468,-0.9677734375,0.00037094784611585446,0.19384234884130444,0.1240234375,0.47045898437,0.004867793411038443,0.1003975246220652,-0.07019042968,0.19641113281,0.0032612607415871547,1.030582046255326,0.99827403639,1.13566496595,0.000865066306766492,971.6547484854107,971.40935637842,971.93288855348,0.026167139325515107,0.005410627789464127,Null
-0.9835030691927381,-1.07263183593,-0.91955566406,0.0012563700930154438,0.2302769252194047,0.15393066406,0.35803222656,0.003742564258026989,0.07150413876416667,-0.05847167968,0.19873046875,0.007894144940559794,1.018478564609524,0.9539425814,1.08411907012,0.0008699515089058829,971.9350406307345,971.8171700871,972.06090813182,0.004338117986238604,0.0012630836245651452,Null
-0.9928733424097368,-1.01220703125,-0.94067382812,0.00029385644876942776,0.17431319387013158,0.12231445312,0.2578125,0.0017964831884265038,0.0186494526075,-0.03894042968,0.08337402343,0.00034263475674963813,1.0093483980910525,0.96496987387,1.02752469286,0.00014910039869317032,971.9454201039478,971.89824028128,971.98182683945,0.0005315757563862532,0.0007583884155492993,Null
-1.004060967020465,-1.01037597656,-0.99230957031,1.792536918197123e-05,0.15713997773883723,0.12548828125,0.20727539062,0.00046711208762395827,-0.01873779296488372,-0.04309082031,-0.00744628906,6.157256225044699e-05,1.0167045326881394,1.00173420587,1.02984845404,3.5057931729904554e-05,971.9293137817319,971.85594788815,972.04555069628,0.002664809407798818,-0.0008776548407503983,Null
-0.9921208017839176,-1.01635742187,-0.95153808593,0.00023828106019579943,0.18328794498567008,0.12438964843,0.29541015625,0.0013717022177693198,-0.003261920102268041,-0.04809570312,0.08215332031,0.0011522024068648326,1.0101136917579383,0.96450561127,1.05203757642,0.0003160942027069285,971.9338750334043,971.7997535839,972.06540442789,0.0028589521013616345,-0.0012451529732140565,Null
-0.9863926679196551,-1.06018066406,-0.94201660156,0.0008418680758920412,0.19092779049528733,0.13305664062,0.29541015625,0.0020389072487685643,0.16634675825965514,-0.07250976562,0.26953125,0.01591629167819478,1.027059312199885,0.98761497624,1.08384061667,0.0008349354371730936,971.96254161379,971.7997535839,972.1806326177,0.008384711614882922,0.0025665817252457364,Null
-0.9906127929646249,-1.01831054687,-0.96691894531,0.00021415745156226976,0.12992095946874999,0.03967285156,0.21411132812,0.0021986861748800645,-0.00503387450975,-0.1142578125,0.185546875,0.011958525996428257,1.0059669763580001,0.97299787351,1.0467401745,0.0004462492814522085,971.856147190186,971.77191796754,971.93193055714,0.0024988747585522747,-0.0015242981013972856,Null
-1.002189636226771,-1.0380859375,-0.93286132812,0.0005540398586970387,0.10711161295229166,0.02587890625,0.21411132812,0.002918368551824727,0.03484471639041667,-0.06652832031,0.19421386718,0.008663672167459554,1.014072043814375,0.93649340473,1.06979639599,0.0007464473680389874,971.8777129980072,971.78644857262,971.94536760734,0.002069424520935327,0.0005843311783570298,Null
-1.0066403624794622,-1.01281738281,-0.99255371093,2.1854865746865505e-05,0.10460113196913981,0.08850097656,0.13220214843,8.013665103360163e-05,0.025748960430322584,-0.00427246093,0.05224609375,0.00014143268906354565,1.0124958641280646,0.9981376099,1.01960238212,2.239784536409438e-05,971.8707314015053,971.86199942251,971.88250398443,3.218180844082918e-05,-0.00011033480095028439,Null
-1.0060875302233334,-1.10546875,-0.96142578125,0.0009356201340760081,0.09636869884333332,0.0166015625,0.17004394531,0.0015305863822621722,0.04315040224773809,0.00476074218,0.23352050781,0.0017575364852629677,1.0131214099840475,0.96317892033,1.12464328249,0.0011329583772983491,971.8406907501386,971.73697245824,971.99377427222,0.003792366409488258,-0.0008629941398694672,Null
-1.0033085810625972,-1.09289550781,-0.91882324218,0.0016436771281362554,0.09283209465935065,0.00756835937,0.19421386718,0.003055120616471288,0.06135697798285714,-0.09509277343,0.244140625,0.012797161900582263,1.017033667488312,0.93766656031,1.12464328249,0.0019471313860306113,971.89645935283,971.51327387546,972.05642455498,0.02271630770677453,-0.002609300208331371,Null
-1.0043850192736363,-1.01306152343,-0.99365234375,2.2333219735802986e-05,0.10499949269207791,0.06469726562,0.18579101562,0.001391199099763959,-0.03383250050233766,-0.07495117187,-0.00805664062,0.00020956799581491815,1.0111855553255846,0.9982458241,1.03123783335,6.54421855369884e-05,971.8381374012616,971.57459937603,972.0855199176,0.016722351920945913,0.0028606818067548334,Null
-1.0077355956996,-1.0224609375,-0.99829101562,3.216442887181165e-05,0.09535278319889999,0.07202148437,0.13159179687,0.00025146888208878854,-0.027828369137200007,-0.04150390625,-0.00512695312,8.48449405505665e-05,1.0127798984283998,1.00356176974,1.03093267384,3.96697357512572e-05,971.9814412625065,971.91899248705,972.04591129023,0.001694819420030016,0.0011393481992593257,Null
-1.0042209201345553,-1.056640625,-0.92541503906,0.0006984321514479438,0.07880588107400001,-0.02307128906,0.15673828125,0.002318394310532708,0.03273518879922222,-0.00964355468,0.10229492187,0.0007353613382974035,1.009334300632889,0.92798659259,1.0575016272,0.0007042068229870614,971.9648298422609,971.92701521158,972.03150012472,0.0006632221886128652,-0.00039614941305885783,Null
-1.0067912776264634,-1.17358398437,-0.92724609375,0.003107676723899107,0.12449385479829267,-0.04138183593,0.31518554687,0.0087283184210136,0.06881043968743902,-0.00122070312,0.19177246093,0.0032118859441243514,1.0221921323803658,0.93403354963,1.20700468879,0.0038974175228108977,971.9953469789733,971.93364300146,972.13310780713,0.003072544344562316,0.00035858044219059994,Null
-0.9961533979889773,-1.02575683593,-0.96789550781,0.00016495859289324265,0.1504391756896591,0.12890625,0.19946289062,0.00027865943541112843,0.1173511851880682,0.04846191406,0.19177246093,0.0007626085056693645,1.014780737676932,0.98373480823,1.04420638499,0.0001389918788378189,971.9455531069034,971.90877027634,972.01553761017,0.000607857618772989,-0.00019655215463993498,Null
-0.998957997741031,-1.00744628906,-0.98620605468,3.355929685714119e-05,0.15006216776319586,0.13720703125,0.15747070312,3.482257352523187e-05,0.08330480830793817,0.07446289062,0.09558105468,3.5164538528965166e-05,1.0136302471830927,1.00160774985,1.02261298214,3.1956900712832055e-05,971.9221460430285,971.90131097323,971.96348089188,0.00020888337487521308,-0.0003416309278292773,Null
-0.9920895598616276,-1.05920410156,-0.89367675781,0.001464055853681855,0.16537120730011629,0.10754394531,0.3037109375,0.0025412091968119613,0.030025038606860472,-0.13635253906,0.07995605468,0.0037382982922685676,1.0093823944543021,0.91850979869,1.10508797628,0.0013067321671907262,971.9032172669006,971.85395179598,971.97964127121,0.000533765140462199,-9.62470739849013e-05,Null
-1.0075853565025317,-1.17639160156,-0.82604980468,0.011265158551851033,0.25998040693886076,0.18090820312,0.30737304687,0.001472489274108224,0.04814051374392404,-0.1083984375,0.13525390625,0.0036711632353246225,1.0443049125326587,0.8537399294,1.20853748597,0.010901924998792589,971.9414628900779,971.77903823809,972.13246702107,0.011456833149418604,-0.0004899769040292249,Null
-0.9778548177053333,-1.13696289062,-0.78918457031,0.006036816454117419,0.23444986978786672,0.14721679687,0.36437988281,0.00359478306666083,0.05207194010293333,-0.09790039062,0.20861816406,0.00810245612660406,1.012630207047733,0.83908068567,1.159706144,0.006036423893678585,971.9168585259652,971.63663874055,972.15244849956,0.02150305324933845,0.0034883917280888396,Lift Down
-0.9763774256517203,-1.0693359375,-0.85583496093,0.0033043382002989692,0.20806294102365594,0.10900878906,0.36364746093,0.006454962594396963,0.04933872017720431,-0.24060058593,0.25354003906,0.021386558576615377,1.013217475117097,0.88653389436,1.10436095546,0.0032738828732400784,971.8511044154402,971.62890017543,972.00346067142,0.008902355222491462,-0.0011085031032758983,Lift Down
-0.9544073807530525,-1.00170898437,-0.90466308593,0.0005431190684223031,0.3120785361812631,0.24987792968,0.40588378906,0.0013043806807952656,0.1486906352753684,0.0,0.21716308593,0.003927469013250343,1.017630157692526,0.9763364225,1.0721313726,0.0005441357154097582,971.8726954229064,971.73018902754,971.92506460716,0.0012447761032341863,0.00010604992865835855,Lift Down
-0.9535515280302354,-1.00317382812,-0.92309570312,0.00048561948517251876,0.30936638326811766,0.23718261718,0.36291503906,0.0010819291033623442,0.20734145220188246,0.13464355468,0.27465820312,0.0013516086031297265,1.0249668503394116,1.00809949292,1.06815740709,0.0002897319856812317,971.948454116532,971.75598175257,972.10387286008,0.009045769587327265,-0.0013207812398186537,Lift Down
-0.955743408200125,-0.96362304687,-0.94555664062,1.6303341603924333e-05,0.234635925288875,0.21618652343,0.30358886718,0.0002544853293893856,0.24209442138262505,0.20825195312,0.25708007812,0.00010670749588400987,1.013638598442625,1.00257304832,1.02018045531,1.89952702265847e-05,971.8379847587537,971.77496081282,971.8996248392,0.0017718391840568423,0.0014264423769733353,Lift Down
-0.9566955566360575,-0.96398925781,-0.95043945312,1.6932854951730376e-05,0.22851445124288464,0.21496582031,0.24597167968,5.460465278620306e-05,0.24642592209596156,0.23913574218,0.25439453125,1.7839860209996865e-05,1.0140441861439422,1.00813765788,1.02048896151,1.4018912073625632e-05,971.8990953070399,971.88773535624,971.91220393001,3.124555248738225e-05,3.17299112556882e-05,Lift Down
-0.950450303815,-0.95727539062,-0.94213867187,1.4962321064728204e-05,0.23452826605522226,0.22314453125,0.24523925781,4.7251937465041825e-05,0.26980116102099994,0.24951171875,0.29296875,0.00019111777106852853,1.0155682050475554,1.0058771817,1.02366078831,2.395842255108214e-05,971.9029633804277,971.89473415453,971.91311916862,1.8845459703269656e-05,-0.00010606444815566967,Lift Down
-0.9442289375920988,-0.95727539062,-0.93957519531,1.1124604460559892e-05,0.24253562644259258,0.23522949218,0.25561523437,2.5685172943460255e-05,0.27225597993444445,0.2568359375,0.28625488281,6.669790563789207e-05,1.0122267058143208,1.00456603518,1.02352614419,1.4641903645540929e-05,971.8849938938969,971.83298283822,971.8996310196,0.00024990013801626183,-0.0004987706536773401,Lift Down
-0.9602452328294736,-1.00793457031,-0.93884277343,0.0002597520304342778,0.24271272357749996,0.20544433593,0.25415039062,0.00012533983379207363,0.240660014900921,0.20922851562,0.26599121093,0.00018085141713784615,1.0194693013944736,0.99807872833,1.05093347233,0.00014030238728819058,971.8671310169528,971.83201539033,971.91222167215,0.0005384436751930972,0.0007988295999420667,Lift Down
-0.915598276495946,-0.9423828125,-0.90283203125,0.00010159979404979102,0.2387068464906756,0.23181152343,0.25012207031,8.70074444124224e-06,0.21289887299135132,0.20422363281,0.23156738281,2.2865456696717853e-05,0.9698746868814865,0.9583768921,0.99903390082,0.00010294191016679346,971.9047025312549,971.88569457795,971.94391181038,0.00022505738044748536,0.00040236496701293874,Lift Down
-0.9563790115617646,-0.96813964843,-0.9423828125,2.2262185829532786e-05,0.2533545400538235,0.23937988281,0.27392578125,6.959985105638272e-05,0.2164270737556862,0.20581054687,0.22802734375,2.487445110522769e-05,1.0128017517693138,0.99618722065,1.0292893252,3.859700497169079e-05,972.0204169597547,971.94391181038,972.10612368676,0.0023607050732907075,0.001634399665068993,Lift Down
-0.9556382920969999,-0.96130371093,-0.94812011718,1.0915316373513631e-05,0.2516669379297778,0.24450683593,0.27172851562,3.510116229129936e-05,0.22233886718399998,0.21130371093,0.23852539062,4.902240935350326e-05,1.012964899204,1.00637330194,1.01841431306,1.15894838846184e-05,972.2002794611913,972.10612368676,972.27647683836,0.003074419000575219,0.0021047146029400166,Lift Down
-0.9603971155639024,-0.96459960937,-0.95178222656,1.1633218982101527e-05,0.24677258002743901,0.23388671875,0.263671875,5.7893806612154066e-05,0.2328535870770732,0.220703125,0.25183105468,5.964040574655406e-05,1.018625614470488,1.01334349324,1.02492261832,9.686745068142799e-06,972.414342218431,972.27647683836,972.55691903456,0.0060304515931470124,0.003188973117162916,Lift Down
-0.9599256727384444,-0.97912597656,-0.95104980468,3.413747015121585e-05,0.24322374131444444,0.2294921875,0.25671386718,5.024679738961475e-05,0.22709418402333334,0.20812988281,0.23876953125,5.869929412326847e-05,1.016021075083889,1.00770318377,1.03296794269,2.985438614332996e-05,972.6711897554299,972.55691903456,972.7531894948,0.0027797448063963,0.0019203246908728793,Lift Down
-0.9499664306608334,-0.95947265625,-0.93786621093,3.298309289631573e-05,0.26973724364895835,0.23767089843,0.32495117187,0.0005637759636637184,0.22756958007364583,0.20495605468,0.24963378906,0.00011162632391936292,1.0137378758617708,1.0059117572,1.02333124351,1.9037484861513587e-05,972.8760214464091,972.7531894948,973.01259828389,0.005726420401836749,0.0027027646225791214,Lift Down
-0.9445374954540696,-0.95104980468,-0.93957519531,1.1645614201399819e-05,0.3061154387690698,0.287109375,0.32092285156,5.632851746332831e-05,0.2161496184559303,0.20483398437,0.22546386718,3.6382699627730795e-05,1.0162043894472093,1.00973152088,1.02429010824,1.0301766557726034e-05,973.1130556525462,973.01259828389,973.23368363875,0.004177618405642336,0.002563921042805638,Lift Down
-0.944088666862692,-0.94787597656,-0.93676757812,7.466826487017417e-06,0.30532132661910266,0.298828125,0.31567382812,1.1922499449749621e-05,0.22010842347448717,0.20617675781,0.23083496093,3.199196441910527e-05,1.0163744297246156,1.01025737247,1.02068072592,6.06032799654925e-06,973.3412837022382,973.23368363875,973.45427753926,0.003961291234988311,0.0027648300618670135,Lift Down
-0.9420312499963999,-0.95080566406,-0.93493652343,2.0863623234442302e-05,0.30811360676666666,0.30114746093,0.31506347656,1.4784099822305216e-05,0.22384602864199996,0.21484375,0.23571777343,3.489976530249134e-05,1.0161250922226666,1.00726396581,1.02469572226,2.3634118489087554e-05,973.5562355593858,973.45427753926,973.65804640572,0.004236688997674062,0.002964019658637639,Lift Down
-0.9452049618641665,-0.95239257812,-0.93737792968,1.327690043252933e-05,0.3069428943419048,0.29931640625,0.31408691406,1.9072939185978015e-05,0.21826462518238093,0.21008300781,0.22900390625,2.6386177751747957e-05,1.0175001688234524,1.00761356164,1.02299615938,1.7457982156232956e-05,973.7776426672647,973.65804640572,973.87497037372,0.00391144810499485,0.0025503748211740634,Lift Down
-0.9402827048747958,-0.955078125,-0.92126464843,5.424390110884557e-05,0.31298703563163266,0.29663085937,0.33959960937,0.0001078486119562349,0.2279563436660204,0.19348144531,0.25561523437,0.00034775651712853217,1.0171145845649998,1.00355361058,1.02963084208,3.951575557300495e-05,973.9891577331761,973.87497037372,974.08192588219,0.003049472956237418,0.0017998576832664156,Lift Down
-0.9559506502970454,-0.99560546875,-0.93505859375,0.0004039483987869941,0.29779746315386363,0.27209472656,0.310546875,9.075932734889578e-05,0.24771673028727273,0.22888183593,0.26147460937,6.806547583871123e-05,1.03156395047375,1.01224769845,1.07088672242,0.00032443421856250156,974.195407854114,974.07597311462,974.31069542625,0.006022549051788331,0.0029942430329433323,Lift Down
-0.9589462280240001,-0.99536132812,-0.85827636718,0.0013650333557012613,0.31879119872625,0.27770996093,0.37719726562,0.0007602436421407157,0.275700378413875,0.23034667968,0.39172363281,0.0024881728629594043,1.049495750015375,1.00360543015,1.06802281268,0.00033503566987905866,974.4355156000241,974.31069542625,974.60092402183,0.003353347018369962,0.0019978420595119757,Lift Down
-0.9588051653885105,-0.994140625,-0.79736328125,0.0020293271996915667,0.24220308344085112,0.19641113281,0.37719726562,0.001732996789961547,0.14284953664819153,0.04113769531,0.38159179687,0.010740618280776857,1.0062373878356383,0.95840461438,1.02532443604,0.00021290888435768077,974.5823854893326,974.37489778458,974.7927292809,0.017998150548139105,-0.002002033764133102,Lift Down
-0.9807726271564892,-0.98999023437,-0.96997070312,3.35227240427188e-05,0.22915844206755323,0.20959472656,0.25,8.705712633255622e-05,0.07619265292223404,0.0400390625,0.10375976562,0.0003381777316772815,1.0102750118618085,0.99984946458,1.01870643019,3.24812459210265e-05,974.5014837352562,974.38609443436,974.75540804253,0.008504423873217204,0.0027185457938833507,Lift Down
-0.979848345584588,-0.98950195312,-0.96594238281,5.771794905416813e-05,0.2509607651608235,0.22985839843,0.28210449218,0.00015466475351372968,0.06813246782717648,0.03186035156,0.0869140625,0.00018704333225949,1.0139376674383531,1.0005430967,1.0269398421,5.186277262222127e-05,974.54457505166,974.22076008425,974.87598321278,0.019692102804533214,-0.001043958577325143,Lift Down
-0.9865009258276622,-0.99743652343,-0.97521972656,2.8336264044113954e-05,0.2008912718111688,0.17980957031,0.22985839843,0.00013512453944605207,0.07680917714584416,0.01977539062,0.10400390625,0.0005512051767799504,1.009998958094156,0.99300234667,1.01873240835,4.915709794127645e-05,974.3811787380258,974.18029024407,974.87598321278,0.0112037099234302,0.002381790889455146,Lift Down
-0.9874135610186487,-0.99951171875,-0.97375488281,5.051108565505389e-05,0.21320899756716216,0.1884765625,0.24462890625,0.0002928126420105456,0.09607923352675675,0.06665039062,0.11047363281,0.00010620925392018166,1.0149301440986485,1.00306266935,1.02388219417,3.557783361726609e-05,974.5362674214032,974.487505607,974.59162865419,0.0005821642288535375,-0.0008087074724072312,Lift Down
-0.9885153377715296,-1.01831054687,-0.9375,0.0004415938583241689,0.21834788602611765,0.14868164062,0.30395507812,0.002447128942761689,0.07744140624588233,0.02038574218,0.16467285156,0.0009065487555496505,1.0169087160331765,0.96759836131,1.06941859653,0.0004885762570976083,974.5281492747775,974.46142880948,974.58369967992,0.0017083645233373832,0.0013998804973507008,Lift Down
-0.985081263947653,-1.1484375,-0.8837890625,0.005736053374054105,0.24643504862551024,0.14477539062,0.3212890625,0.003862241788993045,0.10225007971602042,0.00573730468,0.18420410156,0.002511736163108867,1.0238035324357144,0.91459648315,1.18122281971,0.005438691980192785,974.4630475512133,974.31995364006,974.59120750508,0.0064803967452208,-0.0016335704006814633,Lift Down
-0.9863772337428737,-1.22399902343,-0.75183105468,0.021717356893772143,0.25336465067896546,0.15502929687,0.4169921875,0.0039471386827673455,0.04647371138379311,-0.09838867187,0.16223144531,0.0041712296934070785,1.0226490695758619,0.78690682921,1.29010733828,0.023242318792298416,974.4302461771954,974.20264785609,975.03833006461,0.05219594613061407,0.0009985103588114645,Null
-1.0219937548187654,-1.20434570312,-0.86962890625,0.009595616083574503,0.1639148099891358,0.06494140625,0.37451171875,0.0050701512829193305,0.12321867766024693,-0.14538574218,0.35278320312,0.01708551972198393,1.052210627999259,0.87771140366,1.24089198662,0.010868410469076514,974.4162247817592,974.19331020378,974.61895695974,0.01503861939591645,0.002921270110043189,Null
-0.9745371828760214,-1.26147460937,-0.83361816406,0.0053273602141608424,0.25248865927107533,0.17126464843,0.36694335937,0.0037984128984598817,0.11630281837688174,-0.10424804687,0.20690917968,0.0035184105632373418,1.016685172857957,0.85491760127,1.31378556484,0.00592275901363318,974.331935375874,974.15186462119,974.56609636422,0.009772966927148736,-0.0020216370979089923,Null
-0.9868631565776594,-0.99291992187,-0.97985839843,1.0905761352094882e-05,0.19553196683393617,0.18200683593,0.21704101562,6.164100215993823e-05,0.10023271276223403,0.08447265625,0.12280273437,7.508694102699182e-05,1.0110962358726594,1.00632527496,1.01888304964,8.795077094077895e-06,974.3957438684164,974.33633023954,974.41608258575,0.00044777893027920455,0.0006621548020031702,Null
-0.9908921185627059,-1.08605957031,-0.83581542968,0.0038704968258902787,0.19090504365411767,0.06286621093,0.32824707031,0.005822936702391371,0.0688691980687059,-0.17163085937,0.22045898437,0.010780123789557044,1.019561472133882,0.86157067445,1.11817980759,0.003827012922914868,974.4829934349511,974.41514928704,974.60460209645,0.003578952346209782,0.001023051140804668,Null
-0.999930245532727,-1.08605957031,-0.90954589843,0.0011094080886905288,0.13236543729350655,0.00830078125,0.26330566406,0.005523763444200272,0.08821878804454546,-0.0615234375,0.21984863281,0.005997964135726838,1.0180607888214284,0.93889372065,1.11817980759,0.0011985502803260094,974.4378979102361,974.38608287414,974.49158406674,0.0007364397321741297,-0.0004237942102716408,Null
-0.9923844401003998,-1.12915039062,-0.84887695312,0.005198109751304849,0.19123046874666666,0.02270507812,0.32202148437,0.0059891940130228725,0.11680501301653334,-0.0615234375,0.18591308593,0.0035522476777324484,1.0224362418094668,0.88999104105,1.14391539477,0.0042633807987617475,974.3895534435954,974.23131026806,974.5759979157,0.009967975169218705,0.002706843404832127,Null
-0.9815816507667532,-1.24780273437,-0.65563964843,0.03039516782049662,0.21981851156272728,0.15795898437,0.32019042968,0.0015823861312454206,0.1267010577264935,-0.00158691406,0.24047851562,0.005269613837491826,1.0171684721762335,0.69105524108,1.29044400948,0.030402447709338355,974.3698922069337,974.06669130828,974.59318292336,0.013852144961006478,-0.001164105028507546,Null
-1.0056518554657998,-1.32238769531,-0.62475585937,0.0437765797280682,0.1509887695272,-0.02954101562,0.41735839843,0.013473389575886362,0.14542602538599997,0.05310058593,0.23803710937,0.00262738961614836,1.0351057386626001,0.65120712212,1.3493145622,0.04355220899192395,974.3869762375375,974.18569151105,974.56467240842,0.010845911616496421,-0.0013090869189472105,Stairs Up
-0.9962565104129999,-1.23083496093,-0.66394042968,0.028166041615497565,0.24515652126288887,0.10107421875,0.49060058593,0.008472041409875685,0.21445448133299996,0.0791015625,0.38464355468,0.006061279001395998,1.055346219578,0.72781602336,1.26831132817,0.027393128612682133,974.3382134102244,974.16064184787,974.48375772698,0.012308808037532665,0.0008874382109932373,Stairs Up
-0.9581504729819276,-1.30993652343,-0.66149902343,0.040759604449906596,0.22566829818819278,0.10327148437,0.35302734375,0.0062704490120629106,0.19314023672445785,0.0537109375,0.36450195312,0.006307809730607037,1.0093350388896387,0.70383559453,1.34696293563,0.04071016221075514,974.2777001925808,974.04082718331,974.56282420294,0.01581833567718866,-0.0005039421394978891,Stairs Up
-0.981803385412,-1.25866699218,-0.6572265625,0.032280035166001426,0.2338460286416667,0.11499023437,0.34875488281,0.004925698711595055,0.17812906900677777,0.04382324218,0.28332519531,0.004046617950607813,1.0295691395332223,0.72962821703,1.287964544,0.03148300843303237,974.229046445778,974.0065463874,974.56121533623,0.02526053449027231,0.00017027784382802217,Stairs Up
-0.9393945810705102,-1.20227050781,-0.63366699218,0.026973971457448696,0.25739023636428576,0.05285644531,0.36889648437,0.006143074419197284,0.13454141421795918,0.00024414062,0.22094726562,0.004619396437658914,0.9900150804187756,0.68952717802,1.2485972819,0.024282603649931307,974.1503103382707,973.85440776249,974.55900045163,0.03457392495674658,0.0008208718828674009,Stairs Up
-0.9947756649361799,-1.25170898437,-0.63464355468,0.03158811655245677,0.24742417924370785,0.15148925781,0.3515625,0.0030016492865647675,0.08019333742764045,-0.04345703125,0.19018554687,0.005876842330310353,1.0321973414101124,0.66291171946,1.29722136158,0.032170359673498156,974.1096118080219,973.79982192817,974.48507589773,0.03323881694497108,-0.002363154415301739,Stairs Up
-0.9965131710691023,-1.26110839843,-0.685546875,0.02716752212911664,0.21062919420653842,0.02685546875,0.40856933593,0.007106216203216765,0.05786915314384615,-0.09912109375,0.26025390625,0.011986589794832482,1.0294301000579489,0.71223352535,1.2882992074,0.027039573746425166,973.8826865043914,973.68610791666,974.1613485637,0.021765415444081632,-0.0027392646947623053,Stairs Up
-1.008490311468684,-1.28234863281,-0.70532226562,0.03362817660752323,0.23960956773921052,0.1611328125,0.36657714843,0.0029861012962801056,0.15103631270184215,0.0517578125,0.33947753906,0.006410204893549459,1.0527984430202633,0.7482361915,1.31150095246,0.03176924699784139,973.9122148049031,973.69386537805,974.13421754749,0.01559265199144028,0.001469568190376854,Stairs Up
-0.9539074706994001,-1.18444824218,-0.63732910156,0.0239523092587207,0.28633422851150003,0.12145996093,0.47973632812,0.011047240873644016,0.09129150390299999,-0.04663085937,0.3271484375,0.007286328866035109,1.0075964579269,0.68102586453,1.28516850567,0.027144737314451085,973.863911832271,973.57828931637,974.18160229951,0.022317474230210344,0.002637703585793865,Stairs Up
-0.9870130750832222,-1.17822265625,-0.68286132812,0.023405802281764625,0.24711914062144444,0.142578125,0.37573242187,0.003993841972245601,0.1463935004301111,0.03125,0.349609375,0.006054202680151651,1.033475991146111,0.74180976892,1.27877254078,0.021947107007262275,973.8175075355216,973.60291659367,974.11093735454,0.02341722484544419,0.0021266419731769074,Stairs Up
-0.987765024939518,-1.26025390625,-0.75048828125,0.027042410840866664,0.22990104950674692,0.11926269531,0.40014648437,0.009787010504582645,0.15152014306843375,0.02124023437,0.27465820312,0.004250646307394318,1.0317263820367468,0.80223876615,1.28116738239,0.027955200142135386,973.8357593911142,973.65143401343,974.00969659362,0.01105766835138344,-0.0007081511194120904,Stairs Up
-1.0132959539197726,-1.30847167968,-0.7333984375,0.031390162795625634,0.23473150079511365,0.12780761718,0.37512207031,0.005929218702501681,0.16497109152670453,-0.00817871093,0.32299804687,0.00613901870594417,1.0592087965501136,0.77206755217,1.33021348104,0.030470565217644893,973.8742210303866,973.6362994691,974.17728513902,0.024375830662961985,0.0038518793182665844,Stairs Up
-0.9786580403602083,-1.2314453125,-0.68566894531,0.02684994392252482,0.19635264078406248,0.04846191406,0.46704101562,0.018160594758078134,0.08340708414427082,-0.07299804687,0.17395019531,0.0053753176732416336,1.0123575811431251,0.70803034253,1.23866012264,0.026430603682348962,973.8768722348076,973.55603505225,974.28390629322,0.04304368470578295,-0.0033755948058389316,Stairs Up
-1.0122968300965516,-1.24938964843,-0.72106933593,0.024820246828092484,0.22516640849091954,0.06811523437,0.52844238281,0.012309112417589124,0.13674119971000004,0.005859375,0.26171875,0.006359649095768329,1.054607462325632,0.76200897361,1.26664950266,0.025225118412815977,973.7018322970266,973.50817494871,973.92721490162,0.014683852040476541,0.0010473976289566641,Stairs Up
-0.9771774871408858,-1.30700683593,-0.66186523437,0.037143405600655745,0.24203916138924045,0.03881835937,0.44506835937,0.014233367821730031,0.13399920885683544,0.04309082031,0.26428222656,0.0030011186755463967,1.0241360585282275,0.70147161001,1.33393831857,0.03671421992649545,973.7103130861304,973.47775644707,974.0150869319,0.022255111281457778,-0.0019080316520719107,Stairs Up
-0.9996073954775674,-1.25402832031,-0.69372558593,0.030976707914960704,0.1923300253341892,0.02124023437,0.40441894531,0.01699485602480742,0.10854195259418918,0.01770019531,0.17578125,0.0022127764511124604,1.0336953039886487,0.73266058528,1.2640815731,0.029364144111232778,973.6889506920879,973.49164547228,973.91945848742,0.018606118346335306,-0.00045081447082622004,Stairs Up
-0.9973064920136955,-1.26794433593,-0.68041992187,0.03481840229424379,0.19199935249336952,0.0947265625,0.3251953125,0.005544001447558327,0.1489430303118478,0.04846191406,0.22607421875,0.0023883163869925787,1.0302212242143478,0.69826319736,1.29181273721,0.03497848514061878,973.6067054862114,973.34958855832,973.88097876157,0.021917478762218643,0.0005044171890541577,Stairs Up
-0.9642385929136169,-1.24731445312,-0.70935058593,0.026431771348501606,0.28216033285787234,0.16540527343,0.44030761718,0.005826196896315781,0.1576706906551064,0.02746582031,0.29479980468,0.004351511389650153,1.0217025943724467,0.76010456713,1.28091668817,0.026860136063500788,973.5021939590836,973.34221638328,973.82892161596,0.01690553056322174,0.0005565103173440709,Stairs Up
-1.0052731536119766,-1.2685546875,-0.69897460937,0.03179133843642388,0.19545870048709296,0.13049316406,0.279296875,0.002290635536657763,0.1161172556284884,0.00390625,0.23999023437,0.003988968510465282,1.033928642121279,0.72424418251,1.29693530988,0.03124456300361587,973.4241963072327,973.1983939542,973.82892161596,0.014639139609674773,-2.8248868302919436e-06,Stairs Up
-0.9643956437859492,-1.34655761718,-0.65942382812,0.03913051185000137,0.17211914062177217,-0.00915527343,0.3544921875,0.012096805450081507,0.12780761718455694,0.00537109375,0.2978515625,0.005392725651005984,0.9971251370243036,0.7111978159,1.38036041201,0.03814640386413055,973.5171833864232,973.22788757696,974.00794475916,0.04977996958340805,-0.001125459362469747,Stairs Up
-0.9829742739855555,-1.20874023437,-0.7744140625,0.01658628860996671,0.2964249427835354,0.21118164062,0.41931152343,0.0036973736257099473,0.09657857875242426,-0.02282714843,0.20690917968,0.0038296747693315958,1.036186770879596,0.84238721146,1.23109461897,0.013759318711563152,973.4104138400328,973.19481822134,973.75186683985,0.0202697992531569,-0.0008196002674518783,Stairs Up
-0.9824728494121977,-1.18103027343,-0.74438476562,0.015048382039079353,0.24393806876406593,0.15454101562,0.32653808593,0.002772631651728532,0.08721990899351649,-0.03332519531,0.19653320312,0.002970908540381274,1.0200818011315382,0.79496867161,1.19655154715,0.012499914012138302,973.4482933408286,973.26741553875,973.7327369604,0.013737254620350305,0.0004902476047662298,Stairs Up
-1.002847811068049,-1.22875976562,-0.75549316406,0.02207123977700328,0.26228593035036585,0.16882324218,0.40966796875,0.004655985689473098,0.05284900199865853,-0.17907714843,0.15075683593,0.007458117768466507,1.0440617143828046,0.8215641645,1.26603991571,0.0212534319943387,973.3227243614411,973.08257496093,973.62556840933,0.029949131253819313,-0.00460637551804068,Stairs Up
-1.0029104132357893,-1.18078613281,-0.78576660156,0.016871347050695117,0.27053351150973687,0.1826171875,0.36828613281,0.001836514598452716,0.08076236122394735,-0.06994628906,0.25988769531,0.00861858847859573,1.045575572605526,0.83581458284,1.21977470797,0.016617420864982968,973.3412330935979,973.15359429038,973.54128658895,0.011189283884495874,0.0023707839256345343,Stairs Up
-0.9757568359344,-1.24780273437,-0.71350097656,0.029335899933110084,0.2600781249972,0.11145019531,0.39575195312,0.006692654071642425,0.1301513671832,0.03955078125,0.27233886718,0.0043495112172964945,1.0230073696780002,0.74738030079,1.29829997747,0.030382119887568653,973.317102456397,973.06024831973,973.64560635352,0.029204627404831963,-0.000689699283399814,Stairs Up
-0.9862508968393877,-1.25207519531,-0.69604492187,0.026794575043601263,0.2578822544605102,0.13073730468,0.42858886718,0.008009686605246893,0.19137261837989797,0.09265136718,0.31640625,0.003386753054242231,1.0434505393055102,0.7405044043,1.28624167593,0.025085828081976395,973.2746884074961,973.03624901361,973.62118851099,0.01387879065482137,0.0004892708714190921,Stairs Up
-0.9757053249436264,-1.27514648437,-0.66857910156,0.031450511010877806,0.23761724115285712,0.08166503906,0.41247558593,0.00757561034927277,0.10700603107571428,-0.06579589843,0.19641113281,0.005200667174972257,1.016194936007692,0.70059829883,1.3147127255,0.031346220973151526,973.2199744861556,972.91011999777,973.65474465117,0.051260352101483955,-0.00017228164757754458,Stairs Up
-0.9845464797208333,-1.21997070312,-0.65710449218,0.0312771065118705,0.24700055803166665,0.04431152343,0.46899414062,0.010676740625530774,0.08463541666488095,-0.09313964843,0.18017578125,0.0053061413233453265,1.0252077528252377,0.68038390645,1.25576883941,0.033550038470450176,973.0731048526707,972.81894473017,973.29910528682,0.01726517966571801,0.0005238594511025895,Stairs Up
-1.0029877453265852,-1.26379394531,-0.66015625,0.03320864881444758,0.12510569502390242,-0.05187988281,0.25036621093,0.008965740513553637,0.13651182593,-0.04248046875,0.25671386718,0.005545393437763799,1.0264705610570732,0.66999270451,1.28961910599,0.03418423319695223,973.0541988709206,972.7842015906,973.44676036763,0.04437218728217725,-0.0006270038986472481,Stairs Up
-0.9799508759434343,-1.26416015625,-0.70788574218,0.030212825686252845,0.15096398555444446,0.02722167968,0.25134277343,0.0045677093385119135,0.18712515782505051,-0.01477050781,0.39672851562,0.010499278274064881,1.0163987095919191,0.73198053923,1.32815226919,0.03017052626194288,972.9294280321839,972.69216724666,973.27431564266,0.030747628505763583,-0.0030676444066547884,Stairs Up
-0.9758911132763637,-1.26110839843,-0.69421386718,0.02294350389762577,0.20809242941784092,0.04125976562,0.34252929687,0.006160098368505336,0.15908397327454546,0.01818847656,0.25927734375,0.0045527447395150985,1.0156376210657956,0.72832269645,1.30389037879,0.022988984356743146,972.9351389867851,972.75452295244,973.14767315892,0.013787218246897215,0.00012894751494140887,Stairs Up
-0.9502365112255001,-1.21276855468,-0.68518066406,0.021593313029686367,0.29755706786725,0.07263183593,0.52282714843,0.01459111167430491,0.1543319702115,0.03588867187,0.27941894531,0.004432900870060286,1.016518513905875,0.72439351941,1.25243134671,0.022387557294705224,972.8734241089311,972.46764280959,973.49632570732,0.09580650749745466,-0.011038118779235759,Stairs Up
-0.9952929687468001,-1.19006347656,-0.775390625,0.018394781625197285,0.2539501953092,0.16357421875,0.49914550781,0.005522505109335661,0.14428710937199998,0.04016113281,0.21728515625,0.002677936811724293,1.040742381398,0.8212338768,1.26448185239,0.019270420330222065,972.730400010618,972.50720840652,973.23373802245,0.03227159511269954,0.0026908577659499606,Stairs Up
-0.9642480468703999,-1.23193359375,-0.72985839843,0.024287974496267285,0.2861523437448001,0.13513183593,0.38488769531,0.004750868371954883,0.12085937499640001,0.00427246093,0.27172851562,0.006819430541293694,1.0187281133232002,0.78918851658,1.28048470366,0.024159772774504405,972.8203406300759,972.56574432657,973.07336857955,0.025789554953631787,-0.0022676607601090698,Stairs Up
-0.9605440180313831,-1.17529296875,-0.73937988281,0.024752574952058393,0.2685261178492553,0.18505859375,0.37487792968,0.0042457299929202115,0.12743101728319153,0.01037597656,0.26049804687,0.0045427691741075785,1.010338636134149,0.7838003873,1.23883346374,0.02364134893636357,972.7687607779577,972.51562404619,973.12367118442,0.03352050363130943,-0.000533609449530558,Stairs Up
-1.042036340587872,-1.28820800781,-0.79467773437,0.024465890613672017,0.17529037150627658,-0.02331542968,0.42529296875,0.013525677617716943,0.1772902468387234,0.03833007812,0.31799316406,0.005172162559448007,1.079252247348936,0.82466850845,1.34339626225,0.0261960916551254,972.8232900686605,972.52548650521,973.23995289718,0.049005994199635444,0.0018991668536987162,Stairs Up
-0.9600873674624998,-1.31164550781,-0.60205078125,0.03877313217700427,0.27374267577833333,0.07287597656,0.49084472656,0.015200909900434366,0.2190057663651191,0.03649902343,0.3984375,0.011540396249213866,1.0359777623327378,0.71907157545,1.34632244724,0.036586465049259505,972.679490559408,972.48029896061,972.88670514655,0.014970948021993155,-0.000381621423109556,Stairs Up
-0.9874815329497434,-1.25646972656,-0.75061035156,0.022755175305141824,0.22551551231512826,0.00439453125,0.46325683593,0.017639378262441222,0.1909836989148718,0.05810546875,0.32116699218,0.0051331449220345035,1.0445621243698717,0.78837208711,1.27622940732,0.023430194649181904,972.614962744987,972.41115849605,972.87246685866,0.01390730002866441,-0.0007971368486525985,Stairs Up
-0.9876261796068316,-1.24560546875,-0.7119140625,0.03305870345904085,0.19169148359831686,0.00183105468,0.36267089843,0.012339360498480723,0.1615280302410891,0.04736328125,0.25805664062,0.0035796764934060226,1.0260326828836632,0.72361741969,1.29978109978,0.034332067524186334,972.684292163993,972.37440646935,973.01397730684,0.03627317389704174,-0.00030012402589956583,Stairs Up
-0.9984882061256044,-1.28527832031,-0.66369628906,0.041617540772974006,0.18578699132593413,0.01733398437,0.41918945312,0.012190866950511052,0.14527172046362638,0.04748535156,0.26159667968,0.0036782360084467005,1.0324785778861538,0.68372729495,1.33120906323,0.0439249773224559,972.4767562417495,972.17160400092,972.74750047214,0.024568216669299633,-0.000728165554028134,Stairs Up
-0.9836742259802469,-1.37524414062,-0.61352539062,0.0460846840508274,0.17010874806827161,-0.01843261718,0.38684082031,0.013998049901989093,0.13454107590407408,-0.06066894531,0.27612304687,0.009442365711680332,1.0187543046744445,0.62532737026,1.42755965534,0.046027948213922684,972.527576114621,972.04261221062,973.39703152601,0.11879091272528372,-0.0009871178206697793,Stairs Up
-0.9832763671839473,-1.27783203125,-0.64587402343,0.02891211271296344,0.2615163702668421,0.01184082031,0.42175292968,0.01473207972529132,0.16126773231447367,0.04113769531,0.26049804687,0.004860977561846038,1.0395633678530263,0.69733988475,1.33492444204,0.028784195375413414,972.3255863663456,972.03469143746,972.80113521565,0.052423485238027534,-0.005030246056119374,Null
-0.9532685150928376,-1.16369628906,-0.77746582031,0.013797571544024074,0.3307412637205405,0.19812011718,0.4541015625,0.004412836441014103,0.17057511612837836,0.08862304687,0.2451171875,0.002258803106514625,1.0277787425444593,0.88990367155,1.21502189924,0.011221615597778716,972.4761860824483,972.16426924263,972.91179337056,0.040669039131498344,0.00627833015370365,Null
-0.9532497240115217,-1.14697265625,-0.77624511718,0.00896262008364071,0.3408508300744565,0.20336914062,0.46545410156,0.006406669638030047,0.21667613153499996,0.05139160156,0.32995605468,0.006393835601615646,1.0404950009188043,0.86461438942,1.22465429877,0.010827281185084477,972.3507408444419,972.16598698449,972.67847475918,0.01573941216341724,-0.003407112224354171,Null
-0.9556730571517894,-1.11767578125,-0.81823730468,0.0033632317890477824,0.285097142265158,0.13513183593,0.47766113281,0.013665505502827824,0.07880345394631579,-0.5302734375,0.30078125,0.03665226815674167,1.0245642263412629,0.94751529352,1.22155210955,0.004229971396864993,972.2447397183682,972.1083820234,972.48722113907,0.007163301054919223,-0.0015976590676995525,Null
-1.000965073525647,-1.06457519531,-0.96459960937,0.0006432038770989264,0.16028693703658822,0.02185058593,0.31872558593,0.007533736096957906,0.0430620978842353,-0.09875488281,0.24438476562,0.006688816790730909,1.0213916601783533,0.97281143758,1.0976601665,0.0009383057962248882,972.2937953197894,972.08364398734,972.46402509244,0.016153108368660348,0.004784834731264673,Null
-0.9936044427375947,-1.10131835937,-0.88525390625,0.002543837755800246,0.15504474880949368,0.05346679687,0.26770019531,0.004638285731409322,0.06437586530392404,-0.01171875,0.20886230468,0.0029107241206443838,1.011561564980506,0.92368173548,1.11954964158,0.0021686564383536873,972.3716973636065,972.31008207712,972.50458031255,0.002593937562171732,-0.0009168408451549657,Null
-0.9787104442828283,-1.05212402343,-0.83984375,0.0016857750315064247,0.25268308080494956,0.12707519531,0.56323242187,0.014060149685402396,0.14368785511020205,0.06628417968,0.33679199218,0.002895151501634776,1.029616583100606,0.9860767384,1.07654873018,0.0007188077892362737,972.3622865942601,972.25110920251,972.54337732181,0.0055832745472890214,0.0008810980118189527,Null
-0.45881321118913027,-1.21569824218,-0.11743164062,0.0961050620634796,0.5636583411132607,0.29248046875,0.87219238281,0.020797318316565807,0.5606052564514131,-0.00573730468,0.91162109375,0.0789426294909944,1.012384819662609,0.72599765396,1.25397898858,0.011415863988126641,972.1083427044771,971.93966248774,972.54337732181,0.011761770180970434,0.0005472918328085963,Null
-0.05208680687987808,-1.236328125,0.44189453125,0.31503727431699485,0.037259729898292654,-0.61401367187,0.87841796875,0.2730090262298888,-0.505518471320122,-1.00610351562,0.31262207031,0.1746360272293085,0.9624120287407318,0.28834211952,1.50494005414,0.08786619747650731,972.4072660882599,971.98389145083,972.93380634127,0.04525894424442537,-0.001142222628536031,Null
-0.9456465871676314,-1.72998046875,0.47180175781,0.23269845579712112,0.289409436674079,0.00817871093,0.71875,0.03461372099469659,-0.10693841231210525,-0.28942871093,0.36474609375,0.025101382111941326,1.0982095224967106,0.52493473396,1.77738139353,0.07290221026729773,972.2396456726783,971.98389145083,972.48215073251,0.015102485735173454,0.0008945152938318909,Null
-1.0166764322870665,-1.22058105468,-0.80847167968,0.008889476549570218,0.3168310546838667,0.07604980468,0.72985839843,0.029483328542376664,-0.0223470052068,-0.33288574218,0.21862792968,0.023365202921079076,1.0887070088305333,0.94916830988,1.35129267694,0.010281240526581855,972.3776807528709,972.28111523417,972.55723992872,0.005336729861229641,0.0027314067130554147,Null
-1.069040335857157,-1.66979980468,-0.64685058593,0.07111256501331381,0.278083352477647,-0.04089355468,0.5302734375,0.02243263291337937,-0.07424627565794117,-0.28686523437,0.24108886718,0.028196005509294034,1.1295262024202941,0.66168310571,1.73536552032,0.07110543241706505,972.3871559831363,972.31157203561,972.47458444429,0.001598191419440414,-0.00020542729095434276,Null
-0.5342380099812223,-1.51379394531,0.20642089843,0.32164770941430787,0.3973388671844445,-0.26989746093,0.966796875,0.10018438636473612,-0.41355658636977777,-1.18908691406,0.63671875,0.30078508463923986,1.0955918998464445,0.40347135731,1.77557510156,0.13002873010958801,972.5257416879766,972.23309568238,972.82476623315,0.0312446827412509,0.0006288538554415986,Null
-1.144788788582195,-2.37805175781,-0.12426757812,0.18121512988740493,0.19223096893890246,-0.38024902343,0.43078613281,0.04852179927510135,0.03128870522256098,-0.25720214843,0.52587890625,0.06438926299211008,1.2141521796426826,0.30263429033,2.42521236647,0.16688201755444584,972.2361334025292,972.0006937527,972.53966530013,0.01850293239555813,0.0041143687684607865,Null
-0.8717588227335631,-1.55261230468,-0.34362792968,0.0840086128677116,0.031864560884252865,-0.31945800781,0.43029785156,0.0434854583148901,-0.3961195671657471,-0.77819824218,-0.09020996093,0.024310969160953478,0.9968813307119543,0.44553540322,1.65301181824,0.07503980048942731,972.4064052303953,972.03384235356,973.00290678938,0.058716093785182874,-0.007568506879584579,Stairs Down
-1.0854051727574228,-1.72204589843,-0.59033203125,0.12230311991736587,0.19171583037927836,-0.083984375,0.46643066406,0.02381801886475096,-0.1323141510924742,-0.36169433593,0.05981445312,0.012649773517195907,1.1261801278918557,0.6335405706,1.79284638878,0.1224814974065813,972.3170713538096,972.1917500505,972.79135317622,0.014015025906265308,0.0025716436738995618,Stairs Down
-0.9624023437459769,-1.84484863281,-0.47705078125,0.12662141025037765,0.08517701598264368,-0.05834960937,0.52941894531,0.0156542879549199,-0.35741626257,-0.62744140625,0.04016113281,0.03815894484076372,1.055453080378046,0.50464434129,2.01926561301,0.12705971327566637,972.6639479780683,972.21221313905,973.34823979787,0.0975073998009022,-5.645605973625391e-05,Stairs Down
-0.9451255315426579,-1.27600097656,-0.52185058593,0.05020267147138502,0.09854473644860759,-0.14916992187,0.29284667968,0.017578615566867087,-0.35699076591746837,-0.7109375,-0.02587890625,0.03086938110487031,1.0403392206178477,0.68676981296,1.40178961152,0.046095460806106596,972.4756842895772,972.05091904728,973.26609511356,0.11509863645795856,0.009107048711708466,Stairs Down
-0.5421620961743242,-1.11572265625,-0.09387207031,0.0898827811696712,-0.21018033413891896,-0.48803710937,0.11572265625,0.015218508561713688,-0.7834192224408109,-1.39196777343,-0.44189453125,0.055622795896275064,1.0417093697575674,0.76603102136,1.42999470125,0.025600874730014808,972.6710297504453,972.34275711686,973.53905218329,0.1278533965372991,0.002660739356581088,Stairs Down
-1.0355373475570733,-1.44543457031,-0.55017089843,0.06411184403248979,0.29371308117134143,-0.04113769531,0.658203125,0.03309850178031104,-0.15135676685987806,-0.52600097656,0.318359375,0.0347962457457599,1.1185335142441462,0.62165018263,1.49175192682,0.0615439112018761,972.4268710972018,972.09289014044,972.93977112202,0.05353942372355422,0.00851335061801412,Stairs Down
-1.1984688895059181,-1.62060546875,-0.75134277343,0.049719238097074216,0.23250283999887755,-0.11328125,0.49060058593,0.023214306395750957,0.09583889708051022,-0.32006835937,0.65368652343,0.062016537778467086,1.256768136114796,0.75725577246,1.76084162917,0.05423061014913914,972.6699822875249,972.56360989523,972.93977112202,0.006549280493562439,0.0007455632092413161,Stairs Down
-1.1312644264892047,-1.615234375,-0.66552734375,0.0917203185015228,0.26215986771784094,-0.12915039062,0.61450195312,0.05493792803420675,-0.01610495827465909,-0.21838378906,0.19201660156,0.010394557041035025,1.1887201760864772,0.6851683547,1.64108849744,0.08010582003038545,972.7357939327408,972.62100331065,972.94599570768,0.0027429697289980464,-0.0007005825863928319,Stairs Down
-1.189255702639506,-1.77124023437,-0.67749023437,0.1108735682698336,0.17420488522172842,-0.12878417968,0.50708007812,0.03318397819816064,0.07361141251827161,-0.14929199218,0.28198242187,0.016756293540187542,1.2257030709769134,0.6932095003,1.80679263738,0.10790776877987904,972.7382195062781,972.68189546519,972.83474309886,0.0017716946998295358,-4.037034229124873e-05,Stairs Down
-1.107971191402766,-1.55065917968,-0.74243164062,0.07625736336254321,0.23946948761372336,-0.07946777343,0.51416015625,0.033304577929066576,0.060724785985957444,-0.13513183593,0.16906738281,0.007229127122072732,1.1544845556142556,0.75495266807,1.59597394085,0.0721144926484006,972.744437979541,972.68189546519,972.82712032553,0.0007820223702773795,0.0002556016510094673,Stairs Down
-0.9332236431972339,-1.501953125,-0.32995605468,0.10415272957941193,0.33332337724042554,-0.1904296875,0.83093261718,0.05356473384614858,-0.2104544132288298,-0.61779785156,0.04772949218,0.04465209665891466,1.0717682315704258,0.49989751421,1.54686699007,0.07734764722597846,972.8476965249763,972.67311705022,973.38096807946,0.023924018044765863,0.004439058126270233,Stairs Down
-0.8540408112244186,-1.32482910156,-0.38793945312,0.058164970689102376,0.08541515261546513,-0.41882324218,0.62976074218,0.10309268328880326,-0.3539457099352325,-0.75170898437,0.10046386718,0.05374883964653807,1.0121308748052322,0.55435075074,1.3908908622,0.050645431870320494,972.8865175616434,972.43903332304,973.69605408693,0.13460428894759988,-0.01108841616177861,Stairs Down
-0.9509825095114101,-1.19787597656,-0.56115722656,0.034568923497779847,0.3146910056058974,-0.0009765625,0.54162597656,0.021343207938845202,-0.07322027744179486,-0.3310546875,0.12268066406,0.016169747262157117,1.02274834742,0.64100915741,1.23152347954,0.03434323927166491,972.8097721678953,972.66122067327,972.93818619703,0.007261343728515142,0.00300350283826627,Stairs Down
-1.1421332108306579,-1.9443359375,-0.62231445312,0.1378942571893506,0.24460963198776317,-0.12963867187,0.49438476562,0.027557315449235068,0.04405935187052632,-0.15087890625,0.27490234375,0.013486548795078912,1.1901700054067108,0.67371021289,1.96341902799,0.12800669920273758,973.0391282051967,972.91668483296,973.19983672481,0.006100225792001743,0.0021059653430448625,Stairs Down
-1.1710179379077894,-1.84008789062,-0.47448730468,0.14508490041830388,0.1893426192428421,-0.50427246093,0.84973144531,0.12597951358546766,0.06935521175873685,-0.14074707031,0.37841796875,0.015658039461606144,1.2538225067137894,0.541025141,1.90771285975,0.12489187915389109,973.1790126672071,973.03170420163,973.28741565678,0.005029337915247861,1.0977366390138633e-06,Stairs Down
-1.1642676284604123,-1.76794433593,-0.67297363281,0.10746271987321461,0.28314397752670106,-0.119140625,0.60876464843,0.06250403141886507,0.051410478413505156,-0.12866210937,0.20361328125,0.009777150532373343,1.230475462149794,0.6800600434,1.78491473911,0.10321776965226927,973.1918387929518,973.07657620211,973.27018579074,0.002441445233871914,0.0010422664656996967,Stairs Down
-1.1116845141840228,-1.53698730468,-0.74938964843,0.06288927004012385,0.29222229705287356,-0.07360839843,0.560546875,0.03734189598471419,-0.02053587464091954,-0.12060546875,0.12170410156,0.004733287213946816,1.1698143355857475,0.75989626469,1.57055697269,0.05761265203904646,973.2416129929167,973.19300340284,973.31547536083,0.0012126656623179972,-0.00011739632300860501,Stairs Down
-1.137771234275488,-1.62341308593,-0.67822265625,0.07985575281552479,0.19564893768768296,-0.14233398437,0.5146484375,0.031097299360509482,0.010901474370365854,-0.15002441406,0.15295410156,0.009132009114428304,1.174146976672927,0.69756870468,1.6315991123,0.0738204665922982,973.2541025569346,973.19523734042,973.31706267625,0.001157389008540231,-0.000171565647315603,Stairs Down
-0.9594939889215534,-1.61926269531,-0.38940429687,0.10889978573211617,0.045312974058543704,-0.37658691406,0.62377929687,0.07571482756367531,-0.2733699465230097,-0.76989746093,0.10278320312,0.053582953099420634,1.068545223945534,0.48689801939,1.63367024848,0.09240632993995057,973.548766199562,973.20790156653,974.03944604714,0.07101703085137032,0.007424264021918125,Stairs Down
-0.4855638586922824,-1.09460449218,0.16735839843,0.08847394646704856,-0.31689055069391303,-0.91748046875,0.04650878906,0.06906632324181804,-0.7750549316370652,-0.99108886718,-0.42944335937,0.022391678745095317,1.040391848600326,0.76088964871,1.52417170609,0.0328197330409195,973.3159548833489,973.06902878424,973.86992238177,0.066586931081148,-0.005924239932966768,Stairs Down
-0.9153799661740244,-1.17260742187,-0.607421875,0.03406309556746548,-0.07376024199560975,-0.28198242187,0.07971191406,0.013049665998235678,-0.44757080077817074,-0.73132324218,-0.29833984375,0.01599901519061815,1.0405363378707317,0.75221640201,1.34115117513,0.023594667845565024,973.4360514631832,973.19822840345,973.8101058935,0.03368333434121628,0.006085952791910625,Stairs Down
-0.8826761617248049,-1.09326171875,-0.56787109375,0.026968423070793775,-0.14297128652272723,-0.30700683593,0.05651855468,0.008768323072651905,-0.5021719003610389,-0.72155761718,-0.37622070312,0.008398105571708999,1.0380469200015585,0.74629944567,1.24205710968,0.017988493255919377,973.5884263987914,973.26327152199,973.82093516913,0.026087798198915102,-0.0011385041592810138,Stairs Down
-0.6536800986802631,-1.42700195312,-0.0888671875,0.09810364083164012,-0.11948113692249995,-0.63830566406,0.3505859375,0.09180099738139101,-0.6325442665461841,-1.23193359375,-0.05529785156,0.08775186777882131,1.0370958961786843,0.7322414939,1.4797889437,0.04065584095434709,973.5365040892111,973.35867173539,974.05066841334,0.031036573556946483,-0.003208834222906864,Stairs Down
-1.0804036458310418,-1.59106445312,-0.35693359375,0.11672029422040871,0.2171020507777083,-0.01953125,0.59118652343,0.020566690908894576,-0.19817352294729165,-0.39111328125,0.01184082031,0.010243854024693397,1.1404898635285414,0.45690006427,1.60137386606,0.09999664606852987,973.6842133657741,973.47883645538,973.84615213208,0.007440412941289841,0.0014791884220197312,Stairs Down
-1.1078932741815957,-1.68041992187,-0.6630859375,0.08028786496528893,0.28033706989553187,-0.16333007812,0.72155761718,0.08131572883798331,0.01452376994606383,-0.16333007812,0.20556640625,0.011882387494761741,1.186044562571915,0.67484183975,1.70329767191,0.07193122678949462,973.7511243226146,973.65588326742,973.82360347515,0.00243608464126792,0.0014479139415789208,Stairs Down
-1.2461540670921176,-1.83178710937,-0.60461425781,0.16111730593397322,0.14812729779329412,-0.24597167968,0.65356445312,0.06436567879434708,0.06528751148823529,-0.13610839843,0.26928710937,0.015387780199644527,1.2912398600840003,0.63796090733,1.86442444877,0.15162454759703176,973.7958747451379,973.74451427004,973.92501332368,0.002316457365194793,0.00040742037915660783,Stairs Down
-1.1367311115465824,-1.87316894531,-0.52807617187,0.12463994767295908,0.2364069298820253,-0.24645996093,0.57446289062,0.06636778400318044,0.04702179341316455,-0.10717773437,0.22106933593,0.008969530225552243,1.1949995428670888,0.54737064516,1.88349332806,0.12121324711177206,973.7691956263926,973.71001737964,973.88440876629,0.0020410299298622412,-0.0009985823829216397,Stairs Down
-1.0175309889347524,-1.66040039062,-0.39099121093,0.11125191866444524,0.24633909923900993,-0.19848632812,0.5986328125,0.02731743171661187,-0.026205232826138628,-0.14599609375,0.18103027343,0.007195577951367832,1.0655851873918816,0.48990673347,1.67991803383,0.10664478810617485,973.870104936524,973.8032611493,974.00764879511,0.002471664661460419,0.00022695567250489914,Stairs Down
-0.9787502712624445,-1.33642578125,-0.48999023437,0.047051703068930965,0.2917005750828889,0.119140625,0.48962402343,0.011001758593758506,-0.08137478298455555,-0.24328613281,0.05151367187,0.00962701927948737,1.0399598589381112,0.61012708274,1.34233047114,0.03546924442281151,973.9651368771712,973.87008697567,974.05429723461,0.0022167739268216945,0.00041065026649993684,Stairs Down
-0.9640443383149998,-1.2919921875,-0.51220703125,0.046367782189192304,0.24696759479487804,0.10693359375,0.40075683593,0.005532169956153915,-0.06868390339012195,-0.25915527343,0.05114746093,0.009430853753244917,1.0061412277443902,0.55917510877,1.33429686989,0.043889899452080834,974.0720659382446,973.98757764318,974.12435478065,0.0015750625673487644,0.0004474503789539601,Stairs Down
-0.9776274028530261,-1.39685058593,-0.20727539062,0.09301635567289608,0.2825108578307895,-0.18029785156,0.68493652343,0.03970746015959622,-0.05534121864552632,-0.40112304687,0.13952636718,0.022182866216543747,1.0590007959319738,0.54376350528,1.41812001622,0.07094967285807882,974.2028682963081,974.08143619604,974.31418745055,0.005181451518425068,0.002113988223655507,Stairs Down
-1.3119108072882666,-2.17529296875,-0.58117675781,0.14259299932827094,0.20397623697653333,-0.24890136718,0.75964355468,0.05553705264186647,0.05746744791466668,-0.16821289062,0.44165039062,0.02237496044665019,1.3545251485237335,0.59514447892,2.24119154977,0.15085677030410977,974.3391987059007,974.21759045141,974.51843815851,0.008097727594860209,5.748836382557425e-05,Null
-1.1960243753826731,-1.75451660156,-0.76196289062,0.09450282009499274,0.1990483350089109,-0.12561035156,0.56591796875,0.0627011949046626,0.07643777072871287,-0.17236328125,0.28564453125,0.015479196427441803,1.249224770318317,0.77458835482,1.77403583179,0.0872117111444043,974.3271357371124,974.2456792823,974.4149491434,0.0020344650728233867,0.00032883989220425355,Null
-1.1340684678776667,-1.65588378906,-0.77868652343,0.0684326995101046,0.28087293836555555,-0.04602050781,0.54772949218,0.03153055626437096,0.16884629991177777,-0.16467285156,0.57263183593,0.044835880529737374,1.214282298092889,0.80032471459,1.74726247397,0.0629178147158723,974.3912924212481,974.30150296962,974.68854768722,0.011395756471455645,0.0020453041518639133,Null
