avg_accX,min_accX,max_accX,var_accX,std_accX,avg_accY,min_accY,max_accY,var_accY,std_accY,avg_accZ,min_accZ,max_accZ,var_accZ,std_accZ,avg_magnitude,min_magnitude,max_magnitude,var_magnitude,std_magnitude,avg_pressure,min_pressure,max_pressure,var_pressure,range_pressure,std_pressure,slope_pressure,kurtosis_pressure,Pressure_below_avg,Pressure_above_avg,skew_pressure,Label
0.4670935058559,0.19348144531,0.67126464843,0.0193031246803223,0.1385879109335326,0.60278503417675,0.09826660156,1.00439453125,0.0656893629941001,0.2556578107141058,0.4853778076146,-0.20373535156,0.97839355468,0.1321528800875042,0.3626184160892365,1.011837935236,0.77734890653,1.3999670657,0.0094084326693743,0.0967542790062926,969.8653206787244,969.79179077769,969.97267670656,0.0019610667877178,0.1808859288699977,0.0441730851738841,-0.0002595145743803,0.2883421750990216,0.52,0.48,0.6277634949320414,lift down
0.37761962890275,0.25109863281,0.47497558593,0.0024048106214857,0.0489161176748355,0.91997436523,0.56103515625,1.00439453125,0.0037470477175024,0.0610599089330712,-0.24468383788755,-0.62512207031,0.02685546875,0.018906615449786,0.1371571448103855,1.035600468589,0.90007678869,1.1698669013,0.001290902728386,0.0358391994155017,969.876423582512,969.81456467063,970.00186881124,0.0014718866230619,0.1873041406099673,0.038269141484316,0.0001777529047582,1.0610648035610728,0.42,0.57,0.6794707981117737,lift down
0.4083532714802,0.35656738281,0.55310058593,0.0016093057469301,0.0400157371317273,0.8015484619101,0.51354980468,0.95678710937,0.0085437882452529,0.0922012435058587,0.3678771972628999,-0.32202148437,0.64990234375,0.0672849844660857,0.2587441971209312,1.0093700340876,0.80635212502,1.08242458121,0.0028030007438059,0.0528108486969004,969.85725342153,969.79472951665,969.8962837584,0.0007324323165233,0.1015542417500228,0.0269957432744639,0.0002597047447555,0.4087975519111939,0.29,0.7,-1.2050257126201374,lift down
0.49788940429335,0.43615722656,0.57104492187,0.0007516447608164,0.027347514274836,0.7697888183556,0.68359375,0.86547851562,0.0020335305860283,0.0449818066900189,0.433217163083,0.20617675781,0.52233886718,0.0084609998495994,0.0917534459862488,1.01914850309745,0.93444291604,1.08997754331,0.0006754443389841,0.0259242573141309,969.869312110406,969.84821377527,969.91024133676,0.0002210139081824,0.0620275614900265,0.0148293236070143,-0.0001012582361201,0.9268373422874104,0.56,0.44,0.9890253926761022,lift down
0.51239440917625,0.47888183593,0.57067871093,0.0004103920383865,0.0202074263129817,0.6857159423793,0.62878417968,0.92749023437,0.0016269734273678,0.0402347929065258,0.5051745605433,0.37060546875,0.63928222656,0.0013023705922028,0.0359980379915599,0.9948484108873,0.9302000428,1.25530320187,0.0015632136111577,0.0394385286629958,969.9159170731672,969.86749571142,970.12285223659,0.003230767249256,0.2553565251699865,0.0566975609088238,0.0008377897143783,1.221891362742297,0.66,0.34,1.438452694749732,lift down
0.11937499999895,-0.21533203125,0.55395507812,0.0276196903552713,0.1657757277272368,0.9346514892538,0.5107421875,1.28869628906,0.020457643701443,0.1426721959000274,-0.1024041748040999,-0.68334960937,0.72985839843,0.1133815216934889,0.3358788681727707,1.0227225572263,0.75822341239,1.29798146811,0.0130658737861188,0.114019929912223,970.2651417249552,970.05342821819,970.53001391717,0.0165498574182619,0.4765856989799886,0.1283242304912469,0.0016885751210002,-1.174063451745352,0.56,0.45,0.3151915032658655,lift down
0.0962945556602,0.07116699218,0.15698242187,0.0004013035610962,0.0199824183544139,1.0385711669881,0.98278808593,1.07458496093,0.0005086800317542,0.0224974805610656,-0.05894226073905,-0.12097167968,0.11938476562,0.0030064252447771,0.0546936295975432,1.04631616265295,1.00238147673,1.08308350528,0.0004987085574364,0.0222758841496652,970.6734121449203,970.47594855664,970.78555053862,0.0105150248614676,0.3096019819799949,0.1022861170304177,0.0017076322713475,-0.9970464357168596,0.43,0.56,-0.6242970908332068,lift down
0.1350177001908999,0.07202148437,0.37744140625,0.0066796683603086,0.0815246589597715,1.0109393310505002,0.91711425781,1.04162597656,0.0003315446480992,0.0181627895670991,-0.0310150146461,-0.08837890625,0.07580566406,0.0022746083328425,0.0475734725574906,1.0248434293575,0.9956763571,1.04688156182,0.0001260091453893,0.0111972809048641,970.79470058219,970.78437752131,970.80557258925,2.6936112248048324e-05,0.0211950679399706,0.0051770099175883,3.9210925046499645e-05,-0.7686324104187916,0.49,0.51,0.1545867242864556,lift down
0.36430053710695,-0.05395507812,0.931640625,0.0898017370744488,0.2989192673433357,0.0853552246105,-0.56237792968,1.11108398437,0.3607519296957268,0.5991228338556696,-0.5228179931608499,-1.05187988281,0.21118164062,0.1423874501803728,0.3763980777441232,0.9998388483606498,0.85457095409,1.13540204137,0.0036560184442201,0.0603136663783511,970.8121780920582,970.63473734713,971.00264545772,0.0051373614784523,0.3679081105899513,0.0714959766074993,-0.0005954529347265,1.1322310364124937,0.44,0.56,-0.5139813653525869,lift down
-0.9472619628876,-1.42749023437,-0.615234375,0.0268479067342433,0.1634431619878059,0.4519219970668,0.21691894531,0.97729492187,0.0234656798775473,0.152801673675911,0.1743682861308,-0.18041992187,0.48229980468,0.0297443874864357,0.1720339081373307,1.08422162916435,0.70914263049,1.73207183793,0.0362453869904855,0.1899056609359844,970.7222220842348,970.62701383742,970.89687508547,0.0026460734047355,0.269861248050006,0.0513112369536328,-0.0004219804481768,1.2581260992205294,0.6,0.4,0.4639971344284714,stairs up
-0.92054931640245,-1.25549316406,-0.69775390625,0.0211201124515918,0.1449638295897769,0.4370361328084,0.330078125,0.55310058593,0.0036081902345289,0.0599178544622242,0.1449078369109,-0.08483886718,0.29089355468,0.0083425404103095,0.0911088783174173,1.0354580245446,0.83464249455,1.35167919052,0.0202432912521368,0.1419227775794855,970.634749381857,970.55976996129,970.73380255428,0.0013449427012797,0.1740325929899882,0.0365816619055688,-0.0005477814080916,-0.0621511627831767,0.55,0.46,0.3211223982575144,stairs up
-0.9057617187465,-1.22412109375,-0.72546386718,0.016119590356778,0.1266451436297269,0.4882910156210499,0.3603515625,0.74084472656,0.0089022754365381,0.0941156950744958,0.184549560544,-0.07470703125,0.45727539062,0.0183320256793331,0.1350568974578363,1.0578266571309998,0.84332406808,1.36511032348,0.0186571677453343,0.136249337270343,970.5100660118344,970.45808530344,970.5707002518,0.0012327228096979,0.1126149483599192,0.0350222671403422,-0.0005913506455814,-1.3198919951991217,0.56,0.43,0.1890929554508197,stairs up
-0.8853247070270001,-1.29248046875,-0.64245605468,0.0187901606452051,0.1367340844192813,0.5110266113244001,0.03466796875,1.96923828125,0.0921144165152714,0.3027438594467196,0.3491308593719,-0.06616210937,0.78662109375,0.0385079511680766,0.1957432282666152,1.1202735742671002,0.87643618736,2.2882979519,0.060796960613311,0.2459531984143415,970.417299198503,970.3058982282,971.09279959909,0.0203847955219105,0.7869013708899502,0.1424179467072214,-0.0006987097096105,17.267980474554893,0.67,0.34,4.226807715449119,stairs up
-0.3477380371077999,-1.2880859375,1.26696777343,0.5191752146952844,0.7187345397445485,0.5856237792935001,0.0380859375,1.13879394531,0.0618922947803637,0.2481588872203893,0.2208850097639,-0.54296875,0.90686035156,0.1330468081016099,0.3638427875622957,1.0789104576644,0.55368351405,1.45159131299,0.0594604132636522,0.2432346833766392,970.5139771756122,970.35354621805,970.96729411829,0.0236968098082115,0.6137479002400141,0.1535523551078604,0.0003119547938154,1.6636245975806574,0.75,0.25,1.5871752331390785,stairs down
-0.685797119138,-1.65100097656,0.78039550781,0.4291216875932202,0.6534340664177635,0.5618212890601,-0.61181640625,1.87463378906,0.329256692218327,0.5723726135632586,0.076246337889,-0.71716308593,0.52038574218,0.0653980622608697,0.2550903211601046,1.1803754361342,0.14578088316,2.08351181735,0.2192419528974258,0.4670607488677877,970.6405993837936,970.38335970343,971.23824225033,0.0232276044758203,0.8548825469000576,0.1520245587181271,0.0002833597927744,7.103377577444528,0.41,0.59,2.056067469647933,stairs down
-0.6963653564417,-1.51025390625,-0.03002929687,0.1887698937952793,0.4333890219263784,0.7556799316370001,0.01953125,1.72485351562,0.170311694006197,0.4116553601450684,0.1166656494133,-0.2880859375,0.50891113281,0.0570306524750054,0.2382131382032284,1.1795104629722502,0.41474383456,1.87434918711,0.0928386827123535,0.3039317181519425,970.743954003683,970.69575261889,970.78757690039,0.0004281577229434,0.0918242815000667,0.0206401776719263,0.0002999563764049,0.179806114603608,0.36,0.64,-0.4408689991670558,stairs down
-0.142126464842,-0.30834960937,0.09460449218,0.0123421581242312,0.1108171797764681,0.6433129882781,0.34228515625,1.01599121093,0.0319744962482164,0.178366543294911,0.7146276855433,0.33666992187,1.09399414062,0.0319451632377127,0.1782847088830788,1.0035107882491,0.71515253829,1.20333272825,0.0136591640515491,0.1165798791871541,970.745975362366,970.71607167064,970.79258320402,0.0002808086618497,0.0765115333800849,0.016715400639544,-0.0001022974374919,1.30960090960156,0.59,0.41,1.0141345257265972,stairs down
-0.9173986816373,-1.14794921875,-0.26440429687,0.019863674704943,0.1405857614818028,0.4935729980437,0.34875488281,0.81713867187,0.0102240758850076,0.100861070317455,-0.0434448242185,-0.29956054687,0.33666992187,0.0178058319648354,0.1331044807848755,1.0582704400216,0.71515253829,1.40907897377,0.0149144609404051,0.1218190815746987,970.7611383076824,970.73359730902,970.80122617144,0.0001869397880725,0.0676288624200651,0.0136383682723473,3.719028516141912e-05,1.5661206889001251,0.61,0.39,1.1942544315544932,stairs down
-0.2573950195307,-1.03369140625,0.91918945312,0.466809957819921,0.6815246936324622,0.5229150390592,-0.03381347656,1.17346191406,0.0709193142451693,0.2656402034217401,0.2125695800773999,-0.53674316406,1.31567382812,0.2143915285553132,0.4618653168538819,1.0366323846306,0.45901390143,1.59809855375,0.0589262877206163,0.2421397453579509,970.7819188745738,970.74739967644,970.87344482746,0.0007977146008739,0.1260451510200937,0.0281731437342299,0.0001637427910596,2.1977786580442187,0.61,0.39,1.4870835188142342,stairs down
-0.9713989257778002,-1.60705566406,-0.48388671875,0.0914541017168601,0.3016568103131036,0.3931262206997999,-0.21203613281,1.13635253906,0.0886418308724129,0.2969825276309211,0.114112548826,-0.58959960937,0.39318847656,0.035125315695988,0.1869483594940273,1.0992776332118,0.51966364328,1.82394300496,0.1175071350427555,0.3419350806330666,970.9012890781448,970.79139944449,970.98782121495,0.0026074694715974,0.1964217704600059,0.0509355683608167,0.000824174080849,-0.8814562771469809,0.45,0.55,-0.2140125386596954,stairs down
-0.8675854492155,-1.373046875,-0.28576660156,0.0649837296273157,0.2542809685744868,0.5965869140583,0.0126953125,1.25280761718,0.1031452600438234,0.320358445719173,0.1951599121063,-0.14526367187,0.80883789062,0.0305980939282214,0.1744852528398328,1.1218883963072,0.36842027648,1.66759391164,0.0862389180122527,0.2929295536851675,971.0731989203476,970.98782121495,971.11836668763,0.001648279001323,0.1305454726799553,0.040497377770868,0.0006663925878781,-0.934136220563146,0.45,0.55,-0.5915685366906901,stairs down
-0.4205285644519,-1.88366699218,0.46643066406,0.3877515446733009,0.6211382993745712,0.5901257324193,-0.65002441406,1.75061035156,0.2827396457780475,0.5304016850926827,0.4316491699201,-0.23120117187,1.39904785156,0.2007298464303901,0.4469073698186663,1.1721325416109,0.32086736025,2.32989982824,0.2054109508260109,0.4520883719715436,971.1420548458076,971.05729573547,971.27492148856,0.0023940083187342,0.2176257530900329,0.0488061295037884,0.0002839496843198,0.9526862871302088,0.58,0.42,1.1236711088510354,stairs down
-0.9154003906222,-1.17102050781,-0.0732421875,0.0641345438407539,0.2526140754620578,0.4783520507772,0.20068359375,0.8916015625,0.0296530870995585,0.1717696762064269,0.1926721191365999,-0.14270019531,0.79235839843,0.0224470108759461,0.1494482379339631,1.0964768185762,0.71959119789,1.32770307795,0.0173800603615637,0.1315034602577283,971.1520817317444,971.0811014384,971.18342609283,0.0006102991303855,0.1023246544300491,0.0246423950689373,0.0002942639946182,1.2225799147774188,0.29,0.71,-1.4346658009897375,stairs down
-0.9933972167926,-1.16125488281,-0.35949707031,0.0123731667955389,0.1109563020362575,0.3656640624968,0.16076660156,0.69165039062,0.0145964812633762,0.1205134799807031,0.1450939941378,-0.04248046875,0.29077148437,0.0059260441114757,0.0767881103486623,1.0803990071409002,0.70893436181,1.31804271144,0.0071052292940632,0.0840815267915191,971.1734826474302,971.16492227275,971.18124543761,1.4623243945301056e-05,0.0163231648599548,0.0038144629668636,-3.402238970521512e-06,-0.2340084364951007,0.54,0.46,0.1584090416699365,stairs down
-0.8151000976525,-1.71533203125,-0.26843261718,0.1089183444055558,0.3292016899767194,0.6033959960904,-0.04077148437,1.39404296875,0.0802950313880262,0.2826544820643857,0.1792248535134,-0.11560058593,0.59887695312,0.0358900266949307,0.18897242275384,1.0898108652084,0.44900396436,1.80241621026,0.0973734763411707,0.3112661384723126,971.23695891674,971.1697393054,971.2929405731,0.0012274151059086,0.1232012677000966,0.0349467885560194,0.0005833265806421,-0.9671221466928994,0.47,0.53,-0.2356338261818724,stairs down
-0.5050183105434001,-1.25439453125,0.06860351562,0.1516589054795408,0.3884592783705174,0.9044348144495,0.45593261718,1.57568359375,0.0861633877221585,0.2928012479200655,0.0247973632805,-0.40844726562,0.48693847656,0.0489871019740275,0.220776281480048,1.1350121966551,0.68676855451,1.59071069647,0.0711390939119451,0.2660514958469232,971.3735358342622,971.2929405731,971.62877884773,0.0041712086367758,0.3358382746299639,0.0644232302325176,0.0006800497860756,3.279875980594551,0.65,0.35,1.5337763459497522,stairs down
-0.7217968749962,-1.50891113281,-0.08605957031,0.1156814068165728,0.3392683300611626,0.6661035156217001,-0.27185058593,1.3359375,0.1374482758314717,0.3698121610389717,0.2138208007779,-0.15856933593,0.67016601562,0.028940774321862,0.1696940495428544,1.0972943344152,0.38127602504,1.58949327003,0.0874464376575397,0.294973228394124,971.5412875791257,971.45672327214,971.6369266703,0.0017266966739647,0.1802033981599606,0.0414495258186978,0.0005964150733319,-0.5025568938387193,0.41,0.59,-0.2071247772665806,stairs down
-0.5410729980448999,-1.53674316406,0.74963378906,0.412762130757804,0.6408574881391454,0.5415869140591001,-0.27185058593,0.87805175781,0.06204720594182,0.2484692534542472,0.1079345703117,-1.01293945312,1.20275878906,0.1849789185117008,0.4290151791244015,1.076589370382,0.13679387889,1.69217703966,0.0956491333444817,0.308497792014399,971.6308578881384,971.27921799303,972.14538951952,0.0382547212285054,0.8661715264900067,0.1950985587398403,-0.0006201700819836,1.7948741757782338,0.54,0.46,1.0993638904999596,stairs down
-0.7966772460906,-1.14831542968,0.34741210937,0.1195432444242269,0.3448848042493403,0.4830126953096,-0.19116210937,1.42443847656,0.097125160849498,0.3108689998138292,0.2067272949197,-0.24230957031,0.97302246093,0.0690695075804665,0.2621529325461841,1.0743539109431,0.44424489524,1.47195532229,0.0410100201662021,0.2020024011376379,971.6411185449156,971.54848626891,971.75116014202,0.0010186337890863,0.2026738731100295,0.0318361527220381,0.0001409232186174,4.25619583864719,0.43,0.57,0.952125760253097,stairs down
-0.6773937988252,-1.39501953125,0.65246582031,0.2340361596622398,0.4825618912263261,0.4457116699182,-0.07153320312,0.95532226562,0.0460241035162946,0.2139952873282802,0.3011157226547,-0.21252441406,1.19445800781,0.1285139312148112,0.357591053521669,1.04994564631,0.48800741528,1.57298055944,0.0526003950100016,0.2287736720755945,971.6367896512426,971.56549771271,971.73346186574,0.0009845792197021,0.1679641530299704,0.0312994620337741,-5.340993648888274e-05,1.40895699541118,0.42,0.58,0.2712762231308077,stairs down
-0.9139184570276,-1.75952148437,-0.07641601562,0.1441045093121809,0.3786607806013451,0.4689709472623,-0.17724609375,1.27917480468,0.1255027117720813,0.3533768501376695,0.1666809082,-0.20361328125,0.36853027343,0.0147505020299023,0.1211476352214638,1.1210600443781005,0.3834063925,1.87286677603,0.1096718914850974,0.3303385112693826,971.7315049205654,971.65556044926,971.78922735976,0.0017497437334695,0.1336669105000965,0.0417252323516859,0.0006818904045564,-1.3503090664163422,0.43,0.57,-0.3620930998228558,stairs down
-0.8737292480428,-1.28356933593,-0.35705566406,0.0555481446733793,0.2350965843010323,0.533847656246,-0.07849121093,1.30578613281,0.1029647615922943,0.3200780182773144,0.1891015624978,-0.34497070312,0.54907226562,0.0359187615213235,0.1890480566250734,1.0953363572014,0.36558285576,1.66776570104,0.0782445165287656,0.2790220312916559,971.8784361439187,971.78786352157,972.05625486392,0.0036321362948399,0.2683913423500144,0.0601163506324671,0.0009610877347519,0.8846692741136661,0.47,0.53,0.7430836098466442,stairs down
-0.9601647949182,-1.65161132812,-0.43115234375,0.1061155023450866,0.3249383400483254,0.5297802734344998,-0.13464355468,1.11291503906,0.1088498800597468,0.329098208228863,0.0963000488268,-0.10925292968,0.38488769531,0.0122228632900673,0.1102803199742231,1.1595103978875,0.49800859191,1.73531154743,0.093914786514467,0.3056880968927228,972.0587963892732,971.95909220373,972.13517404293,0.0021487276012823,0.1760818391999237,0.0462383386733988,0.0007729958678349,-0.6204337521689021,0.39,0.61,-0.5835739095818733,stairs down
-1.1119946289018,-1.56311035156,-0.50207519531,0.0364381070170804,0.1904098644555869,0.3565246581996,-0.28479003906,0.70861816406,0.0371767169787764,0.1923300116827391,0.1244189453109,-0.04467773437,0.33410644531,0.0097605808053128,0.0985483531130088,1.1916564381566,0.5045812802,1.67157160599,0.0422466550172045,0.2050254173075098,972.1867784135726,972.13517404293,972.20664024273,0.000257035180363,0.0714661998000565,0.0159921857312013,0.0002296794403297,1.4142104771845094,0.33,0.67,-1.4619556908094544,stairs down
-1.00470275878535,-1.14733886718,-0.86840820312,0.0037153035157835,0.0608007154415521,0.35724121093365,0.10778808593,0.5400390625,0.0130254963176418,0.113843615701776,0.1139410400355,-0.02941894531,0.2509765625,0.0044784689812826,0.0667538510977173,1.0796023113497,0.9493529064,1.2424501885,0.0047249220793409,0.0685660081158608,972.2014977052604,972.19121816542,972.20838737165,1.5090887584815842e-05,0.0171692062300508,0.0038749752446811,2.4808765778988463e-05,0.1790510559486104,0.45,0.55,-0.4707395387388699,stairs down
-1.00090332030855,-1.36462402343,-0.74230957031,0.0214512026189302,0.1460956762051349,0.3591174316376,0.02233886718,0.71362304687,0.0286288876612673,0.1687771999499962,0.1715612792929,0.04760742187,0.32067871093,0.0053609649305087,0.0730353346391747,1.09278124905295,0.79083537179,1.405516889,0.0213055784111939,0.1455989372184357,972.2867490388992,972.20630630694,972.35607799919,0.0025289913159135,0.1497716922500558,0.0501631972598833,0.0008577093222308,-1.4282227676606676,0.47,0.53,-0.2178275748305122,stairs down
-0.9256835937461,-1.21923828125,-0.58959960937,0.0248082615623458,0.1571121263764642,0.4190881347617,0.2060546875,0.65759277343,0.0180017331302102,0.1338346908113107,0.1008825683563,-0.04565429687,0.28344726562,0.0073194636335617,0.0853397112450818,1.0315045277381,0.65314262265,1.30256746701,0.0287231088611389,0.1690547051011393,972.451034707356,972.35607799919,972.53916420524,0.0032936266649066,0.1830862060500067,0.057246471782828,0.0009873708695356,-1.2978856115124708,0.47,0.53,-0.0888696373364541,stairs down
-0.92003845214485,-1.24182128906,-0.55822753906,0.0369770459941027,0.1918128274233302,0.4879327392544499,-0.01831054687,0.953125,0.0563792122663071,0.236848720083043,0.03495239257735,-0.19409179687,0.28649902343,0.0133130430733272,0.1150933441079916,1.07283446674995,0.62210066165,1.39541341623,0.0447278028630005,0.2109601001343275,972.6513850031054,972.53916420524,972.7412734608,0.002644516756272,0.2021092555600034,0.051296141886995,0.0008625471235656,-0.7836427718267864,0.47,0.53,-0.3585964585929418,stairs down
0.5477917480433,0.13891601562,1.0107421875,0.0812822658197161,0.2843868043538898,-0.4851574706995499,-0.90881347656,0.34484863281,0.0740752746093802,0.2714864605027907,-0.5186993408160498,-0.80981445312,-0.08837890625,0.0337522549660631,0.1832579976187475,0.9932591392846498,0.69502828982,1.17213013096,0.0061337742800476,0.0781223745712292,972.7441055558144,972.70682810043,972.82062337251,0.000787847640258,0.113795272079983,0.0279983642746644,-0.0002917700270093,0.3526665424275417,0.59,0.41,0.9463604872248172,lift up
-0.0112261962881999,-0.36352539062,0.64038085937,0.0686317825085097,0.261320920700902,0.6522052001922499,-0.27551269531,1.07104492187,0.0967681973530613,0.3102972065074,-0.2453942871072499,-0.8056640625,1.2119140625,0.4161285696151909,0.6434655598919922,1.0200894522663502,0.6081256898,1.32850370617,0.0238737918492596,0.1541246991562785,972.8526730092732,972.30934359642,973.32074951112,0.0600565957682509,1.0114059146999352,0.2444510437478427,0.0008537538746356,-0.2869476768150614,0.61,0.39,0.1424783004832424,lift up
-0.7063409423793,-1.142578125,-0.32653808593,0.0308822544073762,0.175293591255754,0.6523114013642499,0.39770507812,0.98559570312,0.0147971346865479,0.1213389838968302,0.01959045410045,-0.69555664062,0.40942382812,0.0973947019681104,0.3113000617704241,1.0301717802669002,0.84826716369,1.2284876664,0.005946031027125,0.0769174939268657,972.7551176925704,972.27467185139,973.2706013857,0.0332803725830542,0.995929534309994,0.1819724449474123,0.0008168324037763,2.1660508936618657,0.42,0.58,0.0544993354998984,lift up
-0.7537573242149999,-0.89038085937,-0.53930664062,0.0047471674783508,0.068727226344143,0.6588244628865,0.43725585937,0.80310058593,0.0061601629793154,0.0782902430984786,-0.2046099853485,-0.50769042968,0.09436035156,0.0190121736321717,0.1375394952877569,1.03447233103425,0.84826716369,1.15922203725,0.0037205283473788,0.0608434524467667,972.8158217165816,972.57462418599,973.32541519099,0.0195797026782324,0.7507910049999964,0.1395772336910333,-0.000795344195719,4.710202762986848,0.58,0.42,1.6944869175710662,lift up
-0.7436035156209999,-0.78002929687,-0.72607421875,0.0001217845696127,0.0110079810485238,0.6734954833951999,0.64831542968,0.69982910156,0.0001074809431318,0.0103413508989948,-0.2203454589799499,-0.24060058593,-0.18493652343,0.0002464001367443,0.0156578458307851,1.02732915128975,1.00857994519,1.07333885916,0.0001633950996165,0.0127506126958053,972.5589272409428,972.34785879945,972.77572207912,0.0153878841143605,0.4278632796699639,0.1237374021619525,-0.0021408463339861,-1.1820761355581624,0.47,0.53,-0.0262817797134155,lift up
-0.7407666015583,-0.75122070312,-0.73278808593,1.7153414057779623e-05,0.0041313008831953,0.6803863525356999,0.63000488281,0.72998046875,0.0003534702106829,0.0187537425499424,-0.1781988525356,-0.2119140625,-0.12487792968,0.0006661619818722,0.0257455078016128,1.0219270736141,0.99495798321,1.0531323659,0.0001127996389257,0.0105941323727378,972.1291949046284,971.92224658763,972.34785879945,0.015532250588225,0.4256122118200665,0.1243164885897437,-0.0021503971652425,-1.222552109201815,0.49,0.51,0.0152850652053105,lift up
-0.73969543456695,-0.7490234375,-0.73156738281,1.3485367798771854e-05,0.0036630507722085,0.6903491210899501,0.67736816406,0.70422363281,2.81041051871858e-05,0.0052880605765488,-0.1625225830043999,-0.17712402343,-0.14526367187,5.9041497326926365e-05,0.0076646128304234,1.0248039660636998,1.01401293534,1.0340335876,2.190336929416682e-05,0.004668388635032,971.7246928851088,971.51633313636,971.92224658763,0.0134039041684244,0.4059134512699529,0.1154854304558903,-0.0019964254931265,-1.1198069832579405,0.49,0.51,-0.0255133728063631,lift up
-0.5474743652316,-0.77612304687,0.06164550781,0.0913105273336508,0.3014199308224036,0.48969299316195,-0.35900878906,1.205078125,0.167432529477588,0.4081609570135292,-0.3461175537071,-0.97436523437,-0.15380859375,0.0914467483158496,0.3016446826553891,0.99663130011365,0.58115046376,1.36196397465,0.0145624893036368,0.1203730736382461,971.3759362467856,971.30344669423,971.51633313636,0.0036848031565633,0.2128864421299567,0.0605506328685385,-0.0007792094676721,-0.5891352373564147,0.56,0.45,0.7113167693916445,lift up
-0.1043139648437,-0.82214355468,0.21545410156,0.0690032182073835,0.262027101873731,0.7642193603473499,-0.37023925781,1.02905273437,0.1074342544909711,0.3269511939395792,-0.1215832519524999,-0.93725585937,0.68115234375,0.2498077822041839,0.4985566600629892,1.01565517190025,0.86442584974,1.10818090782,0.0022650468019038,0.0474733774645777,971.2260622553306,971.10472273399,971.37264826573,0.0018587021824648,0.2679255317400475,0.0430047517322513,0.0002781339452043,0.7546849369732516,0.5,0.5,-0.2878669506779907,lift up
-0.91896606444895,-1.04638671875,-0.81469726562,0.0031852571075133,0.0562968100515102,0.4420629882773499,0.29821777343,0.54174804687,0.0034613725468143,0.0586861626286832,0.13427917480145,0.0478515625,0.32861328125,0.0030220299924758,0.054835388596357,1.0315927033958,0.89552012594,1.18466734587,0.0034030358277273,0.0581895235294866,971.247457357592,971.20902091536,971.29222498068,0.0004427788981477,0.0832040653199328,0.0209896403889407,-0.000322633812023,-0.724224822843829,0.42,0.58,-0.1424363596935825,lift up
-0.91228454589395,-1.01745605468,-0.75207519531,0.00476731091545,0.0688728855274176,0.40039611815975,0.23608398437,0.65747070312,0.0119329387365046,0.1089645540660912,0.14055175780965,-0.01733398437,0.33190917968,0.0095521232588994,0.0974903207636788,1.0183250186024,0.91202575006,1.10424852592,0.001477596254893,0.0383432950281868,971.1865161296448,971.16607611307,971.21613036008,0.0001094850032757,0.0500542470100526,0.0104373166215942,5.707595863048301e-05,1.4309419999107522,0.54,0.46,1.1670616671109468,lift down
-0.4431542968730499,-0.87292480468,0.68334960937,0.2427318557032328,0.4914450085459376,0.7467053222621002,0.20910644531,1.25061035156,0.0467339086158074,0.215639140864381,0.0215338134753499,-0.22631835937,0.20788574218,0.010495318104493,0.1021902222033524,1.01348289156795,0.47364420139,1.30360117246,0.025861286197679,0.1604119065614851,971.1708151934396,971.12468945706,971.2178574673,0.0004269824195649,0.0931680102399923,0.0206118293090915,-0.0001146437654833,-0.1078301760593674,0.49,0.51,0.3003651207960316,lift down
-0.69973022460525,-0.7626953125,-0.63220214843,0.0011535017918942,0.0338782272696605,0.73822143554305,0.68017578125,0.78576660156,0.0007898726640077,0.0280343236174471,0.0283013916001499,-0.08093261718,0.18322753906,0.0035515245025272,0.0594454950354915,1.0201247776207,0.98219436225,1.05456804376,0.0002081471735645,0.014391193060228,971.1668736408614,971.1434409158,971.19117870325,0.0002016700727872,0.0477377874499325,0.014165511724723,0.000168798175779,-1.296273295419495,0.55,0.46,0.1817441829145865,lift down
-0.6752374267543,-0.69604492187,-0.63818359375,0.0002866075562289,0.0168871110154407,0.75252929687125,0.70190429687,0.80310058593,0.0004629606817217,0.0214626624236863,-0.0908068847618,-0.14135742187,-0.06176757812,0.000345104122555,0.0185304776501371,1.0153277377929002,0.95164102972,1.06477060045,0.0006940696765549,0.0262792566137658,971.1639532438496,971.15137423904,971.18969006817,3.685769359959638e-05,0.0383158291299423,0.0060558570930627,-4.212755910266245e-05,2.530338585551946,0.66,0.34,0.931613260049787,lift down
-0.6889849853477,-0.76745605468,-0.62866210937,0.0014121665393196,0.0374847396499303,0.7505444335895501,0.71057128906,0.93688964843,0.0011012025274583,0.0331013068446109,-0.03418334960855,-0.19750976562,0.06420898437,0.0028622917056052,0.0533664711881652,1.02107244599455,0.96183843944,1.22176856579,0.0019553776073528,0.0441089641605434,971.3464317841358,971.16291648723,971.57164932416,0.0172001635882326,0.4087328369300849,0.1308211098037754,0.0022489576932579,-1.2247875143429086,0.53,0.47,0.2650284806437998,lift down
0.1230145263669,-0.91296386718,0.96301269531,0.5450341649763263,0.7364163184988806,0.59116760253495,-0.00952148437,1.52490234375,0.135385037830898,0.367026038097767,-0.0488763427728,-0.388671875,0.28662109375,0.0367609067611708,0.1912514110467293,1.016240318459,0.24341818158,1.60354433951,0.0480908834415181,0.2187474091830816,971.627560328077,971.57164932416,971.70305104702,0.0011004892650813,0.131401722860005,0.033090585047048,0.0005038240427314,-0.9033760833319432,0.58,0.41,0.5156018850052613,lift down
-0.5680145263631,-0.720703125,-0.39758300781,0.0068430758957575,0.0825158197940173,0.8116125488243501,0.66088867187,1.10668945312,0.0070155503627891,0.0835492226832491,0.2537005615196,0.15881347656,0.36059570312,0.0023717851161292,0.0485790715282686,1.0291064413868,0.89374889493,1.25346940295,0.0028227116590847,0.0529962083623849,971.672262857003,971.62112528655,971.70845465001,0.0004867068419493,0.0873293634600713,0.0220062106628922,-3.865305293450762e-05,-0.0867921806970608,0.48,0.52,-0.4016782116439145,lift down
-0.352873535152,-0.55895996093,-0.08117675781,0.0134750226095776,0.1157913964702464,0.93738159179305,0.82604980468,1.11267089843,0.0048226941634891,0.0692717885771094,0.13654907226245,-0.12878417968,0.43603515625,0.0160921468788325,0.1265372915169215,1.0254200199593502,0.8875524324,1.16640101186,0.0046043483215678,0.0676854975601126,971.6456309229987,971.60398516952,971.68897689135,0.0004803157205251,0.0849917218299651,0.0218612474923674,-0.0003002086587988,-0.5508401948351427,0.4,0.6,-0.2981104992172961,lift down
-0.1390526614985074,-0.974609375,0.49584960937,0.3019265874542332,0.5481099024179277,0.7143002030828358,0.30456542968,1.15930175781,0.0571493382602799,0.2384638614010694,0.3534767568378109,-0.2041015625,1.00366210937,0.1103117559561002,0.3313049067699585,1.0420871600658703,0.5022627918,1.60618695903,0.0347576150002288,0.185969598436186,971.6252077881412,971.56257123795,971.70918213591,0.0010956013579523,0.1466108979600449,0.0330174288055213,-0.0001783270485994,0.2372273629594272,0.42,0.58,0.4231751789953524,lift down
0.2199081344186432,0.18713378906,0.23559570312,0.0001189747632226,0.0108801148932758,0.9945718583105024,0.97521972656,1.041015625,9.551038779066283e-05,0.009748355558412,0.0964539494311557,0.02111816406,0.1796875,0.0020967390409013,0.0456749675841302,1.0242260132609549,1.00196288849,1.07139950568,9.730602475623068e-05,0.0098395655268642,971.6228405540088,971.60751211835,971.65654043025,0.0001034954846327,0.0490283118999741,0.0101476798737725,-9.02531065194514e-05,1.3017175778668753,0.6,0.4,1.105773025551806,lift down
-0.2485968017590499,-0.91955566406,0.21545410156,0.2775015558394107,0.5254655536381179,0.7791827392543,0.40197753906,1.00964355468,0.0611124657321899,0.2465905582205633,0.20889709472315,0.10754394531,0.29052734375,0.0017215610116064,0.0413878388726498,1.0238818849091,0.80510375913,1.16014198011,0.0028782890498033,0.0535153959581199,971.628100640176,971.60442520906,971.65141839888,0.000114846831448,0.0469931898200002,0.0106898361676327,0.0001022363647434,-0.4243587160697384,0.56,0.43,0.0573226633340709,lift down
-0.8516949462854501,-1.00549316406,-0.68298339843,0.0051396720939385,0.0715120530642831,0.4973846435512,0.232421875,0.67065429687,0.0069470195070755,0.0831401492032591,0.1227770996062,0.03771972656,0.24450683593,0.0029604049468291,0.0542734089780157,1.00005960283045,0.90038306177,1.09241264189,0.002161824963351,0.0463790452525095,971.6590846867972,971.60220556809,971.73677944126,0.0007603068838849,0.1345738731699839,0.0275046423257152,0.0001248160157073,1.4414044913057564,0.46,0.54,0.8114965098159534,lift down
-0.815566406246,-0.88342285156,-0.78601074218,0.0004579641351924,0.0213465293318726,0.568041992184,0.51647949218,0.64184570312,0.0008252847135121,0.028655859609242,0.1696166992148,0.0615234375,0.27282714843,0.0058035588442462,0.0759904010387167,1.0113517476504,0.94540640467,1.06918864171,0.0008131745869356,0.0284448363328213,971.797172321303,971.58488656502,972.00506213701,0.0166394059238085,0.4201755719899438,0.1286709325923671,0.0021890545551901,-1.2140721052126446,0.51,0.49,-0.1014435011669609,lift down
-0.8390548478272637,-0.865234375,-0.81396484375,0.000310399977135,0.017574290843214,0.5429280598928358,0.52502441406,0.58361816406,0.0001794429620225,0.0133622681820008,0.2878745918808458,0.27490234375,0.29821777343,4.237573537407373e-05,0.0064934513796573,1.040080244202388,1.01324643595,1.06883361723,0.0004204447378859,0.0204536787160864,972.1510073420984,972.00506213701,972.20028789394,0.0026286803806147,0.1952257569299718,0.0511429601095881,0.0007983437940729,0.1216418534157237,0.34,0.66,-1.1434606050086822,lift down
-0.8199849344335678,-0.84460449218,-0.80041503906,6.45017876154352e-05,0.0080110959318577,0.5263696411711557,0.51184082031,0.54382324218,6.127868634622546e-05,0.0078083771200556,0.2929343985519095,0.27648925781,0.3076171875,6.56506209409145e-05,0.0080821233796027,1.017527314892764,0.99964666084,1.03945506001,7.226487680494672e-05,0.0084794891780401,972.201512959427,972.19113232531,972.21609291419,3.837591233807342e-05,0.0249605888799351,0.0061792449828017,-3.227008460495086e-05,-0.7625447653168651,0.48,0.52,0.4045438729699255,lift down
-0.8018969726522001,-1.02819824218,-0.65161132812,0.0062345140603343,0.0787612943648888,0.5767578124966001,0.31958007812,0.87243652343,0.0101943722921062,0.1007144499595056,0.2445825195276,0.02331542968,0.44519042968,0.0136032235622382,0.116340910450396,1.029979467588,0.88823000643,1.20940797869,0.0045559634146602,0.0673289209596212,972.1929982697458,972.13495517166,972.30451065704,0.0014468656614187,0.1695554853801013,0.0379424739982997,-6.685617004855197e-05,-0.1058232368402838,0.48,0.52,0.3683776985390423,lift down
0.067441406249,-0.51013183593,0.26110839843,0.0264043767478976,0.1620874913870844,0.7000415039023999,0.25415039062,1.18151855468,0.0658879338858506,0.2560439302471773,0.5806347656218,-0.55859375,1.1689453125,0.1409366383377604,0.3744755734972198,1.0151476856322,0.69497167613,1.39165284179,0.0334484041153258,0.1824312530646798,972.0312126395818,971.92941195212,972.21634701223,0.0063779995550963,0.2869350601100677,0.0796624727040331,0.0001783890921254,-0.2630062458807947,0.58,0.42,0.8324763859726247,stairs up
-0.7284057617152,-1.29077148437,-0.35986328125,0.0644090662347028,0.253154144551357,0.5685766601526,0.23352050781,1.01635742187,0.0448739614257307,0.2113044997594754,-0.0509716796866,-0.53698730468,0.54028320312,0.1274015431158583,0.3560400755536925,1.031071626967,0.80599906661,1.4633783411,0.0289898816971133,0.1698379589156315,971.8456258608442,971.77848651723,972.04410604389,0.0017222445068769,0.2656195266599752,0.0413960539706695,-0.0002658897140318,2.743442472550286,0.57,0.42,1.3631627585765933,stairs up
-0.8973876953086,-1.21752929687,-0.71997070312,0.018271932050757,0.1348353528956824,0.3863549804643999,0.12780761718,0.89282226562,0.0196744416167624,0.1399145074989674,0.3668383789024,0.09790039062,0.78625488281,0.0370021759028535,0.1918779951514483,1.067913484826,0.83372949283,1.40181452825,0.0233968227207668,0.1525773200943149,971.7470024040372,971.61614706754,971.90325156709,0.0022350478917528,0.2871044995499687,0.0471579542844475,-0.0002929821192487,2.626875589092613,0.6,0.4,0.2110076493708693,stairs up
-0.999160156246,-1.39318847656,-0.73059082031,0.0316070477805834,0.1773386944287131,0.26230224609,-0.16564941406,0.53857421875,0.0146990183549748,0.1209360296321985,0.1985156249963999,-0.169921875,0.39929199218,0.0116845510472037,0.1078245254659984,1.0640698265352,0.7912217425,1.47501983487,0.0321487516144422,0.1788519159985992,971.6360679141396,971.5821871843,971.67893898226,0.0009544832521962,0.0967517979599961,0.0308173787972838,-0.0004945052252396,-1.3541634932304427,0.5,0.5,-0.2733248704835229,stairs up
-0.9779541015586,-1.14184570312,-0.84509277343,0.0039597911450808,0.0627693570889127,0.372800292965,0.19799804687,0.60021972656,0.0081620410998404,0.0901178722248881,0.1166577148424,-0.17639160156,0.47131347656,0.0253474602201332,0.1588103363104322,1.0677369842606002,0.92106697263,1.24605240349,0.0062341548427478,0.0787590253147797,971.568002922739,971.54713890345,971.60944021952,0.0002887770831298,0.0623013160700338,0.016950905513104,-0.0002239688482665,-0.4679906338246065,0.52,0.48,0.6533252142893085,stairs up
-0.0450439453125999,-1.09912109375,0.9931640625,0.6558786990013317,0.8078361872968585,0.4923583984344,0.01477050781,1.05859375,0.0682359005342211,0.2605661548082367,0.1558447265604,-0.40563964843,0.64599609375,0.0982463338489024,0.3126581234825954,1.0226029702724,0.57341729889,1.50134047078,0.0414729871573303,0.2031394157261059,971.5418576617052,971.22740348956,972.30131081417,0.0497605215995187,1.0739073246101043,0.2225122895291879,-0.001222128441514,4.192975228744503,0.52,0.48,1.983873959753598,stairs up
-0.9682543945274,-1.2587890625,-0.68041992187,0.0181200548694414,0.1342738045751821,0.4060913085902,0.29809570312,0.64794921875,0.0047537658982562,0.0687749741458689,0.1675878906216,0.0380859375,0.4287109375,0.0103912447205984,0.1016822919538867,1.0698785706514,0.77912343516,1.34093958802,0.0190663404427405,0.1377352850235801,971.4735789816494,971.36981401112,971.99615743821,0.0077684513085848,0.6263434270900916,0.0879181952273926,-0.0005230720895558,22.190885882272276,0.56,0.44,4.077724532667822,stairs up
-0.9614892578088,-1.21850585937,-0.74060058593,0.0163503191820149,0.127548295112498,0.407963867185,0.26025390625,0.59777832031,0.0063801805937863,0.0796760923415385,0.1118383789034,-0.01281738281,0.2412109375,0.0044436399001241,0.06649377189349,1.0557713982983998,0.83979958706,1.28274328158,0.0158682978067634,0.1256541138114054,971.356433621169,971.26966656485,971.43504966182,0.0024934499870341,0.1653830969700038,0.0498094643325842,-0.0008243926660713,-1.0926097374475985,0.52,0.48,0.0903703044686882,stairs up
-0.9090296806945274,-1.23791503906,-0.69177246093,0.0184889466667654,0.1356354004582801,0.4393061547689054,0.26489257812,0.80871582031,0.0151294591007237,0.1226955099419867,0.1630586083217413,-0.01049804687,0.32470703125,0.0080811142120392,0.0896711194516977,1.0321417848329353,0.8307046478,1.37964928359,0.0221988052499731,0.1486215443090572,971.2007928084756,971.07603824727,971.546660699,0.0086512986842883,0.4706224517299233,0.0927806951757847,-0.0007546239002501,5.192883343224265,0.48,0.52,1.8951480871804791,stairs up
-0.9382556152299,-1.16845703125,-0.71252441406,0.011099142703377,0.1050887576758817,0.5091094970671499,0.279296875,0.91918945312,0.0294174816194384,0.1710859263976475,0.24104553222265,0.05590820312,1.17431640625,0.049298927097844,0.2214778374067139,1.11893430948435,0.80203761655,1.73799698894,0.0351472490897177,0.1870067187142462,971.0565603887482,970.98745828555,971.1018314735,0.0007253949162078,0.1143731879500364,0.0268657391788643,-0.0003797591229297,0.517440768149954,0.51,0.49,-0.8160393432774619,stairs up
-0.6350956442340703,-1.13647460937,0.18334960937,0.1239514056998546,0.3511816258212099,0.7622303411550754,-0.41027832031,1.61340332031,0.1043734719609753,0.3222560816371449,0.0760712743388442,-0.25170898437,1.08447265625,0.0474363933333103,0.217251051775278,1.091597310537437,0.20551402677,1.78542074251,0.0732875357489385,0.2700356581542951,971.036644268568,970.99895209943,971.13827159564,0.000745523363263,0.1393194962100779,0.0272355836123249,-0.0001744818278373,3.3743243959069584,0.68,0.32,1.7034289812351897,stairs up
-0.9595190429656,-1.21826171875,-0.67260742187,0.0107142678997377,0.1032506492000851,0.50443115234,0.33618164062,0.71350097656,0.0071965900797269,0.0846203706522742,0.2033203124966,-0.03894042968,0.39721679687,0.0104754570139349,0.1020934852420335,1.1105580032626,0.86896689746,1.3468693025,0.0114291814539728,0.1066397465615095,971.030994205167,970.98058720151,971.05137068381,0.0001680626536309,0.0707834822999302,0.0129314477288023,-0.0001037760449973,4.472064023622698,0.5,0.5,-1.6181404605095608,stairs up
-0.9454956054652002,-1.22607421875,-0.70324707031,0.0149607971385952,0.1220081683859824,0.473771972653,0.22692871093,0.64807128906,0.0094211029707182,0.0968194064011172,0.1766894531215999,-0.05407714843,0.60900878906,0.0186839925343444,0.1363472499600661,1.0877254258458,0.90584661286,1.30726299089,0.009391905546266,0.0966692609805964,970.9204308881344,970.84498629542,970.99058494321,0.0018722199472637,0.1455986477900523,0.0431608485496689,-0.0007357149880268,-1.1087176788149784,0.46,0.54,-0.0731543693231567,stairs up
-0.9537596441580098,-1.24377441406,-0.71472167968,0.0127541816263711,0.1126531312766715,0.4390097850552736,0.28356933593,0.60778808593,0.0052798374560447,0.0724815121807257,0.0797768967626368,-0.06604003906,0.30651855468,0.0035321570960922,0.0592839284732059,1.0587015520502985,0.83720079671,1.35977238842,0.0094081154569438,0.0967538573514356,970.766933505944,970.68684724836,970.84954472538,0.0020449004625546,0.1626974770200604,0.0451079463998593,-0.0007705107290707,-0.9895695345710332,0.46,0.54,-0.0681420573653855,stairs up
-0.9937371826129,-1.45349121093,-0.75146484375,0.0286766496131436,0.168917927897183,0.4331604003872499,0.1494140625,1.14782714843,0.0395564577309151,0.1983902100464147,0.1297235107396,-0.12670898437,0.36389160156,0.0176688096023959,0.1325913479620143,1.11298780233325,0.79407897987,1.6456370634,0.0388947427424965,0.1967238395029541,970.6230821959012,970.56269793924,970.69154090917,0.0014217705720519,0.1288429699300195,0.0376119890353022,-0.0006059965624227,-0.9114616511448888,0.53,0.47,-0.0535367159288034,stairs up
-0.5415850830039,-1.17004394531,-0.03991699218,0.129525069207825,0.3589950471270961,0.7927050781215,0.1826171875,1.44372558593,0.1076878940398362,0.327336912934727,-0.0364733886704999,-0.47497558593,0.42639160156,0.0545583474547158,0.2329926087184789,1.07684284271845,0.56616213569,1.51469107985,0.0540180877671877,0.2318361432744079,970.7421397502818,970.60472131312,970.92216545985,0.0066685297504295,0.3174441467300539,0.0814566578106258,0.0005074524130059,-0.5964179460035353,0.46,0.54,0.1824315221088296,stairs down
-0.7338500976512501,-1.45336914062,-0.17333984375,0.0853808439854627,0.2914685913877092,0.6681347656213501,0.35668945312,1.42456054687,0.0539484876246112,0.2316867393410512,-0.0257373046867499,-0.35437011718,0.33874511718,0.0257900068857563,0.160190689028194,1.0516583758584,0.60730137503,1.5381452664,0.0441314994985045,0.2095491398240805,970.864576881685,970.61673242829,971.06514799176,0.0092224256059825,0.4484155634700073,0.0957930763570764,0.0009121043206732,-0.0236978011722466,0.68,0.32,0.3719119955829345,stairs down
-0.92935485839395,-1.49072265625,-0.1767578125,0.0586206247964868,0.2415109141892027,0.51605102538665,0.18310546875,1.23791503906,0.0386067745657194,0.1959942363767131,0.1527008056607,-0.21411132812,0.49682617187,0.022544410949882,0.1497721232243591,1.1147530469536,0.76320942489,1.51711084347,0.0299751208492903,0.1726998704256719,970.9583695546528,970.82007284165,971.08961244306,0.0028703960311851,0.2695396014099742,0.0534419690040439,0.0005920673305792,0.3541902101962537,0.4,0.6,-0.0190349514512802,stairs down
-0.9729316749719598,-1.18518066406,-0.81042480468,0.0072861875193483,0.0851444273673468,0.3685995897419095,0.271484375,0.5166015625,0.0043138656076436,0.065514791391123,0.1341742894121608,-0.0400390625,0.275390625,0.0040467687154174,0.0634541818498549,1.0524978311115578,0.90336758876,1.27060499706,0.00782808811125,0.0882539006790231,970.9832490865272,970.95383302109,971.02085094502,0.0003522694804565,0.0670179239300523,0.0187216260528371,5.192963537103885e-05,-0.9139433073405292,0.5,0.5,0.285025219860986,stairs down
-0.6549685653729352,-1.32507324218,-0.27490234375,0.081869211066494,0.2854153141628888,0.6366768452622388,0.28125,1.01416015625,0.0318621880794238,0.1780552434801346,0.3667909233096517,0.1044921875,0.69775390625,0.0220004360051195,0.1479560106910883,1.0321227909979105,0.51311472858,1.48432875109,0.0388491845606215,0.1966110501356532,971.0180331663132,970.88912032206,971.40130928569,0.0089126168313788,0.5121889636300239,0.0941715214600906,0.0007250634422348,8.285658522917409,0.62,0.38,2.612391303716648,stairs down
-0.93102233886375,-1.42028808593,-0.60437011718,0.0494811850991802,0.2218868612011182,0.3909008789026499,0.22131347656,0.70397949218,0.009126977890408,0.0952960807219059,0.1744024658166,0.0322265625,0.46728515625,0.0091111119065071,0.0952132151908262,1.0351555716655,0.68141615486,1.49749165656,0.0460863654714161,0.2141399860933474,971.1127992156656,970.99428086387,971.23477028661,0.0035074239210511,0.2404894227399836,0.0590752638711487,0.0008541734799586,-0.8343224313357784,0.49,0.51,-0.290188751112668,stairs down
-0.6246838378884499,-1.32568359375,0.29504394531,0.2175356091533009,0.4652396491138029,0.4321203613245001,0.07080078125,0.83874511718,0.0285583023914056,0.1685690092497686,0.39317016601085,0.01538085937,1.37622070312,0.1301035181288273,0.3597957761538943,1.0354081802109,0.73715843114,1.41092275356,0.033954609557851,0.1838065192262281,971.3034609106188,971.18239931954,971.5139085635,0.0047037266364258,0.3315092439599993,0.0684120457466642,0.0009691977826679,-0.969943268359803,0.47,0.53,0.1043804036460604,stairs down
0.5528570556603999,0.18896484375,0.77600097656,0.0172361067338833,0.1309577267678923,0.57689819335515,0.13354492187,0.84777832031,0.0216117712045557,0.1466414414431777,0.6168408203087,0.38757324218,1.37622070312,0.0310651250283096,0.1758118295313716,1.0338339744397,0.7669031121,1.399900944,0.0185832158952253,0.1359790418253829,971.4287816873766,971.26191431944,971.57058892271,0.0039786425236061,0.3086746032699921,0.0629185927289232,-0.0001535318311254,0.7182810023617869,0.5,0.5,-0.1566156192068642,stairs down
-0.042931944880804,-1.04077148437,0.68737792968,0.4669719384957451,0.6816343197345536,0.71674166731799,0.35888671875,1.03076171875,0.0393842745683336,0.1979554587296206,0.1585190356049748,-0.10595703125,0.39807128906,0.0155078689111147,0.1242173092673147,1.0250875547097988,0.81443248695,1.18143615214,0.0091733058062156,0.0955364265194908,971.468905247376,971.02159367878,971.98445500198,0.0395079584188462,0.9628613231999452,0.1982660484411795,-0.0012066075422491,0.2458412745772777,0.6,0.4,0.3655701206985731,stairs down
-0.9544944952933334,-1.39611816406,-0.62341308593,0.0240304728126485,0.1546315563574941,0.3769944224159701,0.19201660156,0.62390136718,0.0114540392902253,0.1067569858141598,0.1174990525851741,-0.23620605468,0.28332519531,0.0075700470580044,0.0867893146207684,1.0415725418182586,0.68708410471,1.46203491486,0.0250823487474914,0.1579796219225048,971.5147187205132,971.45570053133,971.84234841852,0.0032381520541976,0.3866478871900654,0.0567630323799989,0.0004856287993884,19.335610950057788,0.64,0.36,3.830331781126882,stairs down
-0.8938848876912,-1.60046386718,-0.24890136718,0.1336544163257298,0.3646726535457535,0.4250134277317,-0.03735351562,1.04992675781,0.0704789352757822,0.264814162384498,0.30038452148085,-0.08520507812,0.91137695312,0.0463490094889799,0.2147493060327204,1.106300732711,0.56130165032,1.67164534479,0.0890264799643333,0.2976261876322574,971.653810823024,971.53552248951,971.92225357051,0.0050516670254095,0.3867310809999935,0.0708971698326706,0.0007556355407435,5.670315730456833,0.59,0.41,2.006836335922222,stairs down
-0.9471411132772,-1.44262695312,-0.49182128906,0.0668176897744774,0.2578441415382653,0.3904968261683,0.16577148437,0.70471191406,0.0202322825042354,0.1418841819644256,0.1314404296838,-0.06506347656,0.306640625,0.0085391435549118,0.0921761782519611,1.0472118911897998,0.5559619983,1.50578872475,0.0656272075084003,0.2555368299694944,971.822992835938,971.69743929605,972.32767662761,0.0113605392445989,0.6302373315600107,0.1063190319198585,0.0006727361689781,8.20986006127043,0.52,0.48,2.2166613130395816,stairs down
-0.9885119628861,-1.61157226562,-0.36376953125,0.062316981960082,0.2490088292616983,0.4164355468708,-0.16027832031,1.24938964843,0.0576874704568122,0.2395809531338586,0.1763903808554,0.001953125,0.94873046875,0.0335584413151553,0.1827310841334324,1.1249227750911002,0.5997438311,1.68885387752,0.0693787550477309,0.2627391506275612,971.974610316298,971.88228002846,972.41499451689,0.0038648735116727,0.5327144884300878,0.0620124918392607,0.0007966842003169,12.07316041778289,0.57,0.42,2.3693928459151468,stairs down
0.88186157226235,-0.36376953125,1.13659667968,0.0671326345214205,0.2584511004983601,0.28969604491855,0.08801269531,0.98132324218,0.0151237047780513,0.1226706413701384,-0.2151562499965,-0.44226074218,0.35632324218,0.015726657015396,0.1250920610203504,0.9893377527738,0.39059039916,1.19634111563,0.0267334022676111,0.1630942526770121,972.0574357169378,971.95322342063,972.41499451689,0.0099336560921222,0.4617710962600085,0.0994182468748146,-0.0002976861508875,4.011989059905019,0.62,0.38,1.934857935633085,stairs down
0.8380688476528,0.32958984375,1.14880371093,0.0302020288648871,0.1733522965540484,0.1681542968734999,-0.6923828125,0.53308105468,0.0951127372415069,0.3076315548757952,-0.3481188964807,-1.02966308593,-0.05969238281,0.0347503292783431,0.1859477820033125,1.0003959994703,0.7641089279,1.32992258156,0.0103463730674843,0.1014625113140163,972.0278588430642,971.97597988606,972.19090089394,0.0010922996327705,0.2149210078799797,0.0329672281911393,8.590206476411317e-06,1.873959559867601,0.59,0.41,0.8546705613174858,stairs down
-0.2973364257800999,-1.21997070312,1.09020996093,0.5117482817239953,0.713575181964294,0.2487316894521999,-0.91552734375,1.25,0.367108799369271,0.6043784041247872,-0.0958435058603,-1.03356933593,0.28137207031,0.1309718841187194,0.3609944939997365,1.0604264307209,0.62209724835,1.50822424331,0.0399376748396853,0.1993438899627648,972.1379556960248,971.95666425549,972.30434289288,0.007103103768585,0.347678637390004,0.0840689493793167,0.0010123076005021,-0.4095745678369358,0.42,0.58,-0.3496544649489103,stairs down
-0.9518835449182,-1.3291015625,-0.60717773437,0.0444075144880284,0.2102034179445908,0.4356408691366999,0.2978515625,0.68542480468,0.0104909320137331,0.1021688668512306,0.1289953613248,-0.06335449218,0.30676269531,0.0064382280100999,0.0800377215445905,1.0620520354493,0.69361457963,1.40637877192,0.0458095661599339,0.2134959445262001,972.3549695536516,972.23996233891,972.45051406692,0.0033697358265744,0.2105517280100457,0.0579041202976226,0.0009289304934283,-0.989387576962676,0.52,0.48,-0.1843915844726781,stairs down
-0.8443444824173,-1.50561523437,-0.27185058593,0.0826452343474818,0.2867612389702354,0.5859887695274,0.25573730468,1.29309082031,0.0538974749320102,0.2315771740853364,0.1735156249968,-0.1474609375,0.67138671875,0.0329602143031255,0.1810950392241873,1.0852023670779003,0.61268184307,1.5797705852,0.0777882880157499,0.2782073805197683,972.527064454568,972.40706107001,972.90148722646,0.0081572060308376,0.4944261564500039,0.0900911760422931,0.0004216272645621,4.469892544925532,0.59,0.41,1.6457968739242377,stairs down
-0.9731835937456,-1.28015136718,-0.78271484375,0.0155844637137541,0.1245252640839818,0.3863684081993,0.28308105468,0.61791992187,0.0060279545038411,0.0774455597908743,0.1249401855430999,0.01599121093,0.27026367187,0.0029377489518881,0.0540653327662807,1.0591957436284,0.86342699883,1.32705675809,0.0145816049930596,0.120452052569038,972.4411844007984,972.35610121742,972.51685316275,0.0016863090903774,0.1607519453299346,0.0409619035803458,-0.0006408992309862,-0.6486451387900747,0.45,0.55,-0.0851041551619375,stairs up
-0.5510742187471,-1.22888183593,0.908203125,0.5014617988178479,0.7063671069803283,0.4477136230435999,0.13537597656,1.08703613281,0.0546046247001231,0.233091401764678,0.1981713867164,-0.23791503906,0.80151367187,0.0444590599623981,0.2103253780754622,1.0473349363057998,0.54200530165,1.48018911836,0.0442357473347508,0.2097964932930889,972.2706978046788,972.20818412049,972.40213278086,0.0022285297101345,0.1939486603699833,0.0470891395290234,-0.000559547748866,-0.3562449117866899,0.61,0.39,0.686377877107309,stairs up
-0.9429431152311,-1.3447265625,-0.70861816406,0.0215809264659332,0.1465367593254455,0.395523681637,0.109375,0.67504882812,0.0158290182092138,0.1254984984697736,0.1545935058550999,0.01489257812,0.287109375,0.0045427791602252,0.0672314306290155,1.0436695362699,0.79166836592,1.42258503236,0.0220871483719892,0.148245447249247,972.1550134791728,972.11470090847,972.22804473058,0.0012188388074738,0.1133438221099822,0.0348244829600735,-0.0004924545049497,-0.9166230333405756,0.57,0.43,0.6055156083720767,stairs up
-0.9609326171835,-1.08984375,-0.82653808593,0.0039200971234071,0.0624539561420262,0.4084631347622,0.255859375,0.54467773437,0.0051308066566316,0.0714503507573512,0.1248144531216,-0.03002929687,0.28259277343,0.0060220041704965,0.0774073262013622,1.0567646747636998,0.94210767929,1.2164010618,0.0040786336857559,0.0637043210255565,972.1196249794828,972.09419370769,972.16493215117,0.0002535653080681,0.0707384434799678,0.0158838748902098,-2.2793607043438517e-05,0.8493994777167466,0.61,0.39,0.988282037633946,stairs up
-0.9658618164032,-1.24487304687,-0.80187988281,0.0091733618656465,0.0955379247017557,0.4085913085902,0.27990722656,0.53686523437,0.0055055670343296,0.074013777090201,0.1254516601532,-0.0673828125,0.29150390625,0.0087832681196029,0.0934845002072797,1.062792766894,0.88631328269,1.29800879083,0.0094376337178495,0.0969043113037819,972.0949206347984,972.05443569909,972.16977400608,0.0006320159237506,0.1153383069899973,0.0250769983078489,-0.0002053008765659,1.375067142133064,0.59,0.41,1.1349724469846705,stairs up
-0.9741503906208,-1.24841308593,-0.7275390625,0.0205863552834537,0.1431203113014936,0.3619091796840999,0.20849609375,0.62683105468,0.0103916532189576,0.1016842905903507,0.155209960935,-0.15930175781,0.36193847656,0.011293668087794,0.1060056590345775,1.0614275401195,0.82946831237,1.37178672493,0.0195671006472783,0.1395323086028536,972.0187299749372,971.90844934609,972.42116738976,0.0102087464236563,0.5127180436699064,0.1007854289643997,-0.0003492143120457,7.542306831189634,0.65,0.35,2.519747029274352,stairs up
-0.787041015621,-1.25671386718,0.11596679687,0.1379977621374818,0.3705506353075035,0.5313879394491,0.13928222656,1.64562988281,0.0855395244761069,0.291739313178266,0.0678674316389,-0.48278808593,0.47119140625,0.0409279017746067,0.2018000551678162,1.0485695998479,0.33347681305,1.70627854117,0.0704093944339143,0.2646834854344804,971.8428655748494,971.61957679944,972.63061433764,0.0291188004376395,1.0110375382000711,0.1702151768657875,-0.0010561518426222,7.350588755527891,0.75,0.25,2.326144763331489,stairs up
-0.8681616210895001,-1.30358886718,-0.18249511718,0.0669047443051658,0.2580120551130121,0.4662780761682999,0.24609375,0.99890136718,0.037939480313948,0.1942930336177248,0.1031701660118,-0.06762695312,0.25427246093,0.0058979245450255,0.0766057107681953,1.0332025985373,0.70313654996,1.36626897747,0.02456759457162,0.1563481902637889,971.743664926536,971.64658087445,971.79245789482,0.0011697160104949,0.1458770203699941,0.0341155013218699,-0.0002391707829203,0.9756775877559902,0.49,0.51,-1.0275586418479834,stairs up
-0.8559143066364,-1.24548339843,-0.32861328125,0.0515707345986357,0.2265234666113924,0.5419311523404999,0.27124023437,1.36267089843,0.0706867035009695,0.2652042043095559,0.1497912597624,-0.08666992187,0.67028808593,0.0202827160364242,0.1420609110777561,1.0727760753418,0.77584721648,1.62290431565,0.0398945137927582,0.199236144370931,971.557785632554,971.43591884562,971.73328115943,0.0052277229217564,0.2973623138100265,0.072122009866251,-0.0006675698000093,-0.0488983274560306,0.61,0.39,0.6531026817419134,stairs up
-0.1654040527323,-0.8134765625,0.29968261718,0.0582464898927468,0.2407389819769184,0.9450488281204,0.45471191406,1.57495117187,0.07158908584049,0.2668916267163276,-0.1439160156245,-0.77124023437,0.32702636718,0.1011915940474844,0.3173099999641471,1.0458070328338,0.48436321736,1.73999603214,0.0777359716094419,0.2781138107886675,971.5966790146704,971.43707378816,971.7793994592,0.0069731284930397,0.3423256710400437,0.0832962355126239,-0.0002112836115593,-0.589648337967466,0.45,0.55,0.0560936895917567,stairs down
-0.3155346679664,-1.20727539062,0.64379882812,0.2440504027403692,0.4927779933465651,0.8351025390583001,0.32214355468,1.51953125,0.0894964513229127,0.2984107388588724,0.0196972656245,-0.7001953125,0.68225097656,0.1333875268289346,0.3643083710193741,1.0850588226611,0.5687419351,1.86492992932,0.0850185126221538,0.2908494800735307,971.7202339308913,971.57575496707,971.890093893,0.0067851327992966,0.3143389259299738,0.0821657296888441,0.0004433567043412,-0.6994708565862635,0.59,0.41,0.4200066159103006,stairs down
-0.54216125487975,-1.724609375,0.15002441406,0.2273740419003683,0.4756439547506796,0.8374670410123001,-0.07592773437,1.5634765625,0.1883584260805555,0.4329164283671304,0.1743170165983,-0.09887695312,0.52136230468,0.0218518871298669,0.1474538154617153,1.11519520743815,0.19234179529,2.04837567521,0.2185049004945884,0.4662750003936685,971.9097839706644,971.78984193187,972.04027665647,0.003813959591896,0.2504347246000407,0.0616026768406743,0.0007884384593594,-0.6698235624652886,0.47,0.53,0.3515348183653226,stairs down
-0.8960900878871,-1.60339355468,-0.55114746093,0.0305181675386322,0.1742572142005579,0.5334985351521,0.25903320312,1.22082519531,0.0348029322899641,0.1860884672098577,0.1985644531215999,-0.23327636718,1.05627441406,0.0450708032008811,0.211767441276691,1.0992070492943,0.87521081326,2.04837567521,0.0287535487039294,0.1691442607965454,972.0346488139504,971.977682938,972.1386237092,0.0011629452824067,0.1609407711999892,0.0340166217604673,0.0002536872195887,0.2340649286194911,0.45,0.55,0.3348786493904033,stairs down
-0.7666625976528002,-1.67053222656,-0.14794921875,0.1469832690219377,0.3824243097357018,0.3842468261687999,-0.67846679687,0.91198730468,0.0856838011775106,0.2919852430716715,0.360806884763,-0.29638671875,1.05627441406,0.0993939173446911,0.314478851050381,1.0801418514746,0.73806527425,1.85241845622,0.0294402346243335,0.1711520769701959,972.0452081215642,972.01051586017,972.13817868498,0.0006921937531053,0.1276628248099314,0.0262437189502519,-0.0001354343562603,1.5474399777745456,0.6,0.4,1.086102119698593,stairs down
-0.35523803710845,-1.1611328125,0.83947753906,0.4231821373122773,0.648896160125575,0.24064147949135,-0.72534179687,1.33166503906,0.2476546990891931,0.4964034907147079,-0.0313006591806499,-1.00146484375,0.76928710937,0.2210877472220075,0.4690227163857818,0.9961540400172,0.31338896671,1.65050159058,0.0816479430957953,0.285025794236796,972.0598149799696,971.92140557307,972.48213569216,0.0094022339911404,0.5607301190899534,0.0967224008241358,0.0001952610706763,11.802379000027006,0.68,0.32,3.1506093841719687,stairs down
-0.5397497558562498,-1.47766113281,0.71740722656,0.2150415251445394,0.4625649332999819,0.47755615234035,-0.20886230468,1.14733886718,0.0828448219571759,0.2871072932674995,0.3170782470672499,-0.16687011718,1.1162109375,0.0731787401521023,0.2698385562727126,0.9547286317465,0.54201073142,1.84387617568,0.0780214008966795,0.2786239291449967,972.1851217273554,972.01391443804,972.44378313328,0.0110399339408651,0.4298686952399748,0.1048080830430591,0.0011785434808428,-0.3567378221971777,0.51,0.49,0.5921268142336616,stairs down
-0.2170507812511499,-1.27746582031,0.81335449218,0.324785285459203,0.5684728305133915,0.7080377197219999,0.07385253906,1.46374511718,0.1215179468961822,0.347721666224153,0.258766479489,-0.07214355468,0.84436035156,0.0598720760014502,0.2440752253331808,1.0160708321238,0.34935542425,1.61675578265,0.0870683829374412,0.2943349130204469,972.3727648617598,972.22557350924,972.50066139279,0.0059887857266426,0.2750878835499861,0.077193534690474,0.0009775825036957,-1.036544921524037,0.51,0.49,-0.1393741173460699,stairs down
-0.70031249999685,-1.158203125,-0.10546875,0.0915446854778224,0.3018061663558804,0.64347839355105,-0.06506347656,1.50537109375,0.1548031465848774,0.3924654517941076,0.1845501708949,-0.07019042968,0.56176757812,0.0160374247211934,0.1263219600765738,1.0487083157401,0.30679662344,1.76127018684,0.0992318966824031,0.3142224326794494,972.5374332696088,972.44125036515,972.60887287913,0.001789679197097,0.1676225139799498,0.0421987061544725,0.0005864295116474,-0.6912209270798484,0.49,0.51,-0.3095134036230466,stairs down
-0.1621044921844,-0.4990234375,0.08166503906,0.0150541168719568,0.1223880970012897,0.9527966308561,0.82507324218,1.09509277343,0.0026549374023874,0.0513971080448648,0.31001403808155,0.1298828125,0.47607421875,0.0077879460579264,0.0880284404476011,1.0265710568974,0.95073820093,1.16006425049,0.0017380607403411,0.0415856999056095,972.690596629242,972.66985521049,972.71579003471,0.0001514858267254,0.0459348242200121,0.0122771494082221,2.193873315545803e-05,-0.6969271223511075,0.55,0.45,0.3820800603057689,lift up
-0.1249987792961,-0.86071777343,0.79760742187,0.3648341546647667,0.6025030986571297,0.7168292236296,0.25170898437,1.05786132812,0.0400067779703301,0.1995162752270562,0.1307885742172999,-0.1455078125,0.58203125,0.0372567240251258,0.192536854666841,0.9849982077345,0.69105015221,1.21283264144,0.0163217899062788,0.1274369685638648,972.6691088390652,972.54341457086,972.83936565654,0.0044003167214461,0.2959510856800307,0.0661688381176438,-0.0003094005348216,0.0243132684909626,0.56,0.45,0.5907066467593752,lift up
0.025502319335,-0.07849121093,0.27954101562,0.0037780908446913,0.0613123184235261,0.90912536620715,0.63427734375,1.17651367187,0.0235848240661903,0.1531890986521541,0.3459149169894499,-0.07641601562,0.77893066406,0.0768600313622323,0.2765424582327661,1.0240613040202,0.96168740017,1.18807576676,0.0018258358984155,0.042622842689378,972.6423955039834,972.54128612266,972.76727031066,0.0041190112006454,0.225984187999984,0.0640188733471795,0.0008106319728057,-1.1529062657772462,0.58,0.41,0.3773840692887341,lift up
0.17378356933245,-0.08764648437,0.330078125,0.0107561988110885,0.1034524906275007,1.00739135741845,0.87365722656,1.11486816406,0.0027808085383529,0.0526013735149678,0.0532244873033,-0.3916015625,0.26574707031,0.028110795804712,0.1672430621152594,1.042179155444,0.8748351606,1.17728240796,0.0031890393129167,0.0563302238265761,972.6284042860116,972.01097309509,973.52262119162,0.0915915963046768,1.5116480965300525,0.3018834846810164,-0.0017647470956336,1.6786430842856497,0.49,0.51,0.6344996307927414,lift up
-0.6724945068324999,-1.12036132812,0.11437988281,0.1762122501266621,0.4187256725781557,0.4886187744112,-0.21960449218,1.07153320312,0.1583994863579343,0.3969980968797516,0.14987121581845,-0.06323242187,0.47448730468,0.0214087687536407,0.1459511045174804,1.029704789194,0.75832924479,1.25502313207,0.0074442206853243,0.0860639272976645,972.431013700604,972.23093750933,972.59229632977,0.0135933266773,0.361358820439932,0.116298581435517,-0.0019085168782951,-1.4641181540527737,0.4,0.6,-0.2578131625099328,lift up
-0.3920471191369999,-1.09912109375,-0.04736328125,0.0690323934710499,0.2620824898838049,0.3913500976540999,-0.27014160156,0.76696777343,0.1155063287747978,0.3390114999980441,0.699219360348,-0.04931640625,0.97192382812,0.0581419748718628,0.240522899112545,1.015068284957,0.67481591619,1.20986813735,0.0069017356281893,0.0828687332475185,971.9625233024738,971.72787283426,972.23093750933,0.025163924953138,0.5030646750700498,0.1582343367552452,-0.0026013471216792,-1.2701022434517968,0.54,0.47,0.2840411740708233,lift up
-0.2284814453087499,-0.28100585937,-0.1806640625,0.0003884686536918,0.0196602723893489,-0.24286926269165,-0.26477050781,-0.22180175781,0.0001190805371397,0.0108850877099835,0.947104492183,0.92346191406,0.96667480468,8.491322023138398e-05,0.0091917710007499,1.0043566474133998,0.98879722273,1.01823797083,5.366193143151731e-05,0.007307093934962,971.4651785460496,971.23771616643,971.72787283426,0.0194176836825399,0.4901566678299787,0.1389985441079412,-0.0023973952401624,-1.1936043301484458,0.54,0.47,0.0850866404322744,lift up
-0.23684509276935,-0.32739257812,-0.21240234375,0.000824691658842,0.0286455616203947,-0.2231951904254,-0.27160644531,-0.12768554687,0.0007975112369819,0.0281695523712582,0.9230578613246,0.88500976562,0.96862792968,0.0006081225868709,0.0245984140532802,0.9795866448915,0.94153541058,1.02019162915,0.0005795832740826,0.0240142740409167,971.0714599087266,971.00631104686,971.23771616643,0.0044804278005361,0.231405119570013,0.0667684480988849,-0.0010784350250078,-0.5092403984925609,0.64,0.36,0.8695701184507172,lift up
-0.24573608398,-0.31481933593,-0.13159179687,0.0027402872281507,0.0522167194680971,-0.2505371093714499,-0.5966796875,-0.11145019531,0.0133517755934819,0.1152606468640294,0.933649291989,0.79968261718,0.98779296875,0.0019522663932581,0.0440738591604127,1.0062919103494,0.98365319748,1.04383903797,0.0001877038260254,0.0136662104072533,971.016376740319,970.98919501295,971.05037293456,0.0002106448000165,0.0611779216100103,0.0144772779215042,-5.513181618917951e-05,-0.3239161680343292,0.55,0.46,0.173475353703254,lift up
-0.6823748779261,-1.04821777343,-0.00073242187,0.1008363100266442,0.3167524719343339,0.4757666015593499,-0.11145019531,1.15148925781,0.0899608112694168,0.2991839019951938,0.3766723632772,0.05834960937,1.23645019531,0.1224264447113605,0.3490190718109882,1.06374222705855,0.90660796823,1.56464744342,0.0140515829061068,0.1182426530130996,971.0221656702192,970.94968691024,971.10878035182,0.0007388747273415,0.159093441580012,0.0271142094427411,0.0001412890662818,2.992641637985308,0.47,0.53,0.5964992297232116,lift up
-0.90337219237925,-1.08679199218,0.20581054687,0.0372543167882328,0.1925306344566797,0.4147772216761999,0.07507324218,1.06518554687,0.0403053446627233,0.2002593766578977,0.1834106445279,-0.07531738281,0.36535644531,0.0100941866187568,0.1002183400663924,1.0480207318933,0.70966351771,1.44387492262,0.0106824627767182,0.1030972863989867,971.0591827422066,970.92261905568,971.29455974616,0.0047813558251457,0.3719406904799598,0.0689742636497119,0.0003081685641714,3.963082706271261,0.76,0.24,1.8080137817452224,lift down
0.8572686767541501,0.20581054687,1.16088867187,0.0245570977722764,0.1563147858758572,0.19893249511495,-0.61535644531,0.66674804687,0.1237150358172831,0.3508510519268779,-0.07182617187385,-0.63830566406,0.23876953125,0.0576856783271855,0.2395772316718548,0.98637482483055,0.6996495928,1.1998539339,0.0116939181108468,0.1078677362342077,971.023783112424,970.85450746688,971.21507596685,0.010346820851242,0.3605684999699861,0.1014647069033655,-0.0012353489910551,-1.1451899110381152,0.49,0.51,0.0275955992013917,lift down
-0.7915454101531,-0.95935058593,0.59985351562,0.1496018381615413,0.3858157966837719,0.44571533202735,-0.25451660156,1.12756347656,0.0475531254880991,0.2175209412002869,0.07616882323925,-0.63830566406,0.23657226562,0.0255032451958406,0.1592976113124783,1.01931810505975,0.57475101688,1.31346221121,0.0136115594678331,0.1163765512055327,971.026035204872,970.93313198405,971.14117773555,0.0013968764801969,0.2080457514999807,0.0372812566552686,0.0003595520179675,1.7428954935713197,0.27,0.73,-0.610082201391206,lift down
-0.9191644287068502,-0.94165039062,-0.82666015625,0.0003649014769687,0.0190545787039202,0.375283203121,0.3427734375,0.57458496093,0.0013261149516116,0.0363247075260573,0.1540270996059,0.11767578125,0.24487304687,0.0004700676265685,0.021626772492346,1.0056930947277498,0.98123482491,1.0360876895,0.0001575425237766,0.0125201761632084,971.0306707047696,971.00419128794,971.04803784387,7.285267640585623e-05,0.0438465559300311,0.0085140127451059,-7.690676622349127e-05,2.398920792654125,0.4,0.6,-1.1877239172503116,lift down
-0.4634027099569999,-0.82666015625,-0.37316894531,0.0105227647859118,0.1023237556092537,0.6881524658172501,0.39050292968,0.90893554687,0.0275800305392342,0.1656566641778655,0.4928802490198499,0.24487304687,0.80969238281,0.0316243909916088,0.1773873418162943,1.00003421515945,0.9377620728,1.04481244093,0.0005396448005688,0.023172107728172,971.1915208964564,971.00740096458,971.39304573858,0.0118823751967058,0.3856447739999566,0.1087334507900962,0.0018248572357755,-1.0649056468518705,0.47,0.54,-0.1484604348940773,lift down
-0.33585876464555,-0.49072265625,0.15942382812,0.0480606874764671,0.218678723334221,0.7730230712851,0.67883300781,1.15979003906,0.0078438428923416,0.0883437812066019,0.49380126952735,0.22741699218,0.73022460937,0.0108844843283029,0.1040675833613013,1.0082279161031,0.77432017581,1.22592752871,0.0041578001326033,0.0643196014597444,971.6488676921086,971.39304573858,971.92118209922,0.0205525902883122,0.5281363606400191,0.1430028927570022,0.0024288750159234,-1.1906613658946097,0.47,0.54,-0.0507249700230437,lift down
-0.3180505371057,-0.36206054687,-0.18969726562,0.000801460813357,0.0282392193463326,0.92145751952705,0.8369140625,1.15979003906,0.0028779564130925,0.0535123035481292,0.3151977539024,0.05676269531,0.49133300781,0.0138503392438888,0.1173928769034537,1.0323866863052,0.98808761629,1.22592752871,0.001215644362513,0.0347788174137716,972.12295437946,971.90852662826,972.3622123205,0.0205059426540809,0.4536856922400147,0.1428405157537964,0.0023826888286174,-1.3395497764666084,0.48,0.52,-0.0407390300768589,lift down
-0.36733276366755,-0.42932128906,-0.30029296875,0.0013913315130122,0.0372071882228038,0.7636346435512001,0.59814453125,0.90075683593,0.0071571096697885,0.084387938246171,0.5984332275352501,0.33728027343,0.7451171875,0.0103841030384344,0.1016473439064803,1.0461470919301,1.00414508546,1.09743175722,0.0006107532288407,0.0246515610600333,972.516043865178,972.3622123205,972.60683204584,0.0046415210068377,0.2446197253399304,0.0679581739145747,0.0009776988359772,-0.6778868264399782,0.36,0.64,-0.7264479651563965,lift down
-0.70099426269215,-0.96008300781,-0.318359375,0.0706926817567111,0.265215418759784,0.5186779785122999,0.33068847656,0.74328613281,0.0227214487338168,0.150359041930134,0.40854431151985,0.13635253906,0.69787597656,0.0366452986720156,0.1909504443007546,1.0274962940018002,0.95439890637,1.09507253252,0.0009937226384828,0.0314444593734794,972.593138038242,972.54359997057,972.63701586882,0.0003863896019695,0.0934158982499866,0.0196075917429877,-5.703678283822684e-05,0.5570936639810995,0.4,0.6,-0.1008404702718045,lift down
-0.9106610107389,-1.0517578125,-0.80334472656,0.0040440392670757,0.0634335799930948,0.4246984863247,0.29235839843,0.59545898437,0.0048844694956198,0.0697140383864093,0.1833111572228,0.06604003906,0.30090332031,0.002863093173915,0.0533739422194524,1.0249550005098498,0.91134016451,1.18139739882,0.0044976401869658,0.0668965767885848,972.5784601359238,972.53844825904,972.60917005701,0.0002848270679674,0.0707217979700089,0.0168345755107628,4.780728664107599e-05,-0.0890644782110441,0.47,0.53,-0.5044383914634359,lift down
-0.1859667968739999,-0.9287109375,0.32080078125,0.147741744361181,0.3834097490145172,0.7633154296836,0.41381835937,1.06115722656,0.0334191231509008,0.1823513847908656,0.4698974609342,0.0615234375,0.98559570312,0.0526350592843774,0.2288490419205541,1.0317693458442,0.86444411344,1.28437937645,0.0061474197629858,0.0782092236515036,972.5854187855974,972.35595990239,973.01480734742,0.0201516179143216,0.6588474450298918,0.1416010586992557,-0.0003156293761951,1.996165574947975,0.69,0.3,1.342512937159368,lift up
0.1454498290985,0.03308105468,0.26440429687,0.0053245142083554,0.072786617158058,0.65664489745745,0.36096191406,1.02209472656,0.0310197162533232,0.1756832879703036,0.7215570068322501,0.36608886718,1.01965332031,0.0354794541642502,0.1878884160703609,1.02156509209005,0.97282807238,1.12222936314,0.0008562985708353,0.0291893315781849,972.5596989855526,972.50217874696,972.6246758908,0.0012730803703548,0.1224971438399507,0.0355909394158557,8.393123579471888e-05,-1.3409867194061214,0.54,0.46,0.1881091386632783,lift up
0.08812072753595,0.05737304687,0.12060546875,0.0003221219474796,0.0179028304394108,0.51356262206685,0.47399902343,0.55053710937,0.0004346682794275,0.0207965126410746,0.8652203369106499,0.822265625,0.91442871093,0.0004056848140024,0.0200912018040833,1.0105086158236,0.97362663703,1.04349723028,0.0001477998218994,0.0121268636831613,972.554723950506,972.50034324884,972.62891996894,0.0009571488874085,0.1285767200999998,0.0308603814456578,0.000147854885023,-0.1275773619811606,0.55,0.46,0.6841627265015897,lift up
-0.4745184326160501,-1.03833007812,0.09509277343,0.2183866369027373,0.4661487999750977,0.4231762695279999,0.12524414062,0.919921875,0.0196247553765872,0.1397377243256249,0.5586187744102,0.03662109375,0.94775390625,0.0898713931219126,0.2990351754498174,1.01720918130595,0.80653242073,1.3468708182,0.0077775056525554,0.087969415846035,972.5652607294128,972.45001018549,973.04501926595,0.0073180410758427,0.595009080460045,0.08533141783929,0.0007295668678409,12.619773797175924,0.64,0.36,2.6694443503668173,lift up
-0.9061743164024,-1.03820800781,-0.87231445312,0.0007445146630782,0.027217496023016,0.29126708984,0.17639160156,0.32678222656,0.0003945470515195,0.0198134882406404,0.4320532226519999,0.37719726562,0.46899414062,0.0001742054409782,0.0131656528046783,1.0456828160934,1.01277748149,1.11860075173,0.0005151210892326,0.0226394673918455,972.6329532007284,972.16220888347,975.72186006595,0.4956665091233526,3.559651182479911,0.702273576733267,-0.0061929571064881,12.422035779488906,0.73,0.27,3.543379427425726,lift up
-0.7666381835902,-1.35620117187,0.04016113281,0.0957379588222577,0.3086410034783882,0.3677075195272,0.15441894531,1.01354980468,0.0342595767795876,0.1846301137292876,0.1775805664035999,-0.97424316406,0.48022460937,0.213133372736984,0.4605080953395923,1.036897341464,0.79007890598,1.64940252576,0.0208411448073,0.1440032606688598,971.8132840284092,971.01216546354,972.46328631022,0.1534186347916729,1.4511208466800554,0.3907064647759422,-0.0042218812106325,-0.786165711856325,0.52,0.48,-0.2883969359710598,lift up
-0.7441748046840999,-1.04846191406,0.07788085937,0.0839720145473318,0.2890538954496119,0.4632189941374,0.099609375,1.16259765625,0.0443433372501288,0.2100514712252171,0.1621270751936,-0.98657226562,0.45751953125,0.1734712573719291,0.415456256524161,1.03773132885985,0.64805050297,1.52636811005,0.0185582888318074,0.1358878117700346,971.5527877395522,971.29727466133,972.1618463731,0.0423454633579392,0.8645717117700542,0.2052650385261688,-0.0018515248317491,1.1161598423732348,0.49,0.51,1.0509324376048803,lift up
-0.8410058593712,-0.84936523437,-0.83142089843,2.085038765222008e-05,0.0045547926093247,0.4426708984332,0.43237304687,0.45629882812,2.238005249797523e-05,0.0047189143068597,0.3740039062464,0.36303710937,0.38500976562,2.455852738295334e-05,0.0049432514346367,1.0213585703454,1.01206410526,1.0310481553,2.1530161696815136e-05,0.0046284458394077,971.0685873033244,970.80642626603,971.29727466133,0.0182015563856083,0.4908483952999631,0.1345754383373144,-0.002322049233204,-1.120838129613939,0.47,0.53,0.0195189808440725,lift up
-0.8176757812457999,-0.84973144531,-0.78881835937,0.0003655424070051,0.0190713055392161,0.4286767578089999,0.4033203125,0.447265625,0.0001247288833391,0.0111402530905945,0.3701977539024,0.35583496093,0.38439941406,8.275916826392794e-05,0.0090744351021211,0.9947254839358,0.96150943359,1.03307118862,0.0004976882754172,0.0222530859442041,970.6239987065908,970.48186341162,970.81691147341,0.0096857419546998,0.335048061789962,0.0981698184012088,-0.0015756281927588,-0.977177080857948,0.54,0.47,0.3093517846441711,lift up
-0.8387133789025999,-1.21838378906,-0.06579589843,0.0603464595100594,0.2450402563100788,0.4144702148401999,0.02612304687,1.07531738281,0.0609044936494479,0.2461706139676315,0.3691601562462,-0.01354980468,0.53491210937,0.015247672262921,0.1231723747502111,1.037671314376,0.07207711867,1.66467659772,0.0709138568018101,0.2656299823397221,970.4385764011292,970.25192352563,970.61629955341,0.0082651911417863,0.3643760277800538,0.0906855290885895,0.0007787593677121,-0.6738249881735223,0.4,0.6,-0.5455939400518881,lift up
-0.9025878906214,-1.21716308593,-0.73107910156,0.0076127573472839,0.0870327154611846,0.430554199215,0.29772949218,0.64819335937,0.0093161144748053,0.0962784186743393,0.252885742184,0.00646972656,0.4248046875,0.0090918533528167,0.0951125338010329,1.0406458427038,0.91969029129,1.38850022984,0.0069747426850993,0.0833058759732697,970.5181973987632,970.47160363277,970.62523929671,0.0009793840880888,0.1536356639400082,0.031216777022114,9.892051474477764e-05,3.63003834332646,0.65,0.35,1.689850520800439,lift up
0.3141235351534,-0.13452148437,1.16735839843,0.0909767296133162,0.3008684861617275,0.8010229492158001,0.32507324218,1.37585449218,0.0541602519830584,0.2321410147370411,0.4939599609339999,0.07006835937,0.89965820312,0.0330002507012612,0.1812049928885927,1.0509410168651998,0.42242759259,1.55393982165,0.0573641494680416,0.2389086200217595,970.53331848521,970.4485295797,970.65045012337,0.0015765793602719,0.2019205436699849,0.0396067729494667,0.0005047943644673,1.5949184661971074,0.6,0.4,0.6576953428586483,stairs down
0.1919799804666,-0.32971191406,1.36450195312,0.0967118783503743,0.310206897019751,0.9059179687462,0.36474609375,1.56176757812,0.0987916915499392,0.3135246929544618,0.4062011718716,-0.19714355468,1.19958496093,0.0637577598411391,0.2518709412416078,1.0778405881062,0.41747149184,1.86525496626,0.1193645836709222,0.3446269878471035,970.7109836261236,970.5174568576,971.06038737164,0.0189483641869082,0.5429305140399947,0.1373084934225619,0.0017291260059541,0.7997148322255119,0.66,0.34,1.2120886874603982,stairs down
-0.4180981445303999,-1.52734375,0.4501953125,0.3098475612016447,0.5552461826934395,0.6723120117147999,0.205078125,1.5546875,0.1480695878381807,0.3838349122982298,0.2028613281212,-0.05346679687,0.71423339843,0.02370537187553,0.1535800931636401,1.0345741005458,0.37162674222,1.63699277527,0.0772191525574214,0.2771877645110518,970.8006000657192,970.60294635864,971.02652826985,0.0062327878204473,0.4235819112100216,0.0787503897218619,0.0006900153616234,0.5640480619147659,0.44,0.56,-0.1217660857378466,stairs down
-0.889440917965,-1.39440917968,-0.33215332031,0.0392600604937407,0.1976455417945775,0.5102441406216,-0.08947753906,0.78674316406,0.0297052901231864,0.1719208063980928,0.1443432617172,-0.23986816406,0.62048339843,0.0472003618125872,0.2167126207758198,1.0694032395842,0.38658253361,1.58527891456,0.0444731676649297,0.2103587455434289,970.9237565648116,970.83130529377,971.01564626974,0.0023367185317933,0.1843409759700307,0.0482186161055495,-0.0002290630103087,-0.686111240225256,0.6,0.4,0.3537713857157928,stairs down
-0.4661352539034,-1.00256347656,0.05029296875,0.1340062211436656,0.3651522833530516,0.7967309570276,0.32946777343,1.21875,0.0731249752298749,0.2697394119399788,0.112438964841,-0.17114257812,0.27905273437,0.0126265013331286,0.1120864346228524,1.0369519185182,0.86263341459,1.23052291145,0.0081351171184602,0.0899691143274621,970.9259525749236,970.87212138773,970.99249869969,0.0006895580479114,0.1203773119600555,0.0261937064515857,-5.896948937205389e-05,0.920635810167474,0.66,0.34,0.7570157333742268,stairs down
-0.0557592773422,-0.26806640625,0.30493164062,0.0184701604990184,0.1355647804428694,1.0295605468715998,0.61206054687,1.95104980468,0.0624462997254011,0.2492670620574931,0.0410839843746,-0.255859375,0.55126953125,0.0345132172158056,0.1853123070109662,1.0545315998654,0.65905915465,2.03426539642,0.0679472807972174,0.2600145080437461,970.90592879512,970.83387614704,971.04400247106,0.0025641791422805,0.2101263240200523,0.050510971546478,1.979432526605237e-05,0.5169890767208862,0.56,0.44,0.9189971199176388,stairs down
0.2446044921851999,-0.23266601562,0.69116210937,0.0463833665122464,0.2148288846493533,0.693090820309,0.20654296875,1.3466796875,0.0813353732601992,0.2844796941679638,0.4786206054672,-0.16467285156,1.27624511718,0.1836664928309966,0.427490538336045,1.014109841893,0.60420476585,1.39140078518,0.0509482028007721,0.2251520859036581,971.0135746592496,970.91023676731,971.33762595573,0.0055521476345936,0.4273891884199656,0.0743262194411951,0.0006410472547559,5.331185696601215,0.58,0.42,1.8318723005488544,stairs down
-0.7958691406221999,-1.39147949218,0.26904296875,0.1594344440769448,0.3982929472844831,0.5454858398404,0.27587890625,1.53881835937,0.0733217809007406,0.2701021510396335,0.2132641601525999,-0.03283691406,0.57873535156,0.0177574633411623,0.1329235721174261,1.0697984570239998,0.48750690858,1.65135970697,0.0816446971783683,0.2850201285742404,971.2070993630527,971.0099937944,971.31550392252,0.0054439374156276,0.3055101281199768,0.0735983541157649,0.0011452481265017,0.0225146686582324,0.44,0.56,-0.7419570260595578,stairs down
-0.9924169921828,-1.59069824218,-0.51306152343,0.0615754113367589,0.2475227954756393,0.4490722656219999,0.23132324218,0.92138671875,0.0213060906186102,0.1456006873799611,0.1466674804658,-0.13244628906,0.48583984375,0.0180529986490224,0.1340251232261224,1.1160931628514,0.62748523366,1.78699298333,0.0631503677275753,0.2506683384253733,971.3565799899204,971.29206170098,971.50254136349,0.0025944919490125,0.2104796625100107,0.0508086556530227,0.0006719295213001,0.7286306524438761,0.58,0.42,1.1027639146399848,stairs down
-0.4581127929644,-0.69372558593,-0.31323242187,0.0092842381264462,0.0961135627048232,0.9059790039027998,0.6513671875,1.17700195312,0.0259599172227859,0.1607175088055811,-0.0997265624972,-0.23767089843,0.04431152343,0.0055108465498306,0.07404925601977,1.0273719794690002,0.76511776918,1.35878302849,0.0257977050756228,0.1602145953096805,971.252269130982,971.12628149248,971.3941074526,0.0036525618198064,0.2678259601200352,0.0602851475133588,-0.00078388750808,-0.7383866571571436,0.48,0.52,0.0826464180208591,stairs up
-0.5887890624955999,-0.97839355468,-0.18676757812,0.0277844642035868,0.1662694857229337,0.8059204101527999,0.51416015625,1.11633300781,0.0250275525916163,0.1578049898724952,-0.0688134765612,-0.39392089843,0.10620117187,0.0110900965403551,0.1050459235651407,1.020865557537,0.78866164723,1.32735231025,0.022443897865955,0.1494378746390127,971.0980550410432,971.00541546845,971.22445487881,0.0030396923798219,0.2190394103599828,0.0549953990614021,-0.0004913744242431,-0.3426303759464502,0.46,0.54,0.1873543632657839,stairs up
-0.2839550781238,-0.90319824218,0.22705078125,0.1009699443820801,0.3169622921739583,0.8326635742144,0.5390625,1.14001464843,0.0255577502478229,0.1594677443766728,0.3300463867161999,-0.10107421875,0.83459472656,0.0750934920768671,0.2733459796969453,1.0279658051274,0.72216303722,1.37566527614,0.0269237345378948,0.1636738093440896,970.9370450335092,970.82714746685,971.42868554658,0.0117000676717445,0.6015380797300622,0.1078960950794134,-0.0008132371055362,6.522271223032128,0.7,0.3,2.1738462050500456,stairs up
-0.00832153320565,-1.01062011718,0.21655273437,0.0783792514151263,0.2792621620593286,0.89164611815965,0.43725585937,1.12292480468,0.0197996320700933,0.140358946667973,0.4163983154257999,0.06030273437,0.65783691406,0.0192815554616403,0.1385104605592378,1.03675966918745,0.82476897653,1.2448767875,0.0122284196464064,0.1103053831332561,970.9060482629448,970.83971848079,971.07040803346,0.0026038842228447,0.2306895526700145,0.0509005383245648,-0.0002388764331639,2.4995002957731094,0.62,0.38,1.5888828526822552,stairs up
-0.98363159179335,-1.14794921875,-0.85693359375,0.0033146540108876,0.0574289190289456,0.4751550292927,0.2607421875,0.66613769531,0.0096627563552294,0.0980532639612434,0.18504150390315,-0.06884765625,0.37731933593,0.0150903124962331,0.1225351416278284,1.11821260178745,0.96982669217,1.29839554086,0.0050972159345795,0.0712160786262948,970.909691031514,970.88049818389,970.95625653809,0.0003407410628831,0.0757583541999338,0.0184129671038848,6.634342835325038e-05,-0.0368014810136507,0.6,0.4,0.7347081169192708,stairs up
-0.9784252929646,-1.26098632812,-0.59899902343,0.0170837597692611,0.1303776858607901,0.4768994140586,0.24450683593,0.76684570312,0.0161594724895323,0.1268017157891986,0.149609374998,-0.09362792968,0.40637207031,0.0157870162067157,0.1253318839149964,1.1163200091416,0.80778391914,1.31146474154,0.009795783463642,0.0987259061560028,970.8393781495536,970.77873299148,970.9165872198,0.0020908300907247,0.1378542283200658,0.045611138335621,-0.0006825839388115,-1.2952297489176017,0.48,0.52,0.2222946340213782,stairs up
-1.0123974609344,-1.25756835937,-0.83459472656,0.0116657223295304,0.1077376151484839,0.4109490966762999,0.29113769531,0.55187988281,0.0053111256363691,0.0726950480307102,0.13808105468475,-0.0458984375,0.25,0.0068640135999018,0.0826419598745232,1.10705510157245,0.92756668181,1.30006621013,0.0088144404161092,0.0936502440681746,970.6923753166792,970.63217504452,970.75098161127,0.0013876155225668,0.118806566750095,0.0371574682258356,-0.0006150734213002,-1.2939168052312977,0.44,0.56,-0.1682835743426057,stairs up
-0.9578082275353,-1.27783203125,-0.68188476562,0.0217737223302385,0.1471898560315463,0.3696514892538999,0.2138671875,0.56225585937,0.0066386572195755,0.0812740052752275,0.1742291259728499,-0.02612304687,0.48486328125,0.0111068035455332,0.1051250185626884,1.0508416199996,0.78746878319,1.33865366428,0.0195458185270969,0.1394564069322793,970.535982913812,970.45096713181,970.61591631724,0.0019987227214521,0.1649491854300322,0.0445951691088276,-0.0006772718514276,-1.0445697764112574,0.58,0.42,0.1506993632737826,stairs up
-0.9587286376917,-1.14086914062,-0.64807128906,0.0108369288728116,0.1038399933958375,0.46305297851105,0.19641113281,0.77514648437,0.0177716671386734,0.1329767227862834,0.1776000976539499,-0.23095703125,0.48486328125,0.0221366761016169,0.1484115653212675,1.09895947768765,0.89293093563,1.27053350353,0.0079397673150816,0.0888823293940151,970.4551249293716,970.41078592583,970.49084007066,0.0003444116130661,0.0800541448300009,0.0185118760529774,-0.0001045809173686,-0.1639528023684855,0.48,0.52,-0.4199042420298094,stairs up
-1.0132916259731002,-1.1494140625,-0.84497070312,0.0045503631275307,0.0672875271643495,0.4513580322230999,0.27783203125,0.69006347656,0.0111805712664608,0.1054735436501899,0.1636047363261999,-0.09118652343,0.40393066406,0.0180089858227567,0.1338616483300686,1.13221576173415,0.91809631435,1.28440513227,0.0078703811038327,0.0884931025465464,970.4439993871608,970.41510093723,970.48032669444,0.0003312839637838,0.065225757209987,0.0181556477153777,7.657505309850119e-05,-0.8520296835950814,0.5,0.5,0.3626056487192577,stairs up
-1.02164855956595,-1.32067871093,-0.75366210937,0.017642529106149,0.132492703424069,0.4064038085900999,0.18920898437,0.67443847656,0.0125498123565418,0.1117455291936064,0.16512451171525,-0.02197265625,0.38793945312,0.0108546604163596,0.1039249109418809,1.12346512556285,0.85073513119,1.3485700688,0.0149385103356333,0.1219172579414219,970.4063107706306,970.32333423339,970.46806962601,0.0017845555010773,0.1447353926199639,0.0421382572441239,-0.0006592646632805,-0.8514436041987219,0.44,0.56,-0.4666972329842124,stairs up
-0.9957543945278,-1.33703613281,-0.82287597656,0.0151233357340903,0.1226691446755047,0.3884362792938499,0.26440429687,0.529296875,0.0048733670372887,0.0696347628853745,0.11554016112945,-0.07275390625,0.2197265625,0.004640973392476,0.0679541648871768,1.08146679670345,0.90428767189,1.37899394202,0.0107569261682933,0.1034559884078824,970.2598656716314,970.17737608542,970.35276797619,0.0025219358233419,0.1753918907700153,0.0500931746271411,-0.0008480161553624,-1.0922606392909322,0.46,0.54,0.0102335379340765,stairs up
-0.9493237304652502,-1.32604980468,-0.58935546875,0.0259755870864558,0.1607660074487873,0.41276062011415,0.15502929687,1.14855957031,0.0313999740138073,0.1767568220571369,0.18429687499655,0.01696777343,0.50769042968,0.0142862156168834,0.1192257712862407,1.07592244807875,0.75329241692,1.41396370958,0.0193432828419966,0.1387319949679475,970.0995061018843,970.02055462581,970.17615049186,0.0020960888416102,0.1555958660500209,0.0456684617367626,-0.000735416637203,-1.1999786538258377,0.52,0.48,0.0834260058175404,stairs up
-0.94491516112855,-1.14611816406,-0.67736816406,0.0131322954165395,0.1143093781780694,0.44218872069935,0.25073242187,0.7509765625,0.0145766832705934,0.1204317227903033,0.19490722655905,-0.0517578125,0.43493652343,0.0115542770868682,0.107221759458768,1.0710170551668,0.7598626043,1.35097855979,0.0184660909024865,0.1355498448836224,969.9808488091388,969.93839521574,970.03385357656,0.0005354508446239,0.0954583608199755,0.0230818887962141,-0.0002750664806257,-0.3083082648963424,0.58,0.42,0.2378993879901234,stairs up
-0.98605346679295,-1.13977050781,-0.86315917968,0.0030831846984177,0.0553874423937919,0.4272448730431499,0.27612304687,0.62890625,0.0089680600391241,0.0944627955278085,0.13743347167675,-0.05920410156,0.33569335937,0.0109782273438732,0.1045147654982485,1.0919472950187,0.94411401202,1.27694340069,0.0043145825910904,0.0655210628587098,969.976661011153,969.9329113781,970.01513815961,0.0002822300285746,0.0822267815100303,0.016757651339962,6.467071743153274e-05,-0.1047862245018347,0.54,0.46,0.2466859624817909,stairs up
-0.952056884762,-1.2578125,-0.24328613281,0.0491604277461513,0.2211665110441013,0.43825317382475,0.20031738281,0.97802734375,0.0238392124088941,0.1540130395351306,0.19448303222395,-0.08801269531,0.99255371093,0.0570856722598522,0.2383280174435077,1.11909338636505,0.80550185911,1.41452765849,0.0134338537300632,0.1156143782641803,969.974129804608,969.9260907008,970.00411450324,0.0004639187325875,0.0780238024399295,0.0214848583640803,-0.0001316336430729,-0.4875216440486118,0.47,0.53,-0.6613571383075335,stairs up
-0.14235290527065,-0.38000488281,0.01232910156,0.0096806416703776,0.0981439680368883,0.8629846191375501,0.53649902343,1.21166992187,0.0345705294594908,0.1854661069095736,0.4987164306605,0.2353515625,0.86791992187,0.0235765399610512,0.1531621926626999,1.0247607530180998,0.74386683756,1.37092200722,0.0312350274630923,0.1762919519597445,969.8792767147374,969.76971077482,969.97535466309,0.0029702320891284,0.2056438882699467,0.0543634153515285,-0.0008131495845625,-0.6346538309656031,0.51,0.49,0.0077738235905107,stairs up
0.0084539794914999,-0.49597167968,0.26611328125,0.0278126923869387,0.1663539266894655,0.7090631103475,0.36596679687,1.31359863281,0.0492438554009447,0.2213540966956339,0.7139294433553001,0.21374511718,1.23083496093,0.0518439262343861,0.2271226686247197,1.04248799968245,0.53629151932,1.4002363793,0.0542833733535832,0.2324047256120566,969.7205480721104,969.66103265178,969.83192659819,0.0014986993552029,0.170893946409933,0.0386161346903982,-0.0005236613812725,0.5802475749469669,0.48,0.52,0.6980953990004682,stairs up
0.11338439941175,-0.15478515625,0.31970214843,0.0153296549555337,0.1235030634468474,0.8286968994100999,0.44421386718,1.24658203125,0.0401790006644081,0.1999452566606323,0.55739501952745,0.32495117187,0.89270019531,0.0188197958950508,0.1368418682844383,1.01740099176315,0.70136291324,1.47822913212,0.0493827257632932,0.221665992282255,969.6083732824798,969.55764558115,969.66392773811,0.0010075218351612,0.1062821569599918,0.0316620312991042,-0.0005363752120482,-1.1541866495951814,0.55,0.46,0.0110193109462025,stairs up
0.39272277831615,0.2529296875,0.59936523437,0.0070822969868621,0.0839457295038157,0.8102703857380001,0.42553710937,1.38671875,0.0330773833826306,0.181416637786388,0.5130847167932999,0.28479003906,0.73608398437,0.0137864732248238,0.1171219059727929,1.0446211930308,0.67954901676,1.52515967912,0.0366514483623283,0.1909664659580751,969.6408189769076,969.58241974305,969.73332304208,0.0018177950068896,0.1509032990300056,0.042528884676831,0.0006900756291047,-0.341777965842386,0.57,0.42,0.8198051456846916,stairs down
0.361055908199,0.08618164062,0.6005859375,0.0129556351436484,0.1135379098272034,0.8472857665978001,0.43115234375,1.34301757812,0.0357336156894844,0.1885601962531779,0.4581378173790499,0.25109863281,0.74072265625,0.0156860336702212,0.1249303946278492,1.03607852373,0.54402542209,1.60143830352,0.048984421695093,0.2207702416237694,969.831162839453,969.73128799803,969.9134143705,0.0028009186014476,0.1821263724700657,0.0527912304122608,0.0008959544593783,-1.2864026392318062,0.49,0.51,-0.1894597350146589,stairs down
0.3436260986288,0.00476074218,0.57629394531,0.0154399725776784,0.1239466526969973,0.854143676754,0.34704589843,1.33251953125,0.0394206717085968,0.1980494088606523,0.45311218261305,0.26599121093,0.85888671875,0.0142881162499076,0.1192337018994968,1.03453817828635,0.43728119623,1.63496757271,0.0517434579249416,0.2269024914700517,969.9624939638752,969.88721947961,969.99232656667,0.0007550200158407,0.1051070870599915,0.0274088473993617,0.0003988404890997,0.7661480502101168,0.32,0.69,-1.3020933946956568,stairs down
0.3203533935513999,0.15063476562,0.44787597656,0.0042470482840985,0.0650062538735932,0.8495739746059001,0.58520507812,1.03466796875,0.0095859525775398,0.0976628015912517,0.4478814697226499,0.21423339843,0.75427246093,0.0162452956984746,0.1271379928266224,1.0227017683937,0.83800971689,1.20898952082,0.0090543155904432,0.0949159839673542,969.9822896834178,969.95686968737,970.01007792376,0.0001522169807403,0.0532082363899917,0.0123067418855149,7.779892333146213e-05,-0.1425116587894486,0.49,0.51,0.0230413592396028,stairs down
0.2357946777306,-0.00573730468,0.46569824218,0.0134692468098736,0.1157665779740608,0.69862182616855,0.39562988281,1.09191894531,0.031461290497217,0.1769293193473905,0.69185241698835,0.39123535156,0.95764160156,0.0204019164018484,0.1424777414891154,1.0305797604433,0.72097162347,1.4965821557,0.025369348486025,0.1588788901761179,970.01387341035,969.96986713688,970.07574309488,0.0011376002467549,0.1058759579999559,0.0336439035416699,0.0005432974234991,-1.3556070042190504,0.59,0.41,0.4429590851824037,stairs down
0.2937707519492,0.13342285156,0.49597167968,0.0071645528092915,0.0844318070708255,0.7558685302697501,0.45422363281,1.10107421875,0.0288988443084487,0.1695710767993956,0.57257568359055,0.39123535156,0.87072753906,0.0138754645244027,0.117499307239578,0.9981043789465,0.67955294186,1.44399231078,0.0391539892011013,0.1973783657220209,970.1712629348872,970.07574309488,970.2777376913,0.0037892782142844,0.201994596420036,0.0614030278016732,0.0010590037223268,-1.228427078287749,0.54,0.47,0.0731043700299499,stairs down
0.26304687499625,-0.03186035156,0.45739746093,0.0138695282791039,0.1174741700873363,0.8213159179639001,0.28894042968,1.44543457031,0.0529419073149854,0.2295151362729929,0.5208984374969,0.25170898437,0.84118652343,0.0219691310396995,0.1478488599364265,1.0169364634044,0.41596878934,1.61324834443,0.0696136391320166,0.2631835308987942,970.36245338114,970.2777376913,970.45293114458,0.0020287699876358,0.1751934532800305,0.0449291234913126,0.000752288734307,-0.7936687417373371,0.4,0.6,-0.1351545353463044,stairs down
0.2677569580034,0.12866210937,0.45666503906,0.0080891582350768,0.0897146166680851,0.8784649658165,0.68627929687,1.31237792968,0.0138346691643789,0.1173264497824642,0.5014971923789501,0.3564453125,0.67346191406,0.0060303869375506,0.077461183846252,1.051812338505,0.82966625991,1.49348095062,0.0164815743986804,0.1280592305407424,970.464616190072,970.4259883325,970.48198494923,0.0001592826220119,0.055996616729999,0.0125891305856231,0.0001238114105155,1.781414097304438,0.41,0.58,-1.4889940234453156,stairs down
0.2947644042932,0.15209960937,0.44360351562,0.0049050722275632,0.0698609108616932,0.84205078124605,0.65478515625,1.02770996093,0.0079553350970392,0.0889694240824005,0.4789678955032,0.32897949218,0.62377929687,0.0054715723245011,0.0737849202945875,1.01735813929735,0.87508987067,1.22438289367,0.0086116113739452,0.0925664805265684,970.4742002407322,970.46543412957,970.48150409707,2.0393347431661084e-05,0.0160699675000159,0.0045045955084227,1.3462107662529503e-05,-0.9787337495947216,0.46,0.55,-0.2941299593407543,stairs down
0.25841125487915,0.09655761718,0.41772460937,0.0057714621322016,0.0757799763891532,0.8349127197224501,0.53881835937,1.20202636718,0.0246835774657901,0.1567168133241011,0.4845068359336499,0.28369140625,0.67407226562,0.0092365204628563,0.0958662498512487,1.0045171668877,0.72446834086,1.34569029116,0.0291867979500011,0.1704138021412912,970.5315734108196,970.4708439329,970.60885438581,0.0016388211286941,0.1380104529099526,0.0403810230560178,0.0006835562290314,-1.0084842691647409,0.49,0.51,0.2054369779921021,stairs down
0.3248657226527,0.16088867187,0.556640625,0.0078729608251365,0.0885076043117812,0.8663299560504001,0.47839355468,1.29858398437,0.0334139859314173,0.182337368637809,0.42382934569905,0.25756835937,0.67224121093,0.0090279090928885,0.0947774738396425,1.0220646058592002,0.60786002691,1.50049760631,0.0413506209092022,0.2028395124344768,970.7131750180428,970.60885438581,970.806434847,0.0033048854203528,0.1975804611900002,0.0573442324323126,0.0009855837331563,-1.0834666800923085,0.47,0.53,-0.099608890082491,stairs down
0.32537536620725,-0.00830078125,0.60656738281,0.0144754339608309,0.120012735953426,0.8603124999957,0.35424804687,1.359375,0.0425062302009128,0.2056543193076874,0.4195330810515499,0.20825195312,0.70812988281,0.0133264636989997,0.1151513412015019,1.02005381108815,0.42111115711,1.50344469493,0.051720143103595,0.2268513662909638,970.8703457708016,970.80576343544,970.92391399,0.0014813560569463,0.1181505545599748,0.038392047049638,0.0006386842786415,-1.455038204965467,0.56,0.45,-0.0244217045068344,stairs down
0.2747802734341,0.03466796875,0.57507324218,0.0196820797032827,0.1399416639345349,0.85777099608995,0.69287109375,1.13610839843,0.0115910298320989,0.1073921537307938,0.4780694580038501,0.32189941406,0.6884765625,0.0081883877961272,0.0902632032289272,1.034626069919,0.83112577858,1.25152908023,0.0086821832854297,0.0929449964710452,970.93267900198,970.91898140597,970.94712327946,5.206940170246993e-05,0.0281418734899716,0.0071978506996156,6.241634698018363e-05,-0.4899333315242673,0.47,0.53,0.0051741553886499,stairs down
0.19455017089525,-0.03894042968,0.45739746093,0.0105810107741929,0.1026065578816576,0.7652038574179499,0.37341308593,1.14477539062,0.0443162276741135,0.2099872532696757,0.58904724120715,0.27990722656,1.12121582031,0.0433162512103209,0.2076046000315729,1.02465085706535,0.76904627239,1.32940901788,0.0182677468372117,0.1348199098910309,970.9461143450302,970.92204467434,970.97958575578,0.000104641337986,0.0575410814400356,0.0102038292467162,9.500673369965102e-06,1.0040225422384088,0.54,0.46,0.5322989581581079,stairs down
0.20182189941045,-0.00671386718,0.46411132812,0.0148468457777534,0.1215426326391881,0.7774072265595001,0.40100097656,1.24865722656,0.0422662999700398,0.2050730808033801,0.60839416503475,0.33264160156,0.89392089843,0.020434201418997,0.1425904288930433,1.02515770817345,0.58471278306,1.4857195587,0.0422846281293619,0.2051175394468136,970.997661163833,970.92619449147,971.07691804946,0.0017907955775663,0.150723557989977,0.0422118656266041,0.0006864024080647,-0.951327453308196,0.43,0.56,-0.3022307329001273,stairs down
0.2584350585898,0.07666015625,0.43530273437,0.0069859683811637,0.08337288851454,0.8735949706996,0.48571777343,1.23583984375,0.0313700761012193,0.1766726513094578,0.4673077392537499,0.27868652343,0.70581054687,0.0106160101695966,0.1027761164801857,1.02964771214095,0.62215249373,1.44374232702,0.0370715163507123,0.192057696458535,971.1657996514924,971.07691804946,971.27730275217,0.0034427126275168,0.2003847027100391,0.058527763193029,0.0010031014218438,-1.2398466061109708,0.56,0.45,0.0750045342654196,stairs down
0.2619421386689,0.09497070312,0.4833984375,0.007648642504847,0.0872376025136112,0.9049047851524,0.4111328125,1.36413574218,0.0462770003707503,0.21458242092235,0.38347290038695,0.15490722656,0.67993164062,0.0145357172079196,0.1202623740904861,1.02637210782615,0.46623664021,1.4488618622,0.0494443910488557,0.221804348680569,971.3443593577696,971.27730275217,971.41566711674,0.0015793284338622,0.1383643645699521,0.0396412889761792,0.0006412871055605,-1.3152785367514233,0.49,0.51,0.1219256533305474,stairs down
0.28579528808255,0.08117675781,0.44921875,0.0072794588034124,0.0851061778568124,0.84567382812115,0.58654785156,1.09765625,0.0120118455432148,0.1093242256569822,0.4971307373012,0.23156738281,0.71801757812,0.0106054626813349,0.1027250474223706,1.03061295554415,0.8463542185,1.2631414382,0.0116244816955485,0.1075470096612212,971.4016466550496,971.37509620368,971.42422187597,0.0001532694508785,0.0491256722900743,0.0123492146966585,0.0001578764947562,-0.6210856574528343,0.43,0.56,-0.4373685275173249,stairs down
0.2843341064410999,0.05407714843,0.43811035156,0.0093480195048751,0.0964431407999073,0.82687744140225,0.40100097656,1.23791503906,0.021928226402752,0.1477111548622456,0.4938824462855,0.34924316406,0.66735839843,0.0072117552950498,0.0847094830498603,1.01008579218115,0.53450622899,1.38602005455,0.0259920953060054,0.1608170850049069,971.4242217070636,971.40626330357,971.47204529464,0.0002484666608682,0.0657819910700254,0.0157233688363512,0.0001740217995629,1.860141555299946,0.71,0.28,1.6218962406592976,stairs down
0.2925292968711999,0.10583496093,0.46984863281,0.0088529727566885,0.0938547169454209,0.7832519531216,0.49096679687,1.021484375,0.0184965169612327,0.1356614697562525,0.5455847167939,0.36242675781,0.9267578125,0.01698495522672,0.1300001171175874,1.0059451783586,0.66749948894,1.36074394597,0.0290520257808405,0.170019897811804,971.5607712731183,971.47204529464,971.65589687261,0.0028692673803046,0.1838515779700174,0.053431461176007,0.0009133642731043,-1.10040083927094,0.52,0.48,0.1472276642566467,stairs down
0.2791192626915,0.03369140625,0.57080078125,0.0127281727500382,0.1125368023638845,0.8696954345671002,0.47863769531,1.32153320312,0.0322837460876773,0.1792270274184086,0.45873413085465,0.31115722656,0.71154785156,0.0087959888817726,0.0935521722749602,1.0297075320039,0.60170617802,1.47968608227,0.0381467148138538,0.1948229484423858,971.7731285069408,971.65150907877,971.86421273595,0.0042245309673089,0.2127036571799863,0.0648336973530925,0.001107270855851,-1.3191811392924024,0.52,0.48,-0.1336387695093353,stairs down
0.24934753417725,-0.16271972656,0.56311035156,0.0355603580486396,0.1881025152899249,0.8378802490189,0.04272460937,1.66027832031,0.1134116238954291,0.3359234522565401,0.4789227294881499,0.07885742187,0.86401367187,0.0353368697870143,0.1875104942078689,1.02080543133815,0.09108081496,1.86222833197,0.1439151980524717,0.3784119739942294,971.9433782320774,971.860273691,972.01909735767,0.0015554008224229,0.1588236666700595,0.0393398502578593,0.0005377613042436,-0.7463382358021255,0.43,0.56,-0.3886944203415054,stairs down
0.2171813964804,0.04235839843,0.68530273437,0.0138490617501242,0.1173874628798731,0.8563879394495,0.19140625,1.533203125,0.0619151848211138,0.2482047721076455,0.5157470703085,0.26110839843,1.01879882812,0.0297384067396308,0.1720166117150687,1.0435310495457,0.60106455022,1.67734247677,0.0628956693694998,0.250162329343673,971.8225228963082,971.6985294201,971.98383376334,0.0038335640677022,0.28530434324,0.0617607986295816,-0.0006866825269421,0.1971896819618241,0.48,0.52,0.403589684059904,stairs up
0.2218798828090999,0.00695800781,0.48217773437,0.0150135214962428,0.1222229679264976,0.8523986816364001,0.53442382812,1.64892578125,0.0742388440662166,0.2717860368854248,0.4743054199178,0.24755859375,0.87780761718,0.0268954839823183,0.1635879169205559,1.0157255171029,0.66889453333,1.74078173008,0.0850739803203864,0.2909443424759872,971.6449872644044,971.52906441761,971.78344441007,0.0037769879294418,0.2543799924600307,0.0613033685028371,-0.0008749594927917,-0.3790957170299727,0.57,0.43,0.4660461930631036,stairs up
0.2501794433559,-0.01733398437,0.52331542968,0.0179756455850593,0.1337376811416064,0.897088623043,0.46862792968,1.52062988281,0.0542920301835177,0.2324232562214895,0.4709643554644001,0.24755859375,0.82409667968,0.0198267491678645,0.1404550298922228,1.0584391488213,0.62164096597,1.68323607307,0.0608097453729093,0.2459790573322143,971.517412460452,971.4236141081,971.61758006007,0.0022086483165397,0.1939659519700853,0.0468786206597108,-0.0003408857950573,-0.2506165870406569,0.61,0.39,0.2368842925565862,stairs up
-0.4812426757801,-1.14990234375,0.322265625,0.3022653982302973,0.5484104951941984,0.6957177734332001,0.35131835937,1.15747070312,0.0410981609235241,0.2022193613848747,0.3211425781212,-0.18017578125,0.84130859375,0.0462706541294656,0.214567706933775,1.0869681374413,0.66129552284,1.33550328453,0.0250619086935091,0.1579132646424662,971.4172254111302,971.37355044524,971.48429673757,0.000518088174219,0.1107462923300772,0.0227045751633443,6.2884953106511e-05,1.3269328916691183,0.5,0.5,0.7397336238957214,stairs up
-0.9975573730434002,-1.11413574218,-0.8681640625,0.0031821959865855,0.0562697521467138,0.4942492675741,0.32568359375,0.76965332031,0.0139204482022353,0.1176896170493565,0.1398242187484,-0.26477050781,0.36022949218,0.025794171303747,0.1602036218293092,1.1385380705272,0.97201076982,1.28083976714,0.0053942276753802,0.0732615624799481,971.427525732502,971.37976056656,971.50527881129,0.0005408580954167,0.125518244730074,0.0231981422734597,-6.131822021010021e-05,0.9052222336671268,0.47,0.53,0.4671962652698787,stairs up
-0.9599157714809,-1.47082519531,-0.57299804687,0.0410746990901957,0.2021616323508117,0.4675878906215,-0.03161621093,1.09741210937,0.039232896643967,0.1975771549566074,0.1680261230442999,-0.11376953125,0.53076171875,0.0221075770404962,0.1483139884006014,1.111086754052,0.75504963402,1.63460235965,0.0358782147723655,0.1889413234274167,971.4000631464154,971.30278568535,971.47914003745,0.0012546044501143,0.1763543520999064,0.0353317340059011,-0.0004230242127643,-0.2266613048540979,0.45,0.55,-0.3254962410475415,stairs up
-0.6190161132775001,-1.32043457031,-0.03588867187,0.0993694794774833,0.3144401883985187,0.7086791992157001,0.07434082031,1.62512207031,0.1321879800545241,0.3626665688401007,0.1086071777332,-0.36877441406,0.65405273437,0.0516590920195785,0.226717437704912,1.0493371888886,0.58937498754,1.69698229533,0.0782860379540671,0.2790960547272155,971.29072528283,970.99266736383,971.70885084035,0.0308480459492984,0.7161834765199728,0.1751964774747253,-0.0015580786332928,-0.1703621552839971,0.45,0.55,0.3559951850444829,stairs up
-0.6926159667939998,-1.50073242187,-0.18518066406,0.0976063759162387,0.3116381620351678,0.6503088378871,0.23522949218,1.32446289062,0.0823807249280705,0.2863019757239377,0.1736206054669,-0.38903808593,0.5439453125,0.046830137919201,0.2158610368491846,1.0446116932936,0.53240921665,1.65604607208,0.0675699894867261,0.2592916110083249,971.0884383440114,970.83501440466,971.52972390783,0.0201717920783549,0.6947095031699746,0.1416719207110682,-0.0004962522481334,2.049891487598232,0.54,0.46,1.04359542233795,stairs up
-0.7316418456999,-1.26281738281,0.08728027343,0.1450290865313512,0.3798735856817298,0.5406420898394,0.271484375,0.87133789062,0.0306027917467537,0.1744986469518318,0.3245239257773,0.00061035156,1.021484375,0.0509096328635714,0.2250668449577893,1.0677602318197,0.81942400271,1.47614538265,0.018297818108667,0.1349308304951975,970.9621021168188,970.73742992874,971.51133999787,0.0201515804536903,0.7739100691300109,0.1416009270853193,0.0002376462359617,5.668428968945939,0.64,0.36,2.010779472413238,stairs up
-0.608556339392985,-1.37084960937,-0.05529785156,0.1559753598031794,0.3939535035867028,0.3052389420066667,-0.33898925781,0.71203613281,0.074603864116812,0.2724567866905563,0.5470353311532836,-0.00744628906,1.10632324218,0.1577636433577496,0.3962054386422543,1.063384117160597,0.79935253436,1.48845271627,0.0184762376255476,0.1355887755137608,970.9512475715632,970.58291097883,971.47258886545,0.0482189626095987,0.8896778866200066,0.2190412455982494,-0.0004718792052516,0.0841554109266149,0.65,0.35,0.6683642029607656,stairs up
-0.7153516606427638,-1.17785644531,-0.31481933593,0.0354413059665428,0.1877850072599928,0.6704800859726632,0.31201171875,1.27648925781,0.0362965751094607,0.1900373128089968,0.1669529287036683,-0.44494628906,0.59912109375,0.0524981843254542,0.2285484070256661,1.0377619251156784,0.55407613992,1.55101530293,0.0359876171201082,0.1892267814634657,970.9289152811048,970.71995916808,971.04459511073,0.0045156364535826,0.3246359426500476,0.0670294324391334,-0.0005052669582562,0.393155262441053,0.49,0.51,-0.56656682171334,stairs up
-0.5555578613247001,-1.04443359375,0.04077148437,0.0657945636692401,0.2558624451749297,0.8889978027302999,0.23583984375,1.70971679687,0.1033094609365743,0.3206133397597354,0.122415771483,-0.34167480468,0.52954101562,0.0471494850953819,0.2165957932876468,1.1216738841034,0.52084342628,1.71782281315,0.0713238105728885,0.2663966807601477,970.7999520200144,970.597323508,971.10314269368,0.014657485424292,0.5058191856799112,0.1207650528802541,-0.0011432608065171,0.1851288398297939,0.55,0.45,0.4870199946310297,stairs up
-0.8362829589807,-1.33630371093,-0.04724121093,0.0874845757119864,0.295037544786128,0.4741894531209,0.1806640625,1.31127929687,0.05541194423343,0.2348081866380788,0.1117761230443,-0.19494628906,0.41931152343,0.0191199057822638,0.1379286273887784,1.0263414214021,0.36536513247,1.43099218778,0.0447722180212257,0.2110648168954731,970.5800058688272,970.43196694086,970.83878225606,0.008719013571506,0.4068153151999922,0.0931419266691888,-0.0008070747856946,1.1639857419686992,0.71,0.29,1.340857093441924,stairs up
-0.3803540039053999,-1.49047851562,1.07727050781,0.7038015989795856,0.8368288899080192,0.4861560058550999,0.11779785156,1.11511230468,0.0449262555205052,0.2114275862864227,0.0963537597643,-0.44128417968,1.04077148437,0.1219714373944014,0.3483698899265398,1.0856254721532,0.51136681779,2.09661136297,0.0784562884283333,0.2793993682637662,970.4903643767456,970.39156389479,970.54055146742,0.0010594771364591,0.1489875726299487,0.0324681343901501,-0.0002629597616863,2.355854003435006,0.47,0.53,-1.315144084526241,stairs up
-0.1407039509482587,-1.10144042968,1.0302734375,0.7665928749612329,0.8733721887379562,0.4228303064727362,-0.39453125,1.05395507812,0.1282586570747896,0.3572401913324888,0.0162207760016915,-0.32360839843,0.29138183593,0.0376400721903885,0.1935272801174044,1.0541420649624378,0.74397697551,1.30436059431,0.015560448015112,0.1244308356110244,970.4542578337232,970.38454709387,970.50874479515,0.0011943674596595,0.1241977012800816,0.0344735454079587,0.0002016232199062,-0.7025595632791868,0.4,0.6,-0.3590865998163611,stairs up
-0.890939070347387,-1.20385742187,-0.3857421875,0.0272200582222342,0.1645699669139609,0.4733708827307033,0.27758789062,1.17724609375,0.0324986655885993,0.1798203428738521,0.2413305541343216,-0.09252929687,0.69067382812,0.0245265212560264,0.1562154678816848,1.069675175190603,0.8022251881,1.41835670313,0.0157891200707867,0.1253386522939879,970.4496772391534,970.38048047546,970.53263865685,0.0014202002117211,0.1521581813900638,0.0375907372532131,-0.0005350434528356,-0.703695691961034,0.51,0.49,0.2155924445935245,stairs up
-1.0194946289031,-1.27160644531,-0.81896972656,0.0122778411186584,0.110528059392469,0.3936877441376999,0.212890625,0.56103515625,0.0073760990806949,0.0856692394345338,0.1437109374966,-0.04138183593,0.42407226562,0.00914790195421,0.0954052537570074,1.1109264846131,0.90290535958,1.37349153267,0.0095601512870255,0.0975312797547043,970.3472058756583,970.26097300795,970.42933533712,0.0020861522797731,0.1683623291700087,0.0455600869004253,-0.0007590905222405,-1.1893518911749086,0.45,0.55,-0.0559711017956558,stairs up
-0.5004565429664,-1.28393554687,0.46337890625,0.2495156219899225,0.4982650337721612,0.6379077148398999,0.19738769531,1.35424804687,0.1073815977210819,0.3268710597964838,0.3777014160122999,-0.04052734375,1.25634765625,0.0681732110209655,0.260446433966489,1.0841589454973002,0.41186159829,1.71041144379,0.0478249479252656,0.2181417502121942,970.201921982103,970.09937766473,970.29992411227,0.0030608983368433,0.2005464475399776,0.0551868992167444,-0.0005949966945104,-1.2274186139439598,0.45,0.55,-0.1812489261863642,stairs up
-0.7916113281216,-1.46923828125,-0.34655761718,0.0704730219817106,0.2648030529880689,0.3612634277307,-0.08959960937,0.74011230468,0.0367095310046024,0.1911177211814212,0.2834130859343999,-0.04650878906,1.02758789062,0.0948809619163781,0.3072565005118627,1.0063339436052998,0.76875766851,1.49271982993,0.0259577161631941,0.160710695295547,970.0793333881448,969.95259159324,970.25219952232,0.0051356439875654,0.2996079290800253,0.0714840245623287,-0.0004645655103685,0.1366042769150453,0.53,0.47,0.2678313526737726,stairs up
-1.007081292751443,-1.19677734375,-0.85913085937,0.0076657098516864,0.0873359719229585,0.2363074762869652,0.10034179687,0.39367675781,0.0047024725562847,0.0684037803811496,0.0108357140078606,-0.21081542968,0.125,0.0046630296114577,0.0681163009797359,1.0387865521948756,0.89928006179,1.25025148246,0.0080805465814465,0.0896679700738272,970.0299909863404,969.95548124614,970.09639440821,0.0009826195061357,0.1409131620699781,0.0312686880421354,8.184526550111817e-05,-0.0535834631252161,0.41,0.59,0.1338244891187179,stairs up
-1.0013482942012562,-1.18383789062,-0.85131835937,0.0068894631176502,0.0827939774378164,0.2829467159980904,0.04797363281,0.60083007812,0.0161436606529838,0.1267380634620261,0.0317530032966834,-0.181640625,0.36279296875,0.0161274288562236,0.1266743324441152,1.056226358059799,0.89227045879,1.2386165971,0.0071510851851624,0.0843513490332516,970.0266788318496,969.95131456056,970.09871338635,0.0009284459998899,0.1473988257899918,0.0303937566302936,-4.965593813870273e-05,0.4754599498119622,0.45,0.55,0.0001162183803867,stairs up
-1.0137646484343,-1.29675292968,-0.76171875,0.0210410195137979,0.1446921366772533,0.1942932128862,0.09899902343,0.34130859375,0.0033206374726375,0.057480729686342,0.0059704589835,-0.14282226562,0.12512207031,0.0058652321577554,0.0763931017629647,1.0372292758936,0.79715499446,1.31217630686,0.0198346183885318,0.1404829003707894,969.9745023199662,969.88066473695,970.04907203643,0.0017521875930767,0.1684072994798953,0.0417543609113034,-0.0005653156519161,-1.0008409902291342,0.51,0.49,-0.0500187083326156,stairs up
-0.9840722656211,-1.28198242187,-0.77526855468,0.0179082641889605,0.1334867891141882,0.2354296874971,0.10119628906,0.41284179687,0.0067075513474753,0.0816946362421549,-0.0060217285154,-0.14282226562,0.08813476562,0.0032554454700988,0.0569136911713547,1.0170474741626,0.81091080733,1.29319038105,0.0172944351082709,0.1311791253695862,969.8301296979262,969.74686263384,969.97806003817,0.0037036176273445,0.2311974043300324,0.0607050207084042,-0.0009124844257208,-0.2913826266854875,0.49,0.51,0.5655168457702443,stairs up
-0.95263916015295,-1.333984375,-0.77185058593,0.0204529712789004,0.1426559021649854,0.22990173339445,0.08215332031,0.43225097656,0.0059178351603569,0.0767349072101817,0.03406677246045,-0.11352539062,0.21691894531,0.0061079507698277,0.0779577514810337,0.9863502607126,0.81295614093,1.376365271,0.0208117132298203,0.1439015450357334,969.6944662184036,969.58940350566,969.76742973516,0.0021751228152609,0.1780262295000056,0.0465214703248369,-0.0005636246994228,-0.5168891798188651,0.51,0.49,-0.2608662260893311,stairs up
-0.2502905273446001,-1.12658691406,0.40319824218,0.3081651086684484,0.5537366550311675,0.7129882812464,0.31665039062,1.0537109375,0.0433841668181472,0.2077672880509742,0.3931225585904,-0.12890625,0.83947753906,0.0541909101678129,0.2322067088112958,1.0586250372712,0.87961459967,1.31891177437,0.0086105512916588,0.0925607829223617,969.6160604445462,969.51935149559,969.71602846945,0.0009422847878272,0.1966769738600078,0.0306198197886287,0.0001592928698117,3.5511094816373223,0.58,0.41,0.6885864317992568,lift down
0.1568352013935678,0.05029296875,0.23364257812,0.0010507162888022,0.0323332075033006,0.9528869935576884,0.89404296875,0.99743652343,0.0003133271301178,0.0176565178312808,0.3287844250508542,0.30456542968,0.40515136718,0.0005293169285621,0.022949009662707,1.0209258541261808,0.97376142473,1.06870949568,0.000285783493838,0.016862603472747,969.628170314846,969.62261946463,969.63726819903,8.869066199042988e-06,0.0146487343999979,0.0029706056667266,-1.4253835124039044e-05,0.0957032152972372,0.44,0.56,0.4400024764415595,lift down
0.1742279052689999,0.16186523437,0.18725585937,2.832432750064045e-05,0.0053087386320233,0.95503601073885,0.94055175781,0.96850585937,4.654996920532402e-05,0.0068056755255666,0.3332250976519,0.32397460937,0.35119628906,3.8664119323216544e-05,0.0062024832709649,1.02642677806345,1.01200404618,1.04340627686,4.939747254400189e-05,0.0070107407013297,969.6312006054592,969.62576329946,969.63679574759,7.446358663101565e-06,0.0110324481299812,0.0027219711368392,-7.559487952840212e-06,-0.6818994809320218,0.44,0.56,-0.2730183339214242,lift down
0.3054569680853731,0.16516113281,0.58532714843,0.0166459776824939,0.1286979482086966,0.8879509921061195,0.60913085937,1.02758789062,0.0108709188702175,0.1040040128876473,0.0681097685401989,-0.50085449218,0.41186523437,0.1145979190293333,0.3376799966368897,1.0120388842857713,0.85752159008,1.16703583703,0.0036028623874085,0.059874349256706,969.6526283467036,969.48843100922,969.84669813671,0.0066592988307732,0.3582671274899667,0.0814012775748586,6.644306847744541e-05,0.2442038946068354,0.7,0.3,0.4609393063723959,lift down
0.2744384765607999,-0.25427246093,0.6455078125,0.0839788578250768,0.2890656733961185,0.6983886718708,0.24694824218,0.98083496093,0.0334597496531976,0.1824621903434563,-0.4667626953086,-0.87744140625,-0.04772949218,0.0827933675923438,0.2870181192091923,0.9877288279566,0.78827970219,1.13306421574,0.0045760861978769,0.0674774463571905,969.6406766137374,969.48040393914,969.83806696547,0.0096142986929892,0.3576630263299876,0.0978070917649854,0.0003795119165687,-0.5093138235240922,0.74,0.26,0.8436461659600606,lift down
-0.1144482421839999,-0.15478515625,-0.0205078125,0.0008614016297671,0.0292761783984569,0.9857421874964,0.95227050781,1.10241699218,0.0008395179432083,0.0289019091669101,0.2688525390592,-0.13354492187,0.33264160156,0.0105704375603932,0.1025552795939404,1.0339180214516,1.00770836669,1.10463784469,0.0002927370594723,0.0170667329672378,969.8747718978494,969.57367953314,970.11099943822,0.0262513978484475,0.5373199050800395,0.1616172665874699,0.0027389058174631,-1.124264855020407,0.44,0.56,-0.3181704244794692,lift down
-0.1461987304644,-0.15881347656,-0.1328125,3.378691386366242e-05,0.0057981013525415,0.96267333984,0.94274902343,0.97924804687,7.84117312781774e-05,0.008832874539004,0.327524414058,0.31555175781,0.34069824218,5.52824633913979e-05,0.0074166064392308,1.0273706824288,1.01102905625,1.04108931833,6.27079630779109e-05,0.0078990140690165,970.3354406049556,970.12565698933,970.54105819395,0.0152139524419607,0.415401204620025,0.1230361031557443,0.0021290629762516,-1.1781027026780604,0.5,0.5,-0.0106746395351919,lift down
-0.0663301860837186,-0.16687011718,0.74597167968,0.0562820529938394,0.236641561453046,0.9123743718550252,-0.12451171875,1.20532226562,0.0447073917638741,0.2109092968642068,0.2637393510486431,-0.39379882812,0.3603515625,0.0364749518294401,0.1905037023635415,1.0193915105056284,0.76517224062,1.20743638557,0.0040199028483782,0.0632431998838788,970.7686144381532,970.55518615802,971.10159745517,0.0212788289777242,0.5464112971500299,0.145505670641702,0.0024235392988952,-0.6550580346871651,0.52,0.48,0.4913237704922231,lift down
0.7070822644550249,0.5029296875,0.84790039062,0.0104269254875514,0.1018579905376577,-0.1751739350104975,-0.66845703125,0.41271972656,0.0898741290611186,0.2990434652197992,-0.6163214688240796,-0.94177246093,-0.39379882812,0.011214246988534,0.1056335870590373,1.0091788252747265,0.79951059898,1.10708670278,0.0030370967421879,0.0549726005219618,971.1605157781438,970.95952570931,971.46807328658,0.0247704487044537,0.508547577269951,0.1569943076714804,0.0024365943497474,-0.8581372650001753,0.52,0.48,0.5630546919371312,lift down
0.0434985351577999,-0.35241699218,0.74682617187,0.0670431268921304,0.2582787472047783,0.8784350585906,-0.6630859375,1.32861328125,0.1939901652695735,0.4393406587640457,0.0029223632795999,-1.00512695312,0.22253417968,0.0800615401764741,0.2822432151099326,1.0467939144424,0.75517819881,1.70284796132,0.0172469083338466,0.1309987549260578,971.387446837702,971.1729314199,971.4998405123,0.0064939023291613,0.3269090924000011,0.0803830381207099,0.0009789081228467,0.8179976927928205,0.4,0.6,-1.2953937142684473,lift down
