avg_accX,min_accX,max_accX,var_accX,avg_accY,min_accY,max_accY,var_accY,avg_accZ,min_accZ,max_accZ,var_accZ,avg_magnitude,min_magnitude,max_magnitude,var_magnitude,avg_pressure,min_pressure,max_pressure,var_pressure,slope_pressure,Label
-0.9508679707803126,-1.04919433593,-0.90600585937,0.0008884743623835002,0.240824381506875,0.20654296875,0.31884765625,0.0007008924819043138,0.27372233072520835,0.12719726562,0.37622070312,0.0033863113637296717,1.020532117613646,0.98938051537,1.09339377187,0.0005135899638863021,949.919972411557,949.78719956047,950.1376738464,0.015219352317055844,-0.002644491718676445,Null
-0.7279797363248,-1.03051757812,-0.3544921875,0.04542060659820556,0.34064819335599994,0.1455078125,0.455078125,0.006249084645673426,0.5723730468706999,0.19799804687,0.93481445312,0.05297273435972074,1.0357401584380996,0.94311069188,1.15558213844,0.004489816636866668,950.0472856791043,949.95207158291,950.12549665053,0.0037341553516719375,0.0008693634950631679,Null
-0.4005065917940999,-1.23791503906,0.05908203125,0.19187365829613046,0.16081420898169999,0.07568359375,0.4287109375,0.008037453918331747,0.7216137695270001,0.13854980468,1.00524902343,0.0924523549307142,0.9926632092497999,0.8164058667,1.2611074118,0.011164401745192336,949.9517274431247,949.88507650644,950.00122109902,0.0014021587296753767,-0.0007914257016736621,Null
-0.9414624023387997,-1.08239746093,-0.58825683593,0.01613123411488148,0.287795410154,-0.07971191406,0.89770507812,0.07462244526827487,0.2759558105438,0.06518554687,0.51867675781,0.014415303160106861,1.0693438055942002,0.91801151419,1.2601142933,0.006010485508510589,950.0023573637849,949.93353497414,950.1207917213,0.0021482753397903107,0.0001699477069331984,Null
-0.5926477050739999,-0.66101074218,-0.5498046875,0.0010308447073443228,0.7877917480431,0.71630859375,0.84252929687,0.0010379941460174373,0.2604479980434,0.09436035156,0.37194824218,0.003921611771059682,1.022278505072,0.97010952397,1.07511551618,0.0005631358462622956,950.0183669680843,949.98205825077,950.08844177605,0.0007080530626965262,-0.0003879316337345139,Null
-0.6559106445285,-1.02685546875,-0.50817871093,0.02126672580382509,0.7296252441368,0.33447265625,0.86828613281,0.028457016985150768,0.19160278320019997,0.02600097656,0.26831054687,0.003206931549704604,1.0248201404000001,0.91046986886,1.09277452838,0.0014428731745485229,950.0049076719947,949.94184737146,950.05025832907,0.0009509598779982169,-0.00041569404526939195,Null
-1.0056823730432,-1.1025390625,-0.8916015625,0.0036246645255934022,0.29199584960520003,0.07885742187,0.56018066406,0.01935129197428138,0.0190783691402,-0.12915039062,0.12878417968,0.005556540144013258,1.0577530854882,0.91525618543,1.23367932791,0.006493108709544695,950.0117554124943,949.93138318134,950.10201611002,0.0023264751462666626,0.00017833303632846023,Null
-0.9781835937463998,-1.11535644531,-0.81567382812,0.005080601807870578,0.35877685546619986,0.19055175781,0.64001464843,0.012246183524220243,0.0100744628895,-0.10766601562,0.11181640625,0.003761636926016407,1.0488486131926,0.87168518652,1.19258741393,0.0065248429638628865,950.020894093417,949.95678679531,950.12382231389,0.0023460352520725133,-0.0005751187988587093,Null
-0.6815466308556001,-1.00451660156,-0.41857910156,0.03583489670141037,0.673269042965,0.36389160156,0.95959472656,0.03151433912783386,0.20704956054270002,0.00671386718,0.46337890625,0.01629422330364938,1.0159055360646,0.82489171509,1.20515024967,0.01152474858902558,950.0439086600887,949.85849000116,950.29956649363,0.011049915419687494,-5.105308790026532e-05,Null
-0.5271325683564999,-0.65100097656,-0.443359375,0.003203476876654176,0.7954406738241999,0.6689453125,0.98217773437,0.010478874461568737,0.4142407226525999,0.28247070312,0.50793457031,0.004306777986645868,1.0442057358045,0.88311387715,1.215846963,0.009730914997564741,949.9931163502873,949.86272962577,950.09698968521,0.0038442185692236287,-0.0013766753855144083,Null
-0.5117773437463999,-0.67651367187,-0.40539550781,0.004166804323220567,0.7605871581993,0.61413574218,0.95739746093,0.008498524431881545,0.4305017089795999,0.31896972656,0.56420898437,0.005726671295610591,1.0179220960166,0.87536304469,1.16985885756,0.00786190173605253,949.9737464205766,949.91548634217,950.0593008148,0.0017504735835467413,0.00022110251179727414,Null
-0.5978967285125999,-0.79016113281,-0.42553710937,0.011314600541997826,0.7316772460905,0.53833007812,0.92834472656,0.010445014244365312,0.34183593749569996,0.06872558593,0.59069824218,0.01752316737402369,1.0135272876489,0.80892223559,1.35465972128,0.021551808188594736,949.9560588192684,949.85127467106,950.01269579129,0.0019659788968843014,-0.0005590345450845927,Stairs Up
-0.5937499999971999,-0.78002929687,-0.42553710937,0.009467492199773097,0.7466625976523997,0.51306152343,0.99609375,0.02114946800678692,0.3396423339799,0.06750488281,0.53796386718,0.014975067453717685,1.0225136146053,0.77933314724,1.33389175786,0.02525558343041677,949.8835290310889,949.77456631066,950.08312466238,0.007915375077228998,-0.0007772551384600631,Stairs Up
-0.6357922363244,-0.86608886718,-0.44445800781,0.017257675707305135,0.7659899902303999,0.51599121093,1.01977539062,0.01966338190627547,0.2705371093715,0.13037109375,0.51904296875,0.008433583746043614,1.0390570719183,0.77403505919,1.37724459654,0.02972147141187913,949.8085176594976,949.60087596735,950.03649048698,0.011438768893015231,-0.0012983948771583137,Stairs Up
0.4046874999997999,-0.54272460937,1.19665527343,0.3529771909527832,0.5656372070274999,0.00903320312,1.6484375,0.25460895549853146,-0.23190307617019998,-0.59118652343,0.51904296875,0.10059254891010878,1.0748961867787001,0.50947452871,1.66656433675,0.08403187416583591,949.7013754684962,949.55706831014,950.0391271894,0.016153217213962644,-0.0014884636154941264,Stairs Up
0.8667321777306001,0.53942871093,1.17321777343,0.025513191070831394,0.24624877929280004,0.08947753906,0.55346679687,0.016989832831857492,-0.4709777831989,-0.78833007812,-0.33825683593,0.011965658741640803,1.0311019985910999,0.77255311167,1.33640389917,0.0246826927306294,949.6831433307806,949.58736242943,949.75231807726,0.0023160064153180033,-9.693937805608262e-05,Stairs Up
0.7864648437467,0.376953125,1.15869140625,0.050155309739550014,0.4402966308568,0.1904296875,0.62561035156,0.01588543830941982,-0.07549682617129999,-0.4638671875,0.44470214843,0.05450101345800252,0.9490921511701998,0.70983537195,1.3111526124,0.037018461446875255,949.5761210471156,949.51808120594,949.70651630891,0.0014261414339872029,0.00020955801446001661,Stairs Up
-0.6827014160133998,-1.14916992187,0.376953125,0.2219996830690331,0.45614990233929986,0.13415527343,0.77819824218,0.03761924324031434,0.538439941403,0.26281738281,1.27893066406,0.08277163346023757,1.1316045198429001,0.73299937559,1.49946843603,0.022736759769842897,949.6324041791933,949.55336741426,949.71509357555,0.0025764307636436186,-0.00036772783119228995,Stairs Up
-0.9205773925735999,-1.13256835937,-0.64111328125,0.023307879361124988,0.3723339843714,0.18798828125,0.61059570312,0.01885722584171075,0.2469116210899,0.02307128906,0.47802734375,0.013099857502525394,1.0330653376985,0.73370526596,1.31707679242,0.034897981202563634,949.581819676792,949.50591057987,949.6944631785,0.0030576078432044997,-0.000727244002276106,Null
-0.9978271484327002,-1.13854980468,-0.79895019531,0.007947491274719118,0.34506103515299996,0.14013671875,0.61437988281,0.01721712995624588,0.1365710449195,-0.13000488281,0.3125,0.015598691260536899,1.0777232115227,0.85747846794,1.25900909418,0.012369843589261732,949.5569845390069,949.44896839683,949.79323460092,0.010839354430884494,0.0001276129913514424,Null
-0.9790747070276001,-1.22338867187,-0.85168457031,0.009812894848813057,0.3723754882784999,0.22802734375,0.68103027343,0.017566774078004894,0.0985412597625,-0.24780273437,0.30078125,0.020423190573198677,1.0675997850036998,0.91357677954,1.35372975955,0.01466332934793882,949.5377944956523,949.47678933056,949.64548090559,0.003341631885081878,0.0002629655014212549,Null
-1.0231860351525,-1.10095214843,-0.9345703125,0.0023019596242093696,0.2988586425745,0.11682128906,0.57238769531,0.016527902711373173,0.1152770996063,-0.05187988281,0.29187011718,0.009750169447622041,1.0840799286134,0.9501664019,1.18149042987,0.0026059599047491997,949.5338176697597,949.47043466285,949.65370860133,0.0034191020086818077,0.0005511738348336835,Null
-0.9629040527295999,-1.02954101562,-0.94262695312,0.00017470690187404984,0.3345410156211999,0.28894042968,0.57238769531,0.0029655960835267303,0.085561523434,-0.017578125,0.18481445312,0.002288960350854423,1.0251674253087,1.00159209143,1.18149042987,0.0008377787650114413,949.5301832964053,949.47838871292,949.65370860133,0.000705023193721878,0.00034648513529639713,Null
-1.042581787106,-1.15954589843,-0.93420410156,0.002962761471615482,0.2943554687456,0.02978515625,0.59716796875,0.02651172320061864,0.15512817382519997,-0.09228515625,0.52905273437,0.031750579883708,1.1192512554337,1.00671210577,1.25670439914,0.005632440625257644,949.5506697247706,949.49906260412,949.6695870848,0.0024965677251342524,0.0009028938831568716,Null
-0.8975659179652999,-1.142578125,-0.5185546875,0.03360090683786547,0.49046508788679993,0.20202636718,0.86291503906,0.03219380459880729,0.12688720702810002,-0.04833984375,0.33813476562,0.01158373928386732,1.0576075249579002,0.76429469475,1.29727599827,0.020557507277151645,949.574541621183,949.45921325824,949.76171345945,0.008505671344600636,0.0005666569914311839,Null
-0.47135620116819993,-0.71459960937,-0.16638183593,0.016584568666562955,0.8188964843720998,0.66125488281,0.98779296875,0.009426146444681115,0.3310327148394998,0.09924316406,0.60827636718,0.021224571111098586,1.0198109647026,0.81300788374,1.17656778407,0.009191220629635614,949.5634586374931,949.31385912054,949.77994367028,0.02174507489620298,0.0012609755265076054,Null
-0.6493798828086998,-0.78369140625,-0.47497558593,0.0077145473162221305,0.7443957519493999,0.607421875,0.96301269531,0.011384578995951074,0.23713134765330002,0.138671875,0.34045410156,0.0029005658686614188,1.0197716527813998,0.80175759876,1.21882289888,0.014036378990637173,949.5513738673003,949.35160167457,949.73881827061,0.011629474044060171,0.0008780504755512771,Null
-0.6440612792934999,-0.79443359375,-0.49597167968,0.00723973349356255,0.7724450683548,0.58874511718,1.03515625,0.014357680520593599,0.2498156738242,0.10681152343,0.40625,0.008365439795162511,1.041919597189,0.79829170478,1.36268029726,0.018142388147920355,949.5515184596961,949.37528826017,949.84796700727,0.013419423226930445,-0.0002731042949766954,Null
-0.6431591796839998,-0.9365234375,-0.33032226562,0.02014726975976078,0.7301208496056,0.53137207031,1.03515625,0.012789823001868381,0.26782104491869996,0.03527832031,0.55773925781,0.014483945988451388,1.0196620899498001,0.77223006317,1.36683080107,0.025953887097120498,949.5618205886358,949.15631975361,949.73587468009,0.029746409689553648,0.000575132813521151,Stairs Up
-0.6530541992149999,-0.89245605468,-0.49877929687,0.013661324490052945,0.7496948242145001,0.53698730468,0.99987792968,0.017605669119116044,0.23884521483910007,0.08898925781,0.55773925781,0.012673806295356568,1.032084001834,0.79310453595,1.36562154734,0.031197161422634272,949.3644972797591,949.14361005324,949.43406264142,0.005684631507019055,0.0014553832115656883,Stairs Up
-0.6188000488247998,-0.85412597656,-0.45910644531,0.012112248815318541,0.7743225097622998,0.56652832031,1.06640625,0.018366397142188025,0.1551135253862,0.05639648437,0.27661132812,0.004253724516867275,1.0064706695691998,0.7863709557,1.36052689035,0.025311496705593725,949.3729057949233,949.31686098453,949.4277434786,0.0008612323084798607,-0.0004559969509273711,Stairs Up
-0.6087499999959998,-0.80700683593,-0.44543457031,0.013792141904647578,0.7915332031208,0.60571289062,1.04919433593,0.019372150488641965,0.21521972655720004,0.09020996093,0.37585449218,0.007624608001340533,1.0272980372623999,0.80375699992,1.34452758513,0.028748140271596747,949.3330975505597,949.25925153577,949.37431661457,0.0005851693324974488,-0.0003718061235342691,Stairs Up
-0.5797509765599999,-0.80041503906,-0.43737792968,0.009286098672911244,0.7738281249968,0.56994628906,1.01586914062,0.014424473348164518,0.2590722656212,0.14477539062,0.39611816406,0.00479815670946494,1.0050114558524001,0.80158796846,1.33681553992,0.020419409819670928,949.2540701609852,949.1950042601,949.30285788527,0.001039858886028953,-0.00045486934393062405,Stairs Up
-0.6001562499959999,-0.78527832031,-0.39111328125,0.015148507368688308,0.7869873046831999,0.60034179687,1.07653808593,0.018880079490751926,0.3188476562459999,0.14392089843,0.51806640625,0.009464906923912808,1.0480521367663997,0.78206176545,1.33829289535,0.026106714651506047,949.2036870176381,949.17065844791,949.22356066823,0.00019074929082272187,-0.0003086134971438617,Stairs Up
-0.5506396484335999,-0.802734375,-0.41748046875,0.010669174435162973,0.754956054684,0.56640625,0.96154785156,0.01195382951480363,0.3131933593716,0.17724609375,0.48449707031,0.007865327440004247,0.9914871806768,0.80503039785,1.29437044465,0.01857511708894972,949.1612530224721,949.09086441956,949.26886583231,0.0022695680717732414,-0.0009811215595901689,Stairs Up
-0.6397900390596,-0.8369140625,-0.4716796875,0.01052192447165124,0.7651562499971999,0.53479003906,1.06164550781,0.019282906561190676,0.24485839843360005,0.11450195312,0.42504882812,0.006709669960834475,1.0342554218456,0.79381945035,1.41710367953,0.021430398626278102,949.1093464378681,949.06637970369,949.16122766447,0.0009019775544771894,-0.0007911753388600168,Null
-0.5639990234323998,-0.69079589843,-0.44836425781,0.005126879094784127,0.8166796874963999,0.69482421875,0.97729492187,0.007961274734605447,0.21487304687120004,0.07958984375,0.32458496093,0.00526633561246866,1.0215991616208,0.87046570653,1.17983585334,0.005795085050735883,949.1111535803064,949.02137570174,949.25810592379,0.003372797060816276,0.0008834708485912868,Null
-0.5843945312463998,-0.6806640625,-0.49609375,0.0027102748312201105,0.8229931640579999,0.69567871093,0.9892578125,0.0047238577257117855,0.20090820312119995,0.09814453125,0.36657714843,0.00655707527881355,1.0345317457028,0.94183916608,1.17195867239,0.0028224093049831252,949.075586460896,949.00252791331,949.1223546689,0.0008109418523731086,0.0007637994171489446,Null
-0.5509423828091999,-0.63562011718,-0.44860839843,0.003534083077356366,0.8504296874971999,0.78210449218,0.94116210937,0.001848055280873016,0.12651367187120002,0.01184082031,0.26342773437,0.007024563924268618,1.0269176609612003,0.96673717892,1.06593603729,0.0005016409977132847,949.0890801950594,949.0667111972,949.10464763438,0.00010019337720950532,0.0003114012930497771,Null
-0.4942871093715999,-0.50793457031,-0.48449707031,4.1750946443827923e-05,0.8817773437471998,0.86938476562,0.89904785156,8.906152513900138e-05,0.1249414062464,0.11511230468,0.16857910156,0.00015988629274983035,1.018673522324,1.00924150304,1.03413463778,5.397184239459942e-05,949.0910030963099,949.08353544167,949.09674996643,1.197305765635515e-05,6.172162310513968e-05,Null
-0.5181201171839999,-0.60583496093,-0.45690917968,0.0016626794892253445,0.874999999996,0.82495117187,0.90466308593,0.0004112118422765743,0.1378417968712,0.095703125,0.19079589843,0.0004813791525110873,1.0274012993283999,1.01482111587,1.04711476469,5.0610816496007976e-05,949.0889742174191,949.07611514276,949.0960634391,2.376180972067409e-05,-6.104852835460569e-05,Null
-0.5711083984339999,-0.67395019531,-0.48388671875,0.0038662174976424957,0.8286914062459999,0.72888183593,0.94750976562,0.003969164665379469,0.10671386718520001,-0.01928710937,0.23608398437,0.007569409379622336,1.0183140396192,0.89245261513,1.12426340307,0.002595312464761307,949.108377667396,949.0875792553,949.15075137004,0.0002861382946598715,0.0002757528870784425,Null
-0.6482324218707999,-0.79162597656,-0.48254394531,0.009688675668458326,0.7953613281212,0.66918945312,1.0224609375,0.010649977308494584,0.1619384765596,0.03198242187,0.24108886718,0.004304052603337633,1.0455543764583999,0.86190693409,1.25751995451,0.010344757191102005,949.1188816264014,949.05867989581,949.15517375108,0.0006754651284300535,-0.0002815260409569548,Null
-0.619394531246,-0.87890625,-0.44128417968,0.011317231342104621,0.7855810546847999,0.64636230468,0.982421875,0.010567804924187234,0.1630517578104,0.06640625,0.32568359375,0.005735155933999003,1.0178659268399999,0.80015437082,1.34228384629,0.01885454525067904,949.1098293181058,949.05867989581,949.14974566327,0.0005870574184331719,0.0002977858149677021,Stairs Down
-0.6213037109327998,-0.91540527343,-0.41162109375,0.019051560873885726,0.8102685546835999,0.57116699218,1.1572265625,0.01993467172000313,0.1428417968716,0.01684570312,0.32421875,0.005375661850079295,1.0359991314184003,0.75358461031,1.44367395774,0.03392049097227084,949.1511164403139,949.09291999594,949.20446639722,0.0011594135771900702,0.0008732478367621255,Stairs Down
-0.6019287109335998,-0.92614746093,-0.41955566406,0.02072782227461559,0.8171874999963998,0.62316894531,1.09997558593,0.022825557776088013,0.1496826171844,0.04724121093,0.29321289062,0.004594725791877052,1.0293534348348,0.77693603596,1.40035418006,0.04102686874918992,949.2138772667162,949.15908367786,949.30907235343,0.0017959876525240137,0.0009610512080725784,Stairs Down
-0.615527343746,-0.96472167968,-0.3896484375,0.025840644884471544,0.7947460937468,0.59228515625,1.07421875,0.018401926310350578,0.15727539062120002,0.05493164062,0.32177734375,0.006081762940048932,1.0208809138588,0.72632390893,1.44879377051,0.043286932761876486,949.2882208339665,949.20053573729,949.35361926662,0.0018697374942421362,0.0006669509812435899,Stairs Down
-0.6099365234339998,-0.87634277343,-0.3701171875,0.025878855676093604,0.7885888671835999,0.54809570312,1.06140136718,0.02851509123128871,0.18997558593359998,0.07531738281,0.31872558593,0.006108394198876309,1.0180884969464001,0.70130776706,1.38002464823,0.05391799737052635,949.3555667263103,949.28500854113,949.47470083746,0.001676159203845001,0.0006851290103081292,Stairs Down
-0.6079345703087998,-0.86474609375,-0.39404296875,0.020661850168251915,0.796523437496,0.56359863281,1.09997558593,0.02950437781756343,0.1434472656216,0.02416992187,0.33825683593,0.006256008774180897,1.0150834720447997,0.69398200863,1.41529984371,0.050580510553571385,949.4371633920242,949.37026615328,949.53068985358,0.0010015222277593623,0.0007591844415219336,Stairs Down
-0.628925781246,-0.95275878906,-0.36999511718,0.024143145156550944,0.7644091796843998,0.56958007812,1.06103515625,0.01947353160758306,0.1689404296832,0.06774902343,0.30407714843,0.0036622111001605243,1.0101218234855998,0.71611483188,1.40278228129,0.03522212301634028,949.4909668271916,949.45197998674,949.58565451053,0.0008640597731917113,0.0002081802645137616,Stairs Down
-0.6422460937468,-0.83544921875,-0.41125488281,0.016269132970552245,0.8071972656215999,0.65490722656,1.01232910156,0.013002227147371691,0.21318359374639997,0.1005859375,0.365234375,0.005518506271652768,1.0565474387540001,0.7900364502,1.32184732827,0.027923426859564962,949.5598946424324,949.49639205048,949.61360944586,0.001282539528197678,0.0008840205613041267,Stairs Down
-0.6148486328087998,-0.69836425781,-0.49877929687,0.004210383819911396,0.7835498046831998,0.67980957031,0.93115234375,0.004038316649607182,0.1925976562464,0.03088378906,0.33618164062,0.005951736045724659,1.0198947122875999,0.91309759775,1.1390315775,0.0029860635122252095,949.5899750346734,949.5672202711,949.63650365701,0.00023661374888100787,3.2042244104770064e-05,Stairs Down
-0.5935986328083999,-0.68041992187,-0.51696777343,0.002782936385187375,0.8142285156215999,0.69921875,0.970703125,0.006356602582120015,0.20624999999640006,0.09118652343,0.29968261718,0.0038627964077285705,1.0322196520416,0.91976076889,1.1874218024,0.005314522206121452,949.6071352205195,949.56474407815,949.64161225315,0.0004516883061548196,0.0003392631309282707,Stairs Down
-0.6569287109336,-0.814453125,-0.40747070312,0.009593660277519674,0.7307080078087997,0.5078125,0.86840820312,0.007624909709056987,0.3220458984336,0.16198730468,0.45788574218,0.00571800964047449,1.0399308856412,0.73127033498,1.19499298263,0.010559648026000536,949.6658336834162,949.61184419856,949.77982780475,0.001955405254087323,0.0008356654938127348,Stairs Down
-0.6357470703095999,-0.89526367187,-0.47180175781,0.013655900328973401,0.7735302734331999,0.60070800781,1.00207519531,0.012829007861567987,0.166987304684,0.03930664062,0.26538085937,0.004139149405728319,1.0239817627692,0.82656039578,1.24292683341,0.012310452311289232,949.6671181878529,949.52324279368,949.88339591926,0.01209038046165671,-0.0024736718939488986,Stairs Down
-0.6144335937459999,-0.82653808593,-0.44323730468,0.010082420773023043,0.8087695312459999,0.63452148437,1.04760742187,0.01810421856972828,0.1521044921828,-0.02685546875,0.25622558593,0.006060012037039338,1.0360199780968002,0.77793337634,1.22766070798,0.015494305242548974,949.6436422955306,949.55846766291,949.77251502574,0.004040046418080169,0.0012588052281798541,Stairs Down
-0.08092773437440001,-0.63635253906,0.18798828125,0.041632053200814395,0.8979541015584,0.48986816406,1.41943359375,0.058432960124989254,-0.06212890624959999,-0.88220214843,0.40698242187,0.15879330186892326,1.018096000118,0.72796534396,1.47681658945,0.03684963058233824,949.6274650961494,949.47106122683,949.76312178042,0.005557976055951003,0.0005090788251055405,Stairs Down
0.19353515624759995,-0.23022460937,0.50634765625,0.04365707055403205,0.6721435546836,0.13195800781,1.55603027343,0.16457731796013544,0.19414550780999998,-0.75476074218,1.16784667968,0.3324728928159367,1.0050721231636,0.69045106458,1.56309723883,0.05258134218717785,949.5449039410352,949.43794073743,949.80718917338,0.006634066463501566,-0.0003332908296188996,Stairs Down
-0.6521643066373,-1.205078125,-0.06787109375,0.09128593870267306,0.4675292968701,0.06884765625,1.22729492187,0.12032903143827907,0.07033935546729998,-0.7998046875,1.01574707031,0.3292026127134272,1.0510407710303,0.6455456698,1.69722953643,0.0803760160323334,949.6707414890608,949.26631229535,950.21249686156,0.0950283648368643,-0.005076012660581949,Stairs Down
-0.22085937499599992,-0.57922363281,-0.06994628906,0.01858002431488945,0.957675781246,0.63208007812,1.41333007812,0.052238477022911824,0.18158691405880006,0.01635742187,0.40661621093,0.008485829083507824,1.0073110648396,0.65301580702,1.50802846458,0.06336492791394788,949.6546796741409,949.4901130011,949.76808927748,0.005415875568191515,0.0022520300876717352,Stairs Down
-0.18207031249480007,-0.35327148437,-0.02648925781,0.00737693107489199,0.9877099609339999,0.625,1.416015625,0.05840298830884242,0.21097167968480002,0.09204101562,0.40942382812,0.009330735688289179,1.0308601259264,0.66679435242,1.49293621612,0.06557228741994402,949.7234955721391,949.65674509184,949.76497001679,0.0010700859259640584,0.0007878733810643564,Stairs Down
-0.1459179687468,-0.3505859375,-0.00646972656,0.007135498258871466,0.9064355468708,0.59985351562,1.28076171875,0.04354423961307185,0.44724609374639995,0.17175292968,0.78625488281,0.0257732454933469,1.0301416187420003,0.67173064699,1.42152523098,0.05802345603396753,949.8036462672029,949.74279680441,949.88421905906,0.0014407084487536286,0.0010284594511800272,Stairs Down
-0.13207519530960002,-0.35302734375,0.04907226562,0.01153097306825964,0.891992187496,0.67492675781,1.25305175781,0.0260243187047876,0.5041455078091999,0.33996582031,0.72766113281,0.014271999224081773,1.0427696804908002,0.77068933009,1.3643121019,0.031512145807932525,949.8683630649725,949.78934231176,949.93766112771,0.0010883580825321426,0.0004150166225752805,Stairs Down
-0.15349609374639997,-0.31896972656,0.04467773437,0.0106572985407484,0.8843066406204,0.64440917968,1.16931152343,0.021215028570006546,0.4256152343712,0.25317382812,0.73388671875,0.018585326551318317,1.0028798871443998,0.71266554323,1.37822064437,0.03120466894936741,949.8867912353124,949.85329131792,949.92835237904,0.0006564452036911457,-0.0007336602076484702,Stairs Down
-0.15432128905960002,-0.47521972656,0.05224609375,0.01734337662165199,0.893671874996,0.56311035156,1.26135253906,0.04021652236101482,0.5356738281211999,0.26196289062,1.05737304687,0.043734455686238904,1.0672703960572,0.66449782744,1.54367493995,0.07133963977216153,949.9192451635209,949.83429247925,949.97225736042,0.0012565881839267572,0.0008896653558883142,Stairs Down
-0.1535302734336,-0.38659667968,0.08972167968,0.01194612127338167,0.8650976562455999,0.59948730468,1.1240234375,0.020310763542142094,0.5520654296839999,0.318359375,0.779296875,0.01937475002180894,1.0488472758487999,0.77172280984,1.37765377426,0.02805701897824954,949.9525904930802,949.91143893973,949.97604898354,0.0002744429007860154,0.00023992962674303976,Null
-0.18309082030960006,-0.30822753906,-0.05725097656,0.006675043876796125,0.8321826171835999,0.65075683593,1.07482910156,0.011283431727508,0.5405322265595999,0.37377929687,0.82922363281,0.014662945487395242,1.0197221678036004,0.89267786916,1.30081150947,0.010795103176385162,949.9414251132755,949.91081412743,949.97305138021,0.0002516034544887308,-0.0003676844419278972,Null
-0.13851562499640002,-0.35400390625,0.01135253906,0.009356565571619563,0.8773779296840002,0.76904296875,0.98693847656,0.003173110605411975,0.5229101562463999,0.32775878906,0.73217773437,0.013913832192239696,1.0414473674016,0.95907516205,1.20950459641,0.004020298574524836,949.9562626959387,949.94305488676,949.97200255397,5.830618470732226e-05,1.938932024406262e-05,Null
-0.12195670250237625,-0.16174316406,-0.10498046875,0.0001745314173320496,0.8914275216542573,0.81774902343,0.92883300781,0.00044531385501032,0.4811842512335644,0.45947265625,0.53967285156,0.00048234195401194215,1.0207398944292079,0.99303630506,1.07604606571,0.00023845058666829177,949.9608906989863,949.95424155846,949.96696391834,1.7980677095359243e-05,4.433275533419296e-05,Null
-0.09947021484110001,-0.27783203125,0.00646972656,0.003223618780662019,0.8989819335906,0.8212890625,1.08349609375,0.004397206059719409,0.5012036132777998,0.31689453125,0.68371582031,0.00886142645806944,1.0395048680658,0.90534186078,1.20807790591,0.005065616746048242,949.9588859483368,949.9210948947,949.97604225399,0.00012042460200971005,0.00016059140599014178,Null
-0.24696777343409998,-0.41052246093,0.02978515625,0.013320186138020145,0.9562390136685,0.76428222656,1.15087890625,0.01114576287203821,0.12355346679419997,-0.35192871093,0.46069335937,0.03744244375971141,1.0216730754763,0.86405173393,1.19909290187,0.008207098204157309,949.9574649775027,949.90433192621,950.05084901097,0.0009065613991450762,0.0003265296027151914,Null
-0.2825520833290909,-0.53430175781,-0.10314941406,0.014933531381623509,0.9156198212554545,0.77490234375,1.19665527343,0.011519835643218726,0.22994964291161615,-0.42260742187,0.65759277343,0.11537972041954403,1.049256909959192,0.89060375121,1.27616904719,0.0106400169676175,949.9561748512737,949.88772721835,950.15800581265,0.0028531010256751714,0.0008288668265701081,Null
-0.510517578122,-0.86279296875,-0.06970214843,0.08789476322439285,0.6707226562459999,0.45141601562,0.91821289062,0.02442603530300637,0.5067529296835999,0.29528808593,0.72290039062,0.015069451861917767,1.0417660217380003,0.87287311403,1.20355222597,0.008217691671540782,949.9494554543876,949.89041759686,950.15800581265,0.0031884545971530838,-0.00013545067003179699,Null
-0.6859082031207998,-0.95324707031,-0.166015625,0.07099089174577748,0.6019287109339999,0.33325195312,1.05871582031,0.04782379757286169,0.3291845703088,-0.052734375,0.50329589843,0.02491173565955175,1.0373499585847998,0.86060894029,1.14390860797,0.0074191329683782805,950.0101884648361,949.96655220249,950.08371752521,0.0009245861754618624,0.0007457067321525416,Null
-0.25956054687200003,-0.48767089843,-0.13439941406,0.009209915508081834,0.9521777343712,0.82250976562,1.06298828125,0.004366015280231813,0.1842968749968,-0.07153320312,0.3203125,0.0077542635885815515,1.0136331322856003,0.93698313293,1.08547545284,0.001660827295603199,949.974898762551,949.93518721469,950.06875046549,0.0013820794462662724,-6.569970615588542e-06,Lift Down
-0.9343408203083999,-1.04907226562,-0.41467285156,0.02498454315477622,0.36872070312160005,0.15905761718,0.78344726562,0.038974312917393034,0.16207031249600007,-0.06494140625,0.30163574218,0.010088984074956427,1.0497752213936002,0.89537196236,1.26568634567,0.0065594524169028025,950.0147335140897,949.95151608484,950.27125216464,0.004278358522484881,-0.0008068456030829826,Lift Down
-0.9554589843707998,-1.00476074218,-0.79626464843,0.0029654843879924997,0.1604150390584,0.05737304687,0.2529296875,0.002755311185690718,0.27312499999679996,0.01611328125,0.56335449218,0.01944855136095878,1.0187866352444,0.99247735212,1.05535628695,0.0002258247548112435,949.992920515257,949.7945899149,950.23820102413,0.019614492777297682,-0.0023071359474815646,Lift Down
-0.9836914062463998,-1.03247070312,-0.93127441406,0.000532525958451468,0.18339843749560003,0.06860351562,0.23571777343,0.0020641558098318546,0.11728515624600004,0.01049804687,0.19421386718,0.001848893936196067,1.009495400444,0.96343417813,1.04386107173,0.00036336758143451904,949.993774428196,949.96869112689,950.01594283529,0.00016973034380215834,0.0003939189225705429,Lift Down
-0.9927978515578216,-1.03405761718,-0.90393066406,0.0006906902789670654,0.09609592550772277,-0.15466308593,0.32238769531,0.01878067481576413,0.14674060179039605,0.015625,0.46044921875,0.016535762996916278,1.0254940445957423,0.99279877463,1.06843476665,0.0004316654586652397,950.0135261705483,949.9767261971,950.09508656649,0.0010086882488141208,0.000496825296637395,Lift Down
-0.6932922363248,-0.90393066406,-0.59228515625,0.005195446801645795,0.38937744140299985,-0.05078125,0.70446777343,0.06447982895768142,0.5361621093714,0.28674316406,0.76953125,0.021143295884993155,1.0042566285676,0.91591812135,1.05671862245,0.001129024500045044,950.0169432827555,949.84127367077,950.13466941922,0.005823797670784168,-0.0002627339865965233,Lift Down
-0.6499804687462999,-0.69555664062,-0.63745117187,0.00016929209833772732,0.473289794918,0.46545410156,0.47888183593,1.2453365508233737e-05,0.6298852539018,0.6083984375,0.64147949218,7.254607147344453e-05,1.0215024011894,1.01607698506,1.03857919021,1.8046259664493503e-05,950.0059726722743,949.95962756911,950.08329350172,0.0007763338953103941,-0.0006233937837189452,Lift Down
-0.6491723632777,-0.65942382812,-0.63745117187,3.3432179029814385e-05,0.45992797851269995,0.44226074218,0.47912597656,0.00013315944209089361,0.6421081542939,0.62463378906,0.6572265625,4.2257096737545904e-05,1.0224721767361,1.01245221684,1.02881674815,1.898232693437182e-05,949.9854318745691,949.95348581305,950.03121211185,0.00031704896239220993,-3.264029907387413e-05,Lift Down
-0.6422180792256565,-0.6708984375,-0.62097167968,0.0003000702705093476,0.4651063861231314,0.44763183593,0.48461914062,0.00011308775982532357,0.6403229067985858,0.61743164062,0.65649414062,0.00017879092676719422,1.0194668995183838,1.01090544335,1.03310995276,5.5204755448771216e-05,950.0360428206241,950.00773885532,950.07262794918,0.0004346426316719131,0.000340988750952812,Lift Down
-0.6291406249967999,-0.64184570312,-0.61767578125,3.8505708323011354e-05,0.4454785156215999,0.43518066406,0.46313476562,7.871411064540026e-05,0.6669384765584,0.65563964843,0.68664550781,6.980375811012861e-05,1.0194135659951997,1.00227657845,1.03082030187,5.7676995023538005e-05,950.066362544411,950.0170790879,950.1114869437,0.0003579757781069104,2.3163659264700087e-05,Lift Down
-0.6334033203083999,-0.64575195312,-0.62243652343,6.522997462312183e-05,0.4561767578084,0.43957519531,0.48376464843,0.00015863384862588282,0.6560302734343999,0.62976074218,0.68395996093,0.00036705744386028756,1.0199155785116003,1.00727765728,1.02922724537,3.0247446725179425e-05,950.0869761396934,950.0529273862,950.10169489732,0.00014550253780333379,0.000122328401421503,Lift Down
-0.7663623046832001,-1.13952636718,-0.60925292968,0.0348170893121198,0.37506835937079996,-0.02990722656,0.4833984375,0.0194551584451846,0.5010839843716,0.19201660156,0.63037109375,0.020396010225145665,1.0207473834276002,0.83241149559,1.22340169247,0.011180778044692658,950.0517301379296,949.97814358786,950.1304031971,0.0019077711272025449,0.00011846527135854804,Lift Down
-0.966274414058,-1.1171875,-0.79553222656,0.006985006332501095,0.28448730468480005,-0.05200195312,0.60241699218,0.03952223859597904,0.4380468749959999,0.18371582031,0.77099609375,0.022832455201901754,1.1238088467539997,0.96982368835,1.36824052857,0.012327589467203408,950.2330205834021,950.06892454642,950.34830899366,0.0049127266829141585,0.001962950321904088,Lift Down
-0.9680517578079999,-0.98376464843,-0.94396972656,8.468136642961846e-05,0.0635791015588,0.0263671875,0.16577148437,0.0011047554497719645,0.28512695312119996,0.265625,0.3388671875,0.0004538481645431829,1.0119544606920001,0.99979777824,1.02982565744,3.930198278506911e-05,950.3882945115132,950.3073376985,950.496498672,0.002947545921386736,0.0006043708616101914,Lift Down
-0.9738588238675246,-0.98767089843,-0.96105957031,5.323928181557401e-05,-0.0018443494744554455,-0.09826660156,0.07055664062,0.0033933537900009162,0.2698612024253465,0.21350097656,0.30200195312,0.0004677073790119758,1.012466085402772,1.00642487268,1.0231416726,1.7624429529283255e-05,950.5866219381265,950.46135885715,950.73282422006,0.006590209894162666,-0.0001520979739437662,Lift Down
-0.7912597656222999,-1.09582519531,-0.08630371093,0.11380720921231886,0.27580078124699997,-0.20275878906,0.85473632812,0.10744860543124807,-0.0984399414061,-0.96740722656,0.2275390625,0.18098321381554633,1.0420303321626998,0.66380975064,1.30799114529,0.02448276234277789,950.7607224699252,950.58061716235,950.93638050182,0.008764262269256822,0.002933912376592185,Lift Down
0.1982116699235,-0.16015625,0.892578125,0.15797423544746228,0.29529052733870004,0.04711914062,0.74035644531,0.05870450866981382,-0.7795739746063001,-1.0849609375,-0.16320800781,0.12491783344833798,1.0350537790238001,0.95344811575,1.09766815559,0.0010749796278586427,950.9684532449656,950.85661795229,951.10368181962,0.003138220886893867,0.0001853189159124483,Lift Down
0.3850939941399,-1.54443359375,0.892578125,0.6974380530128647,0.5537219238246999,0.34460449218,0.80493164062,0.007799654324511861,-0.026812744137799997,-0.29162597656,0.67211914062,0.07558536420266464,1.0684567932605,0.45257523498,1.81742275056,0.08791838207637118,951.0697869827851,951.03938325476,951.15685430324,0.001076615061332514,0.000228065630311462,Lift Down
-0.964736328121,-1.07763671875,-0.865234375,0.002015021497485199,0.27833984374619997,0.00427246093,0.69470214843,0.026191192058545493,0.3045190429652,0.24768066406,0.46374511718,0.0027050661257354155,1.0598918060460998,0.96570029443,1.33468588818,0.008234975055368621,951.099928254624,950.95602869034,951.22220518373,0.004673760672056996,0.002053765843471747,Lift Down
-0.9800951408584846,-1.01000976562,-0.87536621093,0.0006466695904167038,0.04880223129595959,-0.1513671875,0.21057128906,0.007405532036252093,0.2429556798414141,0.12768554687,0.40222167968,0.008446787465717125,1.0187153306752528,0.96570029443,1.07890152263,0.0005525947303897229,951.1332203685328,951.08835284592,951.21164451994,0.0012023934624301558,0.00015020806504126936,Lift Down
-0.9922558593712,-1.01232910156,-0.97314453125,0.00012272786612396624,0.07644531249599999,0.02062988281,0.1171875,0.0006253301254203067,0.19335449218319994,0.14807128906,0.21081542968,0.00024048424727357267,1.0142322248128002,0.99605776403,1.03823460315,0.00011433017441117384,951.1622060623217,951.14606535223,951.1882242244,0.00011584860929092563,-2.9946165582792785e-05,Lift Down
-0.9974975585907001,-1.14050292968,-0.9384765625,0.0019825719522453323,0.07966552734180002,-0.16052246093,0.22473144531,0.009640513880932124,0.13935302734010002,0.07177734375,0.22436523437,0.001739602251424562,1.0162912943187,0.96586957445,1.16352203162,0.002078585948434608,951.1556907153496,951.12924711577,951.19729585092,0.00042074127646554087,-9.579845995267792e-05,Lift Down
-0.9964343261681,-1.14392089843,-0.89758300781,0.004054043116808658,0.10844970702859999,-0.04663085937,0.26489257812,0.007018214879306667,0.09414550780929998,-0.00183105468,0.29467773437,0.005154716583004043,1.0126081454975002,0.90849487376,1.15317566147,0.004237909561162966,951.1663274649671,951.14824567049,951.19299707395,0.00010891116664017677,0.0002850343851019161,Null
-1.0069217492992077,-1.16174316406,-0.92712402343,0.004144868714980191,0.07332074760118812,-0.07800292968,0.25122070312,0.0075128121918217935,0.12429416769445545,-0.01184082031,0.29467773437,0.0074620233785721935,1.0244809767711882,0.94097703036,1.17180291272,0.004126364980247863,951.170677760767,951.13819287783,951.23671799859,0.0007881834312317377,0.0002902787386924966,Null
-0.9940051269493,-1.02160644531,-0.95251464843,0.000138191230084796,0.10830688476170001,0.01989746093,0.14172363281,0.0009220069029640652,0.13633911132569998,0.07531738281,0.18725585937,0.0006169113531742918,1.0099136810630998,0.97224485743,1.0281941263,0.0001006284421579367,951.1637048115454,951.14931898943,951.18415633676,9.916165171214986e-05,7.14141599504936e-05,Null
-0.9987414550751,-1.09777832031,-0.8740234375,0.003861787853446595,0.12073120117229999,-0.16882324218,0.5986328125,0.05262448102910823,0.32827880858979985,0.04321289062,0.73303222656,0.03921068455851237,1.099247383963,0.9534226328,1.24193226093,0.0062855211586729095,951.1503877296319,951.13059099411,951.18466129113,0.0002288928718862774,0.0001499894123774559,Null
-0.7655541992150003,-1.09777832031,0.32824707031,0.11818013985337528,0.4787585449184999,0.12951660156,1.25500488281,0.1121209427856221,0.3018554687468,-0.34558105468,0.806640625,0.04612264910102259,1.0594415403411,0.5199659293,1.56439557963,0.058225067982580835,951.159804593788,951.13389014197,951.17520933672,0.00010025291317255235,-0.00010690767571461726,Null
0.8516674804654,0.32824707031,1.20544433593,0.026540825168216164,0.4678002929636999,0.291015625,0.67077636718,0.00889486302615184,-0.17528808593330003,-0.40515136718,-0.03967285156,0.010750480348478036,1.0015034512268,0.64771997439,1.39359080235,0.017793604534968966,951.1182680927172,951.10588378243,951.13974390972,6.56410178011264e-05,-0.00015200058694006874,Null
0.5678491210896002,-0.16247558593,1.20544433593,0.12122841265993034,0.6977600097613998,0.3857421875,1.02014160156,0.042248426776618504,0.11463500976530001,-0.51147460937,0.771484375,0.13873425790967225,1.0434348211529998,0.67719065598,1.39359080235,0.03150306205280016,951.0962031031377,951.06097831839,951.1508573026,0.0005591726404717188,-0.0004377610297958222,Stairs Up
-0.27956197719080805,-0.96008300781,-0.05029296875,0.0471300665338307,0.8610913825723233,0.33813476562,1.181640625,0.036437892432697315,0.3462740194874747,0.14538574218,0.66101074218,0.015716931293185552,1.0059259304745456,0.72570329541,1.2717568359,0.026198632437267257,951.0389291390375,951.00703253012,951.08711579791,0.0006890180316473134,-0.0008481387934841472,Stairs Up
-0.9681164550757001,-1.25549316406,-0.68603515625,0.02757397646086265,0.2603955078090999,0.0751953125,0.50939941406,0.01105683160555938,0.2211987304655,0.09033203125,0.30920410156,0.0038052351244684474,1.031676145788,0.72570102646,1.3093304169,0.0319597802058524,950.9995102339407,950.96650558521,951.0281150194,0.00033372172550415305,-0.0004701457612353236,Stairs Up
-0.9896594238232,-1.28747558593,-0.71667480468,0.03184479393583299,0.2775817871059,0.12646484375,0.56860351562,0.011284360492875307,0.20174804687149997,0.07678222656,0.35668945312,0.006575544699178029,1.0528463408421,0.7599000297,1.35759851417,0.038284780632197986,950.9328886908194,950.89617003057,950.97167452924,0.0005440240484674519,-0.0006881309017854783,Stairs Up
-0.9853906249964999,-1.36401367187,-0.69689941406,0.03421835371916655,0.26751708983949996,0.1142578125,0.52368164062,0.010992986836711847,0.20486450194899994,0.10412597656,0.29333496093,0.0032307133454114213,1.0462006198673004,0.74670402173,1.41571877886,0.038334785554026134,950.8640403672823,950.82238237924,950.93643410864,0.0007944975215154759,-0.0006569762177633001,Stairs Up
-0.9518257367700991,-1.29382324218,-0.6806640625,0.025814282769973166,0.2828115331036633,0.12158203125,0.51831054687,0.01230908760913116,0.25349532023099014,0.08325195312,0.51013183593,0.010979632950643105,1.032797531827723,0.73764395076,1.35846193385,0.03248217271250384,950.7903492186288,950.71539934203,950.84619322783,0.0011523452416297656,-0.0008747833728430727,Stairs Up
-0.9635314941371,-1.291015625,-0.66076660156,0.034643799781445835,0.2877770996051,0.16259765625,0.498046875,0.00750041533446759,0.17189453124499998,0.04089355468,0.35144042968,0.007568153684923611,1.0283438585258002,0.6986772049,1.36328014056,0.03905702642004487,950.7110680783824,950.65891594204,950.78204184565,0.0007479926197977159,-0.000507993701983785,Stairs Up
-0.9722753906216,-1.33447265625,-0.64306640625,0.028845568281015418,0.31931152343400004,0.07885742187,0.861328125,0.03267595081607022,0.08616455077659997,0.00476074218,0.18798828125,0.0034699428022058874,1.0391836752246,0.67869061775,1.37160171706,0.03953782873205334,950.650100322643,950.5867222864,950.7663355029,0.002038803526019863,-0.000899767903445845,Stairs Up
-0.9778222656204,-1.33447265625,-0.68725585937,0.03374176942943157,0.2922631835894,0.12109375,0.50927734375,0.010227742996046235,-0.0083715820314,-0.16247558593,0.11645507812,0.004204233541173731,1.0247322946100001,0.72189602429,1.37160171706,0.03963633121775055,950.5862246784702,950.52375124299,950.69754579057,0.0034670002884681704,-0.0009915711905162917,Null
-1.0101000976519998,-1.22583007812,-0.77258300781,0.011990599445515395,0.32529296874659996,0.16760253906,0.52819824218,0.009494511768265398,0.025046386719000006,-0.16247558593,0.1787109375,0.011824062790986516,1.0694965980874,0.81009399447,1.29743565654,0.01605874063145387,950.5566760205247,950.47317904744,950.69746896577,0.00634288406760227,-0.0006734912228438213,Null
-1.0826049804639999,-1.42993164062,-0.86962890625,0.019966640406093177,0.2810546874973999,-0.01013183593,0.4619140625,0.01436183729538451,0.0418969726548,-0.29626464843,0.24682617187,0.025610963074876956,1.1377942138724,0.93060267306,1.46033554119,0.017722232985972506,950.5480818163088,950.47005855336,950.72697986813,0.004721550144949685,-0.0004302902684498259,Null
-0.9987719726524,-1.16101074218,-0.92993164062,0.0034300807810653242,0.37196044921519983,0.11059570312,0.96728515625,0.03686109230391329,-0.05566406249920001,-0.60534667968,0.10119628906,0.022916410907872033,1.0863191409704,0.96975800923,1.62789161788,0.02170176677188066,950.5565752381983,950.52417244415,950.64608639119,0.0007993417256527618,-0.00027494517257417594,Null
-0.9622987689352525,-1.04479980468,-0.85717773437,0.0014444210588904038,0.34965992936818174,0.23645019531,0.48303222656,0.0030482952723200484,-0.06161468197212121,-0.16625976562,0.06201171875,0.003268132204623669,1.028591967538687,0.90938857451,1.14119125054,0.0017763189920971688,950.5605799651223,950.48173942115,950.62313229188,0.000990521344567858,-0.0003497701147423241,Null
-0.8965332031219999,-1.05249023437,-0.72119140625,0.0063141584395820256,0.4897338867151999,0.23864746093,0.67321777343,0.01896839114736746,-0.05291137695119999,-0.15551757812,0.0458984375,0.004449341445857936,1.0336554754128,0.88301388798,1.20221768883,0.007476371897719073,950.5531324828224,950.49825441138,950.59301711144,0.0005546437313243174,0.00038430761245812455,Null
-1.0008227539027,-1.16735839843,-0.77893066406,0.01293776812596517,0.36413818358979994,0.17932128906,0.62548828125,0.016970883710076098,-0.1013745117149,-0.35180664062,0.02197265625,0.010240911660547173,1.0794758823600998,0.83341774016,1.28313424957,0.01919139431014307,950.5682559074843,950.51108460823,950.63246900625,0.0020908293296547156,0.00048623898478424043,Null
-0.7534663134239602,-1.06469726562,-0.40417480468,0.03686999084895441,0.6935636312620792,0.27893066406,0.99072265625,0.04149329874198556,-0.08047334274188118,-0.25915527343,0.16650390625,0.015291898592220816,1.0597218012978216,0.77677801046,1.37446128522,0.025184923591497394,950.5972119983965,950.52972560246,950.6733805428,0.0017645829511179025,0.0012310662985287964,Null
-0.2441113281257999,-0.94653320312,0.60571289062,0.25457537087168564,0.8293212890589998,0.42639160156,1.07434082031,0.028674117844189072,-0.2715332031212,-0.60974121093,-0.06970214843,0.025834671174888118,1.0491598825133999,0.74365036,1.40446097167,0.026617455170066313,950.6152290189821,950.5488450452,950.69640791415,0.0022927519478123503,-0.0002738599525338289,Null
0.7386743164024,0.60571289062,0.806640625,0.0026687614183139165,0.6178027343705998,0.49938964843,0.97509765625,0.014899626500837248,-0.2588769531212,-0.41345214843,0.08996582031,0.019521680167028942,1.0139467305207999,0.93004564391,1.19775269325,0.0029984204427238874,950.5693604364569,950.53086934103,950.63937613131,0.00036420227178556226,-0.00035414485055919515,Lift Down
-0.2730957031234,-1.26184082031,0.76037597656,0.17305572887664328,0.5559912109337999,0.326171875,0.69445800781,0.008482283076706832,-0.5703320312475999,-0.87744140625,0.08996582031,0.08987114788284871,0.9762912927916,0.65278931209,1.40965407351,0.024784338811112267,950.5912126570651,950.50167813606,950.71319349521,0.00436792175999433,-0.0012751325517692507,Lift Down
-1.0765258789024,-1.51208496093,-0.93359375,0.02182920307241642,0.17847412109120003,-0.12951660156,0.62756347656,0.02532750212151154,0.20979492187159998,-0.06408691406,0.3662109375,0.01247633994180026,1.1280760318104002,0.95789557372,1.52193681211,0.021470778008428542,950.5818088521427,950.53008678927,950.83039737968,0.0029225691530385296,-0.00013269813391384114,Lift Down
-0.9658105468724,-1.00793457031,-0.93896484375,0.00029838798022473065,0.231347656246,0.15710449218,0.29968261718,0.0015626916981759,0.23278076171580003,0.11962890625,0.32202148437,0.0018923790828008567,1.0217496770328,0.99491969461,1.05322946856,0.00024460119200620325,950.578353229919,950.57244952159,950.58774116724,1.8189662894846913e-05,-6.0365682807024926e-05,Lift Down
-0.9399414062459998,-0.96240234375,-0.92260742187,8.411961373187442e-05,0.2921679687468,0.23620605468,0.32287597656,0.0005658059168397372,0.244594726559,0.22692871093,0.2587890625,6.69462753161917e-05,1.0145746871764,1.00533807819,1.03131421207,2.672386553831647e-05,950.5822629111946,950.57716602866,950.58629654366,5.559074564778905e-06,2.3920598038905975e-05,Lift Down
-0.9344628906221999,-0.94372558593,-0.92919921875,1.5171272576851526e-05,0.30087646484,0.28918457031,0.31323242187,3.246182744351165e-05,0.2559936523392,0.24633789062,0.26599121093,2.953756337903388e-05,1.0145660127952,1.00861354161,1.02238769414,1.2621939366469969e-05,950.5892648303212,950.58454476203,950.59643569421,1.1636312789301106e-05,8.404229610829276e-05,Lift Down
-0.9377946949927273,-0.94873046875,-0.92907714843,2.144794382340343e-05,0.3049082129856566,0.27233886718,0.32543945312,0.0001577289970657615,0.2528779000903031,0.24487304687,0.26123046875,1.2517003055374063e-05,1.018106142141111,1.00916569816,1.0276338291,2.5034509420584524e-05,950.5936371351994,950.5912866593,950.59733997757,3.6534999499313517e-06,1.1094458355340296e-06,Lift Down
-0.939647216793,-0.99145507812,-0.86059570312,0.0010139355439525897,0.31573364257420006,0.1982421875,0.55773925781,0.008562316044021853,0.23979858398049994,0.20703125,0.26599121093,0.00017497493009314665,1.0242686657032,0.98656161726,1.10152503551,0.0006620208795215685,950.5954730774824,950.58388405235,950.59916803064,7.007882844569335e-06,-1.457064380925088e-05,Lift Down
-0.977819461629901,-1.04077148437,-0.9130859375,0.0011388309432177376,-0.004815129948910891,-0.16979980468,0.39770507812,0.016863255939412337,0.22184526801990104,0.12060546875,0.31408691406,0.0022088386368698323,1.0123271750872276,0.98299768004,1.06617723178,0.000579655045847443,950.5808744426139,950.5705554853,950.59138534196,4.638036073429206e-05,-0.00020414093458319906,Lift Down
-0.9952563476520001,-1.03002929687,-0.95373535156,0.0002882089337750325,0.0762036132776,0.01708984375,0.10754394531,0.0005999085939198778,0.10966308593400001,0.09582519531,0.12646484375,7.298062547225428e-05,1.004516841364,0.96268564638,1.03548519018,0.00026826588134503553,950.5755386042231,950.56968547154,950.58147070934,7.460588344058936e-06,-4.831418630060626e-05,Lift Down
-0.9536865234348,-1.05615234375,-0.8466796875,0.0026906265151716057,0.0972241210908,-0.01147460937,0.34533691406,0.0066448505539243915,0.11013183593359999,0.05126953125,0.14489746093,0.0006729731655625912,0.9687568704634001,0.86235829896,1.06811589006,0.002543462270011875,950.6033866060477,950.56968547154,950.66837423162,0.0007553530031877881,0.0009125817988503626,Lift Down
-0.9813378906214,-1.03796386718,-0.91918945312,0.00041687286259043863,0.250971679684,0.17602539062,0.34533691406,0.0010643336267492946,0.0673999023402,0.01977539062,0.11865234375,0.0005425521881739907,1.0160275346166001,0.98906279559,1.0704803544,0.0002476327253164853,950.7773935015279,950.66837423162,950.89700655515,0.004030092686500821,0.0021779752822480886,Lift Down
-1.0098730468712,-1.04174804687,-0.97595214843,0.00042724647908591395,0.24340576171500003,0.23107910156,0.25268554687,2.660684512479223e-05,0.100927734371,0.07983398437,0.12487792968,0.0001816677324456479,1.0437630004607998,1.00938371412,1.07818398798,0.00046899789058817094,950.9889881782182,950.89700655515,951.07370731361,0.003187004537226986,0.0019245091435586398,Lift Down
-1.0055273437461998,-1.03515625,-0.98657226562,0.00027545476202638303,0.21123291015179993,0.17785644531,0.25268554687,0.0004165275469934776,0.08254638671559998,0.06274414062,0.10363769531,8.516979337245883e-05,1.0309710912170003,1.0083141483,1.06291432576,0.0003903807773951675,951.1091758706875,951.07370731361,951.13594707815,0.00024146456641949298,0.0003721999046636191,Lift Down
-0.9883471679662,-0.99658203125,-0.97900390625,2.4140007558048635e-05,0.20473388671540005,0.18359375,0.23840332031,0.00021277816010537883,0.0717089843718,0.04113769531,0.09924316406,0.00019413663884694306,1.012075275428,1.00245728923,1.01943709863,1.8836726754681267e-05,951.1213398043479,951.11440630492,951.1293241769,1.4204894079199499e-05,9.671248689150034e-06,Lift Down
-0.9882202148401998,-1.00830078125,-0.98022460937,4.8288341726083455e-05,0.21367919921639994,0.19860839843,0.23767089843,0.00012007037196295068,0.06524902343259999,0.052734375,0.07775878906,5.464797068226159e-05,1.013248094744,1.002765148,1.03081364503,4.495289818687774e-05,951.1245797264626,951.11850427359,951.13229868969,2.1263528264222557e-05,-0.0001260781768654478,Lift Down
-0.9825659179639998,-0.98986816406,-0.97692871093,1.3625796404281462e-05,0.2242333984346,0.20251464843,0.23876953125,0.00015252337314317936,0.0679003906214,0.05358886718,0.07653808593,3.776981372960908e-05,1.0102080311054003,1.00424196886,1.01730783134,8.562472946592885e-06,951.1302997350384,951.12102120917,951.13549903043,1.5312864283213945e-05,0.00010697728447366797,Lift Down
-0.9869224471233334,-1.02746582031,-0.89306640625,0.00051790769202654,0.16071234808767676,-0.07202148437,0.27697753906,0.010245574439292983,0.13503689235717173,0.0712890625,0.2373046875,0.0026036821931113216,1.015229687219192,0.9034499699,1.06724287757,0.0006264905983574553,951.1302609427285,951.11001631036,951.14314581813,8.611737108236815e-05,-0.00017722114697844867,Lift Down
-0.9758651280135644,-1.08959960937,-0.86340332031,0.0034768436361562573,0.13970040802643566,-0.13134765625,0.32849121093,0.011548402114351814,0.17460889154980197,-0.00207519531,0.33728027343,0.007838434600475019,1.0104455669177224,0.9034499699,1.13510522012,0.003993823462106195,951.1193376713895,951.11182411242,951.12441881887,1.5853023478205097e-05,-8.260806727667203e-05,Null
-0.9729418945275999,-1.20666503906,-0.88977050781,0.007329531155588515,0.2939453124967999,0.03552246093,0.52490234375,0.012002773959455445,0.18091796874660002,0.08728027343,0.30541992187,0.00396540841678635,1.0394642876845999,0.94003236008,1.23014092695,0.00841395889597931,951.112283498145,951.10409496622,951.12180518283,2.374227468864584e-05,2.0569875023799636e-05,Null
-1.0163549804654002,-1.16027832031,-0.92565917968,0.003555998350739252,0.18771240234019998,0.0146484375,0.37414550781,0.008979153036942605,0.20822021484019998,0.12731933593,0.33850097656,0.0033493070953240878,1.0596315543254,0.96075885942,1.22872060694,0.004520841567462726,951.1134946215145,951.10860626129,951.1194394018,1.1455451920835077e-05,4.1110961023947905e-05,Null
-1.00898193359,-1.22143554687,-0.8740234375,0.008153221276032664,0.2632885742144,0.00830078125,0.61328125,0.02545598661683521,0.24843994140280007,0.09118652343,0.48791503906,0.009821112884618765,1.0861010113638,0.93865571311,1.3125803446,0.012594374538484023,951.1160028073821,951.10920451042,951.12582606667,2.6334440801227414e-05,-1.1986046806084136e-05,Null
-0.890168457028,-1.05895996093,-0.72387695312,0.009115775311740081,0.0694042968732,-0.13610839843,0.40417480468,0.01411433783366998,0.4591040039025999,0.16394042968,0.6875,0.025847238416761693,1.0246695037524,0.89053703174,1.1653615884,0.00669930387654586,951.1222485595924,950.96944388144,951.48613868781,0.01739610936086941,-0.0018842470039302241,Null
-0.8691674804653999,-1.17944335937,-0.69641113281,0.015815058916506655,0.14964111327819998,-0.03833007812,0.3994140625,0.011743385388151284,0.523642578122,0.32897949218,0.71508789062,0.012189875612558406,1.0394823413597998,0.85102730302,1.26509548224,0.010983252750609079,951.0929879505787,951.03269633931,951.12069704838,0.00046373172266320727,0.0006501915697274524,Null
-0.9323339843709999,-1.20849609375,-0.75915527343,0.013687612697521558,0.17630371093459996,-0.08422851562,0.44677734375,0.020117472542107825,0.3538720703087999,0.14990234375,0.51257324218,0.010419092298558842,1.0250606610011999,0.83239721926,1.29231706774,0.018775430382059737,951.1131174778793,951.10301747564,951.14874389485,7.881305592293019e-05,0.000178245745710987,Null
-0.9738208007775999,-1.32641601562,-0.67504882812,0.03544431877256744,0.10957519531080002,-0.134765625,0.38879394531,0.02137335789265695,0.33625732421419996,0.21716308593,0.5234375,0.005980158628885077,1.0495081020948,0.73208749894,1.40156463401,0.03444976174074463,951.112781723889,951.09333816459,951.17674549947,0.0004501932429923217,2.1269060237810578e-05,Null
-1.019194335934,-1.35986328125,-0.62512207031,0.05073341791096495,0.15441894530979997,-0.05163574218,0.42175292968,0.012753624506412896,0.24800537108919993,0.12170410156,0.44152832031,0.006889476083808323,1.0676374981448,0.64298144034,1.43428408556,0.05447666164579976,951.1098788245451,951.08788667117,951.13535386704,0.00012451644912963943,-0.0002210789675361498,Stairs Up
-0.9603998974066668,-1.29565429687,-0.69567871093,0.025632596112973714,0.2495018544791919,0.10168457031,0.44396972656,0.009196821425919724,0.27049794822919193,0.14453125,0.37487792968,0.0035092838796965857,1.0330250877823233,0.75550556034,1.36978193166,0.02889071354000536,951.0519081322557,951.01244361921,951.09808140331,0.0007411016725813371,-0.0008468214315030538,Stairs Up
-0.9884045289255445,-1.26867675781,-0.67797851562,0.020479001848396284,0.2486390973041584,0.13122558593,0.50109863281,0.01048403513016597,0.26960134977990097,0.10791015625,0.51342773437,0.014033874078606526,1.0644437120909904,0.71064012197,1.3315000062,0.023190390012060757,951.0091413411567,950.98471277671,951.02963620051,0.0001293031301258234,-6.518670800972415e-05,Stairs Up
-0.8489355468718,-1.25659179687,-0.58081054687,0.02659915868688069,0.27897460937159996,0.06494140625,0.61511230468,0.01548793084685491,0.46709472655959994,0.20556640625,0.6923828125,0.019094175858750936,1.0220709751124,0.71235742355,1.36627723363,0.0329659126918864,950.9880176124148,950.85997843234,951.27766847265,0.010862205863732466,-0.0011411710060243978,Stairs Up
-0.7832373046832,-1.11413574218,-0.54919433593,0.017715961668286602,0.2034301757774,0.02502441406,0.47814941406,0.015390917658809145,0.5859741210887999,0.34265136718,0.85571289062,0.01903917166331532,1.0095328016874,0.76303308995,1.35974198353,0.03098817702168095,950.9104272702575,950.7295691094,951.22848689843,0.024437439952368856,-0.004594361366224913,Stairs Up
-0.8669824218707999,-1.23889160156,-0.65966796875,0.022492333758953754,0.27049316405900004,0.01635742187,0.55310058593,0.02265943158763971,0.44960937499599996,0.23461914062,0.67016601562,0.016771963750329282,1.0290120516138002,0.7415724364,1.33312778701,0.029709445617783787,950.850928936794,950.78531751593,950.90510415025,0.0009504369596289936,0.0008511881574861206,Stairs Up
-0.8735375976529997,-1.2919921875,-0.63854980468,0.03656530891413665,0.21154296874660003,-0.0078125,0.51611328125,0.01753709530587351,0.49214599609079995,0.29724121093,0.76196289062,0.014099834308449995,1.037094917572,0.73742417131,1.42466880563,0.04240443605848608,950.8400749506001,950.68312234597,950.98484101122,0.0047414783801089525,-0.0008184310756596102,Stairs Up
-1.0219384765594,-1.28173828125,-0.66821289062,0.02316101334313102,0.2299414062458,-0.0078125,0.48278808593,0.018313279922236116,0.266330566403,0.01977539062,0.40795898437,0.014722741186209939,1.0932484798853999,0.7535294792,1.37092650716,0.028895046580523595,950.7507041885649,950.68312234597,950.77161948447,0.00029340643799285923,0.00015899491035159345,Stairs Up
-0.9723461914024,-1.31311035156,-0.66821289062,0.04193175935398416,0.21034179687040003,0.00598144531,0.45776367187,0.012607769918012091,0.26818603515260003,0.10021972656,0.45971679687,0.009850649213631478,1.0396444062696002,0.72914880435,1.36291110853,0.044959921322955225,950.7193479711286,950.68048163338,950.76549175223,0.000584240484985094,-0.0007366118651631049,Stairs Up
-1.0108691406212,-1.46813964843,-0.55297851562,0.05431076129245139,0.2545556640594,0.072265625,0.578125,0.0196264810274344,0.305541992183,0.0390625,0.48388671875,0.015304708119729855,1.10054609898,0.62598133531,1.51065642712,0.05773609041541825,950.6608536183962,950.63026057688,950.68699487297,0.00025681971354851344,-0.00044754834034512245,Null
-0.997226562496,-1.34362792968,-0.78698730468,0.017338313863711017,0.22692382812139997,0.05981445312,0.55712890625,0.01593449799698246,0.29909667968400006,0.12219238281,0.42431640625,0.008456008000862197,1.079217531396,0.91009168436,1.361312483,0.012136480915836474,950.6323611870395,950.62259541736,950.64828539033,3.8420892966792776e-05,-0.0001803773653800812,Null
-0.5873876953093999,-0.98815917968,-0.4404296875,0.011998389489627299,0.6840502929654,0.29150390625,0.82763671875,0.014389213173290383,0.3835473632764,0.181640625,0.57543945312,0.008629402421883769,0.9954395302678001,0.84408875129,1.08177238425,0.0038632973740422194,950.6350703115597,950.5272391464,950.72596732388,0.0029760651568033506,9.133150207157713e-05,Null
-0.5820727539018,-0.60729980468,-0.55554199218,0.0002871851788331251,0.7721533203081998,0.72448730468,0.80810546875,0.00046277421898370026,0.327116699215,0.29016113281,0.37414550781,0.0008596734627404384,1.0215676820624,1.01107286581,1.03070500451,2.806394495954929e-05,950.5599680271258,950.54351650673,950.58471505062,8.443034208603344e-05,2.4165879755396814e-05,Null
-0.6213549804639998,-0.73083496093,-0.564453125,0.0031258885366946885,0.746789550778,0.61462402343,0.83520507812,0.0041855213919273155,0.30974121093440005,0.24206542968,0.45703125,0.0018195949419703731,1.0239417247922,0.98922838654,1.06313558109,0.0003023249526371443,950.6380038196103,950.56813995415,950.81861947997,0.005115324030169504,0.0020945695662711473,Null
-0.6588232421823998,-0.80358886718,-0.50329589843,0.00749847614405165,0.7299853515594,0.54553222656,0.9365234375,0.013220451070779418,0.3178588867148,0.18054199218,0.45703125,0.005344044229020952,1.0418429282956,0.88387839355,1.22018122388,0.008410711402310428,950.5358625276039,950.35100653694,950.75640276135,0.008743830662007677,-0.0003902954771508244,Null
-0.6395410156199999,-0.78039550781,-0.49389648437,0.0059436232394272925,0.7283666992157998,0.55834960937,0.97631835937,0.01591990830322985,0.32184082030839994,0.19763183593,0.52062988281,0.010669973908090836,1.0294376637951999,0.78121388351,1.2634940575,0.015735898549197866,950.6089744873933,950.44921968871,950.89783563667,0.014808682403293406,0.00028051415040384773,Null
-0.6753686523403999,-0.94323730468,-0.3291015625,0.016492300496922727,0.6927246093714,0.56921386718,0.95812988281,0.0064726170867090895,0.3075170898394,0.12243652343,0.48547363281,0.010404184424533038,1.0249371351306,0.81980075314,1.2634940575,0.013228526824363575,950.5071787981999,950.33867382503,950.73794712469,0.007273805436352747,0.0006483067737252347,Null
-0.5735888671831999,-0.69458007812,-0.27197265625,0.010941805478161438,0.7532519531215999,0.60400390625,0.95324707031,0.010945628845390189,0.3503588867148,0.17199707031,0.48486328125,0.006738914991955718,1.0172866135310001,0.86124776175,1.22325356734,0.012739469390081602,950.5554238796515,950.51541208435,950.57526071421,0.00018336728438323173,0.00032837537219832256,Null
-0.5719531249966,-0.81787109375,-0.4130859375,0.007583457508572209,0.7780957031213999,0.58813476562,1.02856445312,0.011202046582166622,0.3719824218711999,0.17248535156,0.55859375,0.010099774683263795,1.0417232731487998,0.82787608958,1.33728292544,0.014488152281834478,950.5763814351518,950.54417682977,950.62634349978,0.0003688418038777424,-0.00019603313132075624,Null
-0.6358044433551998,-0.87719726562,-0.44970703125,0.010367000492687116,0.7226599121055,0.498046875,0.94592285156,0.012489476726266229,0.3761853027302999,0.16735839843,0.57543945312,0.015379142368384347,1.0429249813394001,0.80250018711,1.302236356,0.01889555520495334,950.5478331850167,950.48299565922,950.78347142393,0.0041761514314032685,-0.0006079937933876812,Stairs Up
-0.6165576171837999,-0.80883789062,-0.42614746093,0.009877659672369499,0.6906249999966999,0.44067382812,1.03698730468,0.029520120885463203,0.4141442871052999,0.1865234375,0.66455078125,0.015806190309882256,1.0222149251379,0.74790480138,1.45223155806,0.03873763076219243,950.4803756893649,950.4517534952,950.55731624541,0.0006281322175176615,-0.0005260479410094215,Stairs Up
-0.6443676757775001,-0.76635742187,-0.50341796875,0.005405850247764447,0.6741284179650999,0.51391601562,0.96911621093,0.011998031602840709,0.4091906738245,0.22277832031,0.61938476562,0.011756633897857223,1.0232863092892,0.80022762048,1.34353882771,0.01904027561269429,950.464073988144,950.39311357225,950.59752628385,0.0023934949920597776,-0.00033954345990166204,Stairs Up
-0.7079296874963998,-0.87390136718,-0.55419921875,0.008556988359508933,0.6450268554648,0.4716796875,0.87731933593,0.012685343117088983,0.39512207030859997,0.24938964843,0.57141113281,0.007702091944405291,1.0396691786989998,0.82289949028,1.33680058088,0.021301530512434864,950.4093437914256,950.37293429457,950.50429942619,0.001104059582101578,6.921255236046701e-06,Stairs Up
-0.6713134765597999,-0.8818359375,-0.48449707031,0.012310103936708386,0.6572558593711999,0.47900390625,0.95166015625,0.01957413437377427,0.3966674804645999,0.17272949218,0.560546875,0.010686462726605344,1.0255598039084,0.80158254029,1.39152874672,0.030670930486182385,950.3367316645282,950.27296690276,950.50429942619,0.003358239657598947,-0.000733385705367086,Stairs Up
-0.6371533203098,-0.88500976562,-0.45935058593,0.014225428851079499,0.714060058591,0.4755859375,1.0498046875,0.021482388232670967,0.38189208983979994,0.20544433593,0.54992675781,0.009955411132268579,1.0352807224022,0.73682216998,1.38848614423,0.03544253625761293,950.278034962184,950.14504072848,950.62556303588,0.017013831021827464,-0.002105151955943844,Stairs Up
-0.6784228515589998,-0.8720703125,-0.49365234375,0.010169490274977521,0.610886230465,0.435546875,0.96081542968,0.011961942303001388,0.37906005858979996,0.24365234375,0.57641601562,0.00911516842789542,0.9921282267520002,0.77729721505,1.41983391385,0.023981612916922006,950.1858091605568,950.12851932145,950.35510248325,0.0032819846465134547,-0.0006667928060541753,Stairs Up
-0.6843164062461,-0.85864257812,-0.48461914062,0.00837674546727289,0.6810595703080999,0.43566894531,0.91833496093,0.013941153167298888,0.3688012695276999,0.23022460937,0.5302734375,0.006827955468815571,1.0384393871967001,0.76178486854,1.34091395129,0.017995895356639712,950.141300493088,950.12295065677,950.22035655461,0.00028679334822361794,0.00011920498885196576,Stairs Up
-0.6348535156219,-0.86743164062,-0.42810058593,0.013804598312067248,0.6577355956993,0.46801757812,0.94580078125,0.01555752244141226,0.40064819335539986,0.22839355468,0.56469726562,0.010041134193367678,1.0050167733834998,0.77992484239,1.40209121342,0.025378366264195304,950.1294837401921,950.01557735217,950.2734802927,0.00694466984457163,-0.001191750144534876,Stairs Up
-0.6867980956998,-0.87097167968,-0.47583007812,0.012226331527331113,0.6694384765596,0.486328125,0.93298339843,0.01893387476596088,0.35452270507329997,0.17407226562,0.52099609375,0.007333760121625837,1.0288371493658002,0.77452179013,1.35896307086,0.025382821622258977,950.0501758482703,950.02237804627,950.14808796293,0.0007923928491866937,-0.00042554878246174057,Stairs Up
-0.6278356933555999,-0.7509765625,-0.53076171875,0.004089754595547989,0.7684167480441999,0.59399414062,0.966796875,0.009118839241995387,0.25733886718460003,0.06115722656,0.42175292968,0.008874545578955756,1.0316027221721,0.87556524411,1.20861116111,0.008609475475549588,950.0271606113616,950.01536229445,950.0437625948,6.872211561428218e-05,-0.0001618930532087115,Stairs Up
-0.6101550292926998,-0.72863769531,-0.48413085937,0.003729025792202259,0.782241210934,0.587890625,1.01550292968,0.01159058715343472,0.25263305663610003,0.11315917968,0.44799804687,0.007464911075483355,1.0297799612315002,0.85440573118,1.2336853189,0.010226104432383845,950.0180590437504,950.00654778428,950.03138417416,5.33168010245696e-05,-2.3807662446669965e-05,Stairs Up
-0.6427770996059999,-0.82348632812,-0.45141601562,0.009407433492596422,0.7411633300742997,0.57214355468,1.00659179687,0.01938058748838754,0.2719946289029,0.11926269531,0.41064453125,0.0064537700920137275,1.0245943154372,0.79707924712,1.27903876576,0.02178022395424365,950.0068906010633,949.97278052137,950.02420487325,0.0001925324856743146,-0.00024165087175157662,Stairs Up
-0.6505883789028999,-0.8095703125,-0.51477050781,0.007169609954925406,0.7365624999970001,0.55505371093,0.99865722656,0.013404707017536674,0.2748864746057,0.13513183593,0.43029785156,0.006443635278004415,1.0257604774235998,0.79911919213,1.29071728235,0.015112239719297232,949.9918786198815,949.97694649442,950.01159879495,6.977416206349239e-05,5.9905688329687224e-05,Stairs Up
-0.7547924804645999,-1.23767089843,-0.07116699218,0.15242873798082537,0.5431152343714999,0.06726074218,1.11462402343,0.10464777308326066,0.25377685546479994,0.0791015625,0.43432617187,0.008774942165518046,1.0777102279786,0.73276628661,1.37187794595,0.031133476716456422,949.9968787207978,949.91728249035,950.09522614386,0.0017655134277664768,-0.00085192649796163,Stairs Up
-1.01864990234,-1.32543945312,-0.66491699218,0.03972434382823282,0.2569738769486,0.00329589843,0.59143066406,0.02406062943023963,0.2720263671835,0.03942871093,0.53332519531,0.015032997733563983,1.0972005648180998,0.69151626401,1.50340432052,0.0523861144046077,949.9956186581793,949.96353855501,950.06128087458,0.0007041045243152562,-0.00034363012973774023,Stairs Up
-0.9122558593714,-1.26049804687,-0.57238769531,0.038635801787260796,0.1493603515605,-0.17211914062,0.50671386718,0.023502827388380533,0.34931884765239984,0.15832519531,0.59338378906,0.014195115511995055,1.0053735383571,0.67358094256,1.32359053752,0.04175492981263859,949.9924371510258,949.71265809235,950.26355032332,0.014960596578825036,-6.332697093529226e-07,Stairs Up
-0.9770324706992,-1.25634765625,-0.67102050781,0.02015273931512058,0.23432250976229999,0.0458984375,0.51098632812,0.01600681358363849,0.3585241699182999,0.19262695312,0.49560546875,0.008319519220897947,1.0789083676846,0.78810108269,1.3389331626,0.018212205389126632,949.926125544458,949.58146808304,950.3701179891,0.03333024230674427,0.0025188433906974624,Stairs Up
-0.9029663085906,-1.2607421875,-0.58447265625,0.03067571571983266,0.2062976074195,-0.01989746093,0.6181640625,0.02429095437264679,0.3713891601524999,0.23413085937,0.54211425781,0.0066481976738122835,1.007436115512,0.64105545096,1.36803053885,0.042331270511642496,949.7843304382295,949.58146808304,949.8975758203,0.0031108417245560207,0.0011650071980254775,Stairs Up
-0.9509704589803999,-1.27880859375,-0.73193359375,0.022016415203090632,0.17222778320030002,-0.0712890625,0.42028808593,0.015197939311139485,0.3506604003864999,0.14514160156,0.52209472656,0.009487418482596063,1.0375697516433,0.82538043772,1.3997020119,0.02692293464708523,949.7889827382128,949.762343109,949.81441597486,0.00018035408746277428,-0.00043872430490497197,Stairs Up
-0.9267321777314999,-1.24133300781,-0.68786621093,0.02364215323875765,0.24812255859029997,0.06384277343,0.53149414062,0.01225777008905934,0.33744384765209984,0.2158203125,0.50598144531,0.008991838169817499,1.024875905502,0.73817880111,1.32256924455,0.02862414732133397,949.7371830942601,949.70821434175,949.762343109,0.00024715016098994194,-0.0005032751912205401,Stairs Up
-0.9621069335903999,-1.26989746093,-0.75158691406,0.025640146653968802,0.23870971679350006,0.09741210937,0.42517089843,0.007383288305975972,0.3143798828091,0.16101074218,0.49877929687,0.00999358266281292,1.0466080306322998,0.80373439082,1.41291417341,0.028954817100686512,949.6782699863595,949.64060469113,949.71010428113,0.0003834265202913639,-0.0006310354561332618,Stairs Up
-0.8856933593701999,-1.15991210937,-0.64501953125,0.016295859307740905,0.2967370605428,0.0283203125,0.61376953125,0.024868467737611838,0.3508959960893999,0.15051269531,0.46716308593,0.006536850850936671,1.0131006729942,0.7933795222,1.24346292743,0.01665131566022702,949.6280686810059,949.60928172264,949.64498684176,9.344468306131214e-05,-0.0002930474615345983,Stairs Up
-0.9806347656212,-1.15954589843,-0.83190917968,0.008799364928023955,0.1944677734342,0.06530761718,0.36364746093,0.003753228524783742,0.32673828124580007,0.08862304687,0.5625,0.01626100549801794,1.0634196676125,0.98814701028,1.21138510891,0.00392347108789957,949.6067107314392,949.59462091034,949.61644808823,3.111389042178671e-05,-2.940243086106102e-06,Stairs Up
-1.0025024414027999,-1.23779296875,-0.79895019531,0.015240429477482357,0.22849243163730001,0.1298828125,0.37048339843,0.0053182944789959075,0.2731347656215999,0.10046386718,0.40991210937,0.0052852921053304705,1.0697814728658996,0.89867008349,1.30039832633,0.013106780544855064,949.6059553160213,949.59030203402,949.61923558285,7.197130424298671e-05,-0.00024030845250768934,Stairs Up
-0.9536169433558999,-1.26916503906,-0.64440917968,0.03704870483360281,0.21216796874640004,0.03173828125,0.63061523437,0.021990270229184646,0.3164465332002,0.12866210937,0.55517578125,0.01239198899473278,1.038703660023,0.68613294671,1.37319961718,0.04681847582080439,949.5605315062469,949.52126325992,949.5997096032,0.0004929947198604208,-0.00062088778302404,Null
-1.0024914550744,-1.20397949218,-0.77368164062,0.01363003949170495,0.1648937988257,-0.07727050781,0.40063476562,0.016440034723356728,0.28748535155919996,0.13037109375,0.50451660156,0.010135026796880145,1.0676949817068,0.82168069,1.26649503473,0.014805440192467424,949.5295577831861,949.51639462729,949.55186257695,8.339037090123732e-05,6.307160596111673e-05,Null
-1.0142797851524998,-1.1806640625,-0.82556152343,0.008345272799938203,0.20187255858950004,0.02429199218,0.35693359375,0.009880660344941575,0.28979248046430006,0.13012695312,0.43676757812,0.0066309914383842665,1.0815491679551,0.88985372073,1.23932289211,0.008439845303667724,949.52901375706,949.5185565791,949.54604545363,2.672829501443549e-05,9.370444524555322e-05,Null
-1.0138623046843,-1.21887207031,-0.82666015625,0.008462362313588457,0.181967773434,0.02233886718,0.3623046875,0.007666082960358733,0.24795898437070008,0.00744628906,0.47717285156,0.014980642506373047,1.0699019143497,0.88681131459,1.25217977843,0.008707668617308697,949.5338399299941,949.52144311091,949.57930507141,0.00021690766571799233,-0.00021121551222273634,Null
-0.9676037597617001,-1.03723144531,-0.89001464843,0.0013074079833225055,0.1437939453077,-0.00024414062,0.22473144531,0.004403152826995407,0.2912353515582,0.22253417968,0.40954589843,0.0026327937540435217,1.023822516555,0.94320416802,1.10160500194,0.0018173133597410294,949.5327045829716,949.52589929949,949.54028969496,2.031730491011895e-05,0.00012353858132667364,Null
-0.9824804687465999,-1.07092285156,-0.92822265625,0.0015295444353773408,0.16675292968410002,0.08386230468,0.248046875,0.0011599316500796753,0.23539306640319999,0.15551757812,0.28662109375,0.0010747910207712932,1.0250078383600998,0.96889449395,1.12082762666,0.0015857196686985071,949.5397577273209,949.53440389874,949.54360531591,6.441752464791835e-06,2.183227874840833e-05,Null
-0.8637561035119,-1.11901855468,-0.54406738281,0.01658589397268652,0.47183349608969993,0.01184082031,0.79211425781,0.05993688606847554,0.2592736816374,-0.17016601562,0.72485351562,0.050470205103425925,1.0710979021371998,0.85219610772,1.32015593576,0.01454205627019995,949.5327875860534,949.51874901551,949.54737031355,5.3645326849271585e-05,-9.111057314118398e-05,Null
-0.2660021972639,-0.76794433593,0.35400390625,0.10541202476918035,0.5007922363254999,0.00305175781,1.29016113281,0.1538321798783356,-0.5992260742155999,-1.08483886718,-0.01318359375,0.1280970076773465,1.0132390132110003,0.80739620003,1.4921138156,0.03781456892772245,949.6216866284844,949.51364182768,949.93672492618,0.019203131586141346,0.003444883121596554,Null
-0.17412841796580003,-0.29406738281,0.2373046875,0.009389370204027987,-0.36240112304319994,-0.44799804687,0.326171875,0.021142901282681283,-0.9276782226527,-1.2373046875,-0.75329589843,0.006695497945196213,1.0273437493192,0.85449184744,1.24797421454,0.0036994719024298363,949.500019937244,949.09002860985,949.80169685043,0.03629432518363261,0.004095741674927522,Null
-0.6583142089805999,-1.26184082031,-0.140625,0.08768775851320058,0.46539062499739986,-0.45324707031,0.96374511718,0.13549743230749475,0.08072509765430003,-0.86193847656,0.60864257812,0.2620213897205765,1.0332619508439,0.61951359486,1.71390604697,0.06990588752283583,949.421617565195,949.1287421569,949.69925748587,0.027197339514616864,0.0029356900531057996,Null
-0.46162475585669993,-0.56921386718,-0.3916015625,0.0013138524375052672,0.5990246581998,0.556640625,0.63256835937,0.0004227068974691482,0.6730358886681997,0.54797363281,0.73913574218,0.0017044672144407502,1.0138471771375999,0.96967648226,1.05129133131,0.0004300823040920736,949.5741547259217,949.49333022486,949.60673107788,0.0005361183689760941,-9.01024921789989e-05,Null
-0.4503820800735998,-0.46960449218,-0.43310546875,8.686818708644553e-05,0.5883520507778001,0.55041503906,0.62463378906,0.0003813708610939052,0.6910656738243,0.67272949218,0.70812988281,0.00010800731755298967,1.0134016981140999,0.993645003,1.03789860927,0.00016303172596985322,949.5617123481101,949.52955409087,949.59066109642,0.0002606282317576687,0.0003515489278670551,Null
-0.4447436523403999,-0.505859375,-0.37963867187,0.0009289270157530816,0.5979162597622999,0.55334472656,0.69274902343,0.000741468732636313,0.6797546386692997,0.62939453125,0.70153808593,0.0003372284423541169,1.0094778133212,0.96526470345,1.05027876684,0.00031235468842496074,949.5604299254987,949.5390474513,949.60609969376,0.0003295195820703347,0.00010970206582740654,Null
-0.44316772460549986,-0.46813964843,-0.41076660156,0.0003052014458415238,0.6352502441357999,0.59777832031,0.73010253906,0.001005047034438699,0.6543493652294999,0.62097167968,0.67761230468,0.00022716180695067574,1.0144828030369002,0.98638098546,1.0876408261,0.00046492435846355313,949.5709962086087,949.54474707297,949.59880100198,0.00019306466561478186,6.622886289661963e-05,Null
-0.44587768554329993,-0.50280761718,-0.39465332031,0.0010148954074971762,0.6069750976536,0.55065917968,0.6572265625,0.0008148352967442712,0.6763525390580999,0.64831542968,0.71252441406,0.0003317898211120586,1.0132743732557,0.99199266848,1.03473008218,9.432985273464188e-05,949.5532702915609,949.54472767278,949.56435649779,3.5673502062524776e-05,6.875695525652841e-05,Null
-0.42300903319869987,-0.59680175781,-0.28442382812,0.00578267264095678,0.5624340820271,0.23266601562,0.73913574218,0.014505188699933521,0.7221948242146999,0.62585449218,0.85778808593,0.005009115820119266,1.0197223719636,0.94839719061,1.16882732818,0.0020650448746227005,949.5396660918123,949.46833288692,949.64381611562,0.0018706608865940663,0.0001432831763943645,Null
-0.5094702148400999,-0.69213867187,-0.28442382812,0.008181721628379832,0.5136157226517999,0.27465820312,0.77990722656,0.016258931948853708,0.7232604980429997,0.5546875,0.91149902343,0.01201908015684467,1.0348641855756,0.85250257521,1.2136302419,0.011735365868451954,949.5360204012712,949.43178554127,949.6846872016,0.0047858100318864645,-0.0008018027129261337,Null
-0.5197277831998,-0.62451171875,-0.39428710937,0.003966223680351218,0.5435070800744999,0.34289550781,0.76647949218,0.016283932687999752,0.6839514160125999,0.53198242187,0.81701660156,0.008098096635411582,1.0240221905023,0.8150277889,1.21108949384,0.012878563656568299,949.5356849387676,949.45692968051,949.65113930443,0.002506636679423453,-0.000234129740449101,Null
-0.4927319335897999,-0.7255859375,-0.38000488281,0.0072030477512561655,0.5710168456993999,0.36694335937,0.83972167968,0.02073824882966324,0.6751513671826999,0.49938964843,0.83508300781,0.009566463822030604,1.0210290278734,0.74414088532,1.24593092712,0.01950179000538955,949.5455714116481,949.4485579401,949.65426620822,0.002163347803284664,-0.00010131328919602484,Null
-0.5180395507773998,-0.66870117187,-0.41772460937,0.004718302349809629,0.5598376464802,0.36560058593,0.81103515625,0.01584825783522692,0.6659790039019999,0.51428222656,0.81469726562,0.008582736958170896,1.0202977995715,0.8236944782,1.21632235169,0.013294348068750772,949.5502695996821,949.48960266859,949.61376009015,0.0011613662276643308,0.0001522816123213742,Null
-0.23752441406019997,-0.68286132812,0.23779296875,0.05995759698987042,0.7383618164014999,0.42443847656,1.14050292968,0.043179905842152116,0.05580200195289997,-0.93115234375,0.80969238281,0.46537405331940473,1.0717646574359998,0.85857127492,1.36864834259,0.0190473154339152,949.5389906251368,949.35080929548,949.7933413475,0.020227830839464958,0.0028876156131464304,Lift Down
-0.6000671386674,-1.48986816406,-0.04187011718,0.2358442272127482,0.34303344726109997,0.06298828125,0.76232910156,0.02487495200046728,-0.38091430663990017,-0.95288085937,0.27758789062,0.2535883728197889,1.0460564584235998,0.77347403738,1.64201642024,0.0381601900563281,949.4976539257368,949.31870481521,949.7933413475,0.013183717794236636,-0.0020331964595268785,Lift Down
-0.9547131347615999,-1.03210449218,-0.90686035156,0.0010760753127342728,0.1834777831994,0.01721191406,0.41381835937,0.011112247565504909,0.29209106444880006,0.18103027343,0.41027832031,0.005158951696622926,1.0227604701076003,0.94352107113,1.15277295282,0.0016093728879038307,949.5637844896539,949.52254608912,949.5806015187,0.00012222019954444746,0.0001443289438215601,Lift Down
-0.9501806640575998,-1.02233886718,-0.84802246093,0.0011166843742056829,0.23226440429339998,0.0751953125,0.42053222656,0.007405671596119999,0.2675646972618,0.1357421875,0.35144042968,0.0035308855033084263,1.019378364914,0.92978989814,1.08857761518,0.0011933063406710464,949.5631657382078,949.55221187518,949.56802781163,2.4458875523739874e-05,-0.00011686796177985432,Lift Down
-0.9256713867145001,-0.96716308593,-0.84802246093,0.0002913268828501353,0.3490454101526999,0.24267578125,0.36730957031,0.0003540560392654786,0.2423559570271,0.2060546875,0.29406738281,0.0004721376570466294,1.0189269684259998,0.92978989814,1.06403505707,0.00033414426978669947,949.5542982774443,949.54782499155,949.56002294154,8.673073311543385e-06,2.0244410269407927e-07,Lift Down
-0.9265930175753002,-0.93469238281,-0.91687011718,2.300780680860316e-05,0.3594580078088999,0.35266113281,0.36633300781,1.7338593797520617e-05,0.21189819335590002,0.20263671875,0.22644042968,3.659112735328014e-05,1.0162381221842,1.0089717009,1.02495539556,2.199102533369554e-05,949.557021001032,949.55024227583,949.56144844339,6.1048279696106495e-06,2.5442235852707984e-05,Lift Down
-0.9262988281207001,-0.94897460937,-0.90295410156,0.00012370646602654522,0.3435485839799998,0.31945800781,0.36108398437,0.0001573048983344932,0.21901245116790002,0.19189453125,0.23901367187,0.0001684557834452109,1.0120901812187,0.97907595095,1.03744721881,0.00014145440192146188,949.5627423115061,949.55308985678,949.57167707485,1.7968158674187343e-05,3.818185531379775e-05,Lift Down
-0.9284631347608999,-0.943359375,-0.91052246093,7.276265760014208e-05,0.35339599609089994,0.33190917968,0.36938476562,0.0001100060855615591,0.22860351562120002,0.212890625,0.24865722656,8.25873769779918e-05,1.0195034951339998,1.00733441094,1.03454660421,6.809695838138507e-05,949.5620150103886,949.55584010262,949.57167707485,1.4506844087162614e-05,-3.688900507860133e-05,Lift Down
-0.8051159667931,-0.94494628906,-0.42431640625,0.03459461845972941,0.5010498046837999,0.33020019531,0.90148925781,0.03938362574346288,0.2523132324179,0.17687988281,0.48303222656,0.007444224085124322,1.0199017609802004,0.88101889271,1.16401048838,0.0033669046141445776,949.592114525321,949.54957087783,949.79693173124,0.004395800072187734,0.0017625934016264905,Lift Down
-0.46089721679319995,-0.4892578125,-0.42431640625,0.00022553315516865035,0.7763952636688998,0.70715332031,0.90148925781,0.002379564280168187,0.4058349609327,0.17687988281,0.48791503906,0.005134640919977912,0.9936546398782998,0.96660131923,1.04040924075,0.0002329929621548272,949.6084253996441,949.50085822728,949.79693173124,0.006658371470995416,-0.0021320851103218902,Lift Down
-0.4878039550756999,-0.5078125,-0.47570800781,4.456262847362544e-05,0.7019982910120999,0.68603515625,0.73950195312,9.402598245677875e-05,0.5022180175745,0.48107910156,0.51940917968,8.154067576715352e-05,0.9915074627218,0.97657814776,1.01307840927,0.00010920778907203518,949.6288489208432,949.53980309277,949.71906911883,0.0028121708767851836,0.0017666133575061987,Lift Down
-0.5361010742147999,-0.58068847656,-0.50268554687,0.000432805166097316,0.7675817871057998,0.70837402343,0.91186523437,0.002292532648381361,0.48846923827869987,0.17797851562,0.54553222656,0.008211399395078598,1.0608743769154996,1.01184894946,1.10215438335,0.000566954200178716,949.7822742420221,949.66758189882,949.88950422406,0.004217017927491315,0.00010473241804436376,Lift Down
-0.47572875976189993,-0.62756347656,-0.41967773437,0.0038529655714626813,0.7200964355432998,0.64099121093,0.92700195312,0.003453629924403786,-0.5259045410123,-0.64343261718,0.17797851562,0.026184797074597886,1.0267728777166,1.01304433577,1.08701352112,0.00032954730724454905,949.9240041876093,949.78850554434,949.95725758683,0.0019641640492179826,0.0012373207533889295,Lift Down
-0.4433605957,-0.44946289062,-0.43859863281,8.200905234425091e-06,0.7393847656216999,0.72644042968,0.74877929687,1.9071053969722128e-05,-0.5523510742148998,-0.56677246093,-0.52429199218,8.093378159653136e-05,1.0239183642162,1.00770741291,1.03935949483,4.895529752691571e-05,949.960642188513,949.95577573986,949.96348591097,4.9206338792606224e-06,-1.758607151004079e-05,Lift Down
-0.48768554687230004,-0.6787109375,-0.42468261718,0.004432670781128688,0.7318737792937999,0.57275390625,0.78173828125,0.0023973134114567097,-0.5082507324179,-0.54284667968,-0.45458984375,0.0007365526860901722,1.0193847104529998,0.99097334546,1.04036156753,0.00014233540702995694,949.9665961459109,949.96063269496,949.97455673652,2.6814501326839462e-05,0.0001102110385244526,Lift Down
-0.1034143066412,-0.73474121093,0.2353515625,0.1323550978832841,0.6223986816364999,0.49279785156,0.79162597656,0.005266697025996567,-0.7112353515590999,-0.85546875,-0.45458984375,0.008227358658970107,1.0221927368748995,0.9313200153,1.14207394553,0.003477811862353489,949.9550230304015,949.93701722075,949.96609720545,9.038556041029969e-05,-0.00017001755162979128,Lift Down
0.5019030761671,0.18713378906,0.67407226562,0.022559822838339755,0.2486315917958,-0.31188964843,0.64672851562,0.10138331919240427,-0.7674096679650999,-0.86169433593,-0.60864257812,0.003736265012752994,1.0131739619109,0.93671525854,1.12978309184,0.0025485865399152412,949.9468561437224,949.91286365782,949.9748607573,0.0002684727199669141,0.00024862007526322503,Null
0.8836987304652999,-0.05224609375,1.08666992187,0.04721253767727436,-0.0865393066374,-0.2939453125,0.01586914062,0.0043937384043161035,-0.28978149413709997,-0.60864257812,-0.10974121093,0.0166526240818784,0.9528388848115005,0.22626877522,1.13590285918,0.032384023147339805,949.8587390119011,949.82017953019,949.91461136883,0.0006947147520387243,0.0006161798370573287,Null
-1.0742077636694,-2.02844238281,-0.05224609375,0.09826487155113053,0.0247155761729,-0.15808105468,0.26220703125,0.014235395810970566,0.37951904296539996,-0.21984863281,0.61694335937,0.02775242833722699,1.1630366706450002,0.22626877522,2.07069117843,0.08561995422243679,949.9243560629908,949.87172832321,949.98288839243,0.000675643428609971,0.0007305656577999198,Null
-0.7246337890577998,-0.84680175781,-0.59875488281,0.0023479401462631047,-0.2230285644498,-0.30981445312,-0.13513183593,0.002865282686934577,0.6577905273401999,0.53234863281,0.7080078125,0.0007194210725079748,1.0065461448981,0.95625748787,1.0291541433,0.00026507305538096197,949.9320185200123,949.83041772406,950.14104728881,0.00875014461502912,-0.0015325594642502265,Null
-0.7748840332001001,-0.86865234375,-0.73559570312,0.0015778130277812226,-0.11060058593580002,-0.18371582031,0.11889648437,0.0056524583543939065,0.6378222656208998,0.51220703125,0.73913574218,0.003626466977492111,1.0146725233973002,0.96718043415,1.10331123282,0.0006897356357378018,949.9213340724617,949.91620792646,949.93496311648,1.920752698007133e-05,7.052912324320652e-05,Null
-0.7364892578094,-0.85595703125,-0.6357421875,0.003593661231272956,0.03204833984409999,-0.19775390625,0.22326660156,0.02220752426383916,0.6976818847617998,0.5927734375,0.81408691406,0.004671166971172058,1.0291726179572,0.97575383846,1.10331123282,0.0011867542124478856,949.9295624563525,949.91544985947,949.9386054475,3.4946637157012305e-05,-5.76538442448395e-05,Null
-0.7652600097611,-1.01306152343,-0.64306640625,0.009419390798416277,-0.03273193359189999,-0.23901367187,0.20739746093,0.010431334532163664,0.6689013671836999,0.52819824218,0.80590820312,0.005278548062399701,1.0273767454190996,0.92491440892,1.17570269122,0.0035336410813351106,949.9301545642194,949.9128619702,949.94299007692,8.24399171805718e-05,4.549748969369584e-05,Null
-0.9421374511681,-1.10949707031,-0.73876953125,0.011207483180629297,0.19731445312140003,-0.04321289062,0.40478515625,0.014689440678922637,0.3662341308551999,0.16369628906,0.60424804687,0.01198651564673899,1.0415521120656002,0.8336417591,1.21318386053,0.013492133206981354,949.9344960166868,949.91519202349,949.95170730979,0.0001118397442078756,0.00030968472032731414,Null
-0.9436767578082,-1.2314453125,-0.77648925781,0.01606886525346542,0.2203674316362,0.03820800781,0.42895507812,0.014014078624080951,0.3214538574182,0.19055175781,0.51794433593,0.008566848670157754,1.0312995058488001,0.81904520507,1.34517088885,0.020369162609662553,949.9486953983245,949.93666596411,949.9775134615,0.00011794931509802763,0.00024262298099909037,Null
-0.8350415039018999,-1.1396484375,-0.43640136718,0.03641642681909191,0.22281005859109995,-0.22863769531,0.52722167968,0.06977283912900274,-0.28772338867020003,-0.84448242187,0.15893554687,0.0910728057371651,1.0019343600096,0.64412277456,1.19727939019,0.01817675610914672,950.0578811868718,949.76278633784,950.57141021695,0.02314272362194826,0.0003079139628316508,Stairs Down
-0.1744030761689,-1.00134277343,0.33203125,0.15781705857734502,0.05455932617139998,-0.38647460937,0.92358398437,0.13063813591499776,-0.7796972656206997,-1.28552246093,-0.20959472656,0.06351143786373127,0.9685842072595001,0.39914194178,1.36630838195,0.052133917725961945,950.0205084919438,949.84976657619,950.15417786788,0.009433073384730052,-7.6135054527331e-05,Stairs Down
-0.8315039062457998,-1.14233398437,-0.51684570312,0.020429421819938964,-0.29052612304290004,-0.669921875,-0.00280761718,0.025224215603838637,-0.5233471679657998,-0.71484375,-0.31335449218,0.014832351731598904,1.0447895750897,0.82708550836,1.36085020786,0.01817404599945215,950.1532322542553,950.03897951567,950.29512865295,0.005524997500326137,-0.0003674522764379793,Stairs Down
-0.8569580078083999,-1.37048339843,-0.58032226562,0.037318895561697596,-0.1634948730443,-0.60668945312,0.22351074218,0.05653827851773619,-0.4581689453086999,-0.77758789062,-0.30358886718,0.012285597661538276,1.0164907383509003,0.75790928684,1.5603941937,0.043287177754398776,950.1907044388945,950.03897951567,950.47273818291,0.015482569834939645,5.4649604455466655e-05,Stairs Down
-0.9328784179659,-1.34814453125,-0.51440429687,0.04151010845066965,-0.09570800781160002,-0.71044921875,0.24963378906,0.06894924060168046,-0.37973510741789995,-0.53051757812,-0.21826171875,0.0071210287118792445,1.0486991810099,0.62770502512,1.39341957062,0.040662140410186724,950.2348414788977,949.98997388847,950.58654031666,0.019694179848682027,-0.0001120474563653474,Stairs Down
-0.9025219726516,-1.10327148437,-0.71423339843,0.011836995807843788,-0.18187988281080003,-0.45556640625,0.11535644531,0.03110985801607242,-0.38177001952749995,-0.53747558593,-0.18481445312,0.00805447963145407,1.0165702669398002,0.82410905659,1.23055428101,0.010556326462315533,950.3570699982946,950.24631474892,950.54938940637,0.0057051786342656695,0.0015500755955426648,Stairs Down
-0.9566381835902001,-1.44580078125,-0.67858886718,0.036708808782527476,0.3013305664034,-0.00561523437,0.62097167968,0.02846451103676895,-0.1288793945286,-0.43811035156,0.08752441406,0.018369264548240328,1.0296790121091,0.75834741099,1.56797872368,0.03919285777628995,950.3432733674927,950.14174084375,950.56363000856,0.012292862352045603,0.001426474217399646,Stairs Down
-0.8126513671843999,-1.19555664062,-0.53552246093,0.034129907723936426,0.17014160155959998,-0.12878417968,0.41381835937,0.016179712131233384,-0.5293359374963998,-0.84057617187,-0.10534667968,0.029188327981919088,1.0151294578931997,0.85587929755,1.29881229821,0.017941511082261524,950.4414778455689,950.34280142432,950.52862397896,0.0027838960648632204,-0.00106809080748784,Stairs Down
-0.9969238281212001,-1.39453125,-0.64453125,0.04754377856410877,0.29636718749560004,0.08959960937,0.51391601562,0.017290493069042446,0.0651513671872,-0.10119628906,0.32824707031,0.014607729959716065,1.0584730216256002,0.72880880679,1.42699501943,0.0446644177919351,950.4779091728345,950.38259349668,950.51758072396,0.0009642714416477501,0.0008944750871219047,Stairs Down
-1.0136376953092,-1.20178222656,-0.84680175781,0.008574068570317329,0.13981933593600002,-0.07946777343,0.34375,0.01712552585896166,0.25626464843319996,-0.009765625,0.53820800781,0.015488822917690772,1.0687207978516,0.87856013794,1.25656021164,0.01140887222449088,950.5103535732496,950.4945360161,950.56656141487,0.0003022338277485978,0.0002718728665582049,Stairs Down
-1.1295019531216,-1.3251953125,-0.90710449218,0.012741625092349594,0.06681640624959999,-0.2763671875,0.33422851562,0.02752553438790693,0.27077148437040005,-0.0263671875,0.54162597656,0.021413936374186215,1.1843904153884,0.93318559191,1.36694789421,0.011959514980625658,950.5111889295929,950.49128731796,950.56985408901,0.0005571255959512323,0.00021745916659047547,Stairs Down
-1.0020080566371998,-1.19274902343,-0.81323242187,0.014899192547288852,0.14106201171509997,0.00122070312,0.28942871093,0.007479764951699812,0.19783203124630003,0.05310058593,0.33312988281,0.005051869792240995,1.0362751011535,0.84037342667,1.2513611416,0.016511700048454685,950.5215343940718,950.49800018113,950.5477043166,0.00031454764188850256,-0.00014613322637396884,Stairs Down
-1.025119628903,-1.25183105468,-0.74645996093,0.020985415662108417,0.15528442382500005,-0.046875,0.38818359375,0.014559181981060921,0.2274047851528,0.10595703125,0.33215332031,0.003909443514611328,1.0691320624571,0.78867454244,1.32031147296,0.022941995886315632,950.5281488911959,950.49968516946,950.55202542044,0.00023857574901248069,0.00011843309133449114,Stairs Down
-1.0175976562464,-1.40283203125,-0.68872070312,0.03779729650484064,0.11154296874840003,-0.08850097656,0.34521484375,0.013053478953643715,0.25198730468360003,0.1513671875,0.34924316406,0.0030067551256463786,1.0621730220060002,0.72948843918,1.4595989327,0.036921062826709955,950.5278807104842,950.50371727307,950.61025037982,0.0006588983036750727,5.96382351712042e-05,Stairs Down
-1.0212255859336,-1.61376953125,-0.56640625,0.06501331632771884,0.1000195312476,-0.13903808593,0.27673339843,0.012917725581397168,0.28361816405879997,0.1318359375,0.44445800781,0.006483216478423928,1.0739463553276003,0.64005097979,1.68516483596,0.06419617036692293,950.5559246491373,950.49992123952,950.72103294537,0.001970985080427918,0.000658944763329347,Stairs Down
-0.8402880859340001,-1.20788574218,-0.57397460937,0.022054722670337645,0.13983886718480001,-0.11267089843,0.37487792968,0.018147980419511277,0.5489208984331999,0.21447753906,0.78857421875,0.023304744537346874,1.0307646613748,0.77521309153,1.42418882199,0.027625974635372526,950.637438775388,950.53271963709,950.81749138831,0.0063397780596699625,-0.0007785674796608969,Stairs Down
-0.8994726562464002,-1.24951171875,-0.55529785156,0.02697766082477158,0.12418457031159999,-0.15783691406,0.50402832031,0.03599624648136649,0.46492675780879994,0.2158203125,0.76623535156,0.027158907832515906,1.0425624499475998,0.67640993058,1.46773143208,0.043358365567962354,950.6851406776726,950.64716761002,950.7431695851,0.0005863185455311548,0.0006925907045302949,Stairs Down
-0.9640722656207998,-1.15148925781,-0.77099609375,0.01079648398385963,0.06762207030999999,-0.111328125,0.26135253906,0.010128837016754237,0.4059960937455999,0.13659667968,0.61877441406,0.019126766763735755,1.0614614804484,0.87719806402,1.25728621638,0.011911109375330593,950.8212916953852,950.73249207297,950.98262824347,0.005961275370681815,0.0021306506469560473,Stairs Down
-0.9064257812459999,-1.30078125,-0.69250488281,0.022424368039553572,0.04011230468679999,-0.24633789062,0.28039550781,0.01306486852181239,0.4563427734339999,0.22143554687,0.61938476562,0.0121354633869177,1.0260813837492,0.73231543212,1.44089341797,0.026031179428017644,950.8768371174962,950.81683506679,950.97436334745,0.002310484721752954,0.0015156175717388784,Stairs Down
-0.9179833984332,-1.22534179687,-0.68579101562,0.01576373591562954,0.1171923828108,-0.08752441406,0.2998046875,0.009292194915489826,0.48270996093359997,0.26586914062,0.88916015625,0.02554146073090271,1.052006936966,0.73643521205,1.5213248692,0.033140710097753996,950.9859746570378,950.96219726945,951.01637998893,0.00019952710108803677,7.59612066602594e-05,Stairs Down
-0.9226562499968,-1.34741210937,-0.62341308593,0.032470179326759475,0.16274902343480002,-0.25366210937,0.55358886718,0.03361144123568652,0.4569824218716,0.27551269531,0.74951171875,0.01902703203328405,1.0630778772240002,0.71420454411,1.55100737203,0.04114921940850368,951.043683845135,950.98625528885,951.09998082897,0.000898192454565346,0.0009386221232051115,Stairs Down
-0.9505761718711997,-1.4111328125,-0.7060546875,0.022634830523054913,0.11379394531039999,-0.08227539062,0.34436035156,0.016475545034599047,0.4037499999959999,0.15734863281,0.81420898437,0.024826414801999066,1.0538090506416,0.7482197614,1.64757220893,0.03266877803785098,951.123584350085,951.08856649226,951.15116183301,0.0003511021764230253,0.0003215286528086486,Null
-0.9612060546843998,-1.08410644531,-0.86682128906,0.004422046921366602,0.1604150390596,-0.11401367187,0.33911132812,0.01271849006056385,0.32694335937119995,0.06713867187,0.56005859375,0.012829933166580355,1.0389426346275998,0.90942921886,1.20004609858,0.00687978985501632,951.1378235130618,951.09872454724,951.21125737457,0.0008484701288221233,-0.00012754565162972076,Null
-0.9218408203092001,-0.9912109375,-0.78784179687,0.003765859411292905,0.0380371093748,-0.44287109375,0.26953125,0.03886394910044305,0.5081640624967999,0.28967285156,0.81750488281,0.019726135899308148,1.0813363676099998,1.01393598081,1.19158995415,0.0019313930715227593,951.1232926774163,951.0042040827,951.33957742616,0.007802550099751652,-0.0008549109708861081,Null
-0.9665624999963999,-1.03857421875,-0.90124511718,0.0015042814582770304,0.05955566406079999,-0.09729003906,0.26196289062,0.00976900057294828,0.3376708984336,0.17919921875,0.44348144531,0.006227919549524218,1.0330577852448,0.96230923818,1.1061031085,0.0019488697778253783,951.139216868039,951.06608393124,951.18130141916,0.0007371907626747386,0.0008161030129813639,Null
-0.9613427734336,-1.02258300781,-0.9140625,0.0007430564514058425,0.0132470703108,-0.21215820312,0.13793945312,0.0061648062019212845,0.31450683593359996,0.173828125,0.42712402343,0.005267662327706438,1.0174084522871998,0.99040177113,1.06210708365,0.00020583202128065614,951.2132211356403,951.15319961225,951.35164232683,0.002896348154538749,0.0011728476096406297,Null
-0.9169580078083999,-0.96069335937,-0.8046875,0.0014853688441734119,0.0038037109368,-0.04736328125,0.05615234375,0.001008218803617896,0.4381933593719998,0.3642578125,0.66748046875,0.008100583962725583,1.0211650152256002,0.97892263936,1.08095029001,0.0005556748214459866,951.1832512920714,951.11520079429,951.30095368633,0.0037708784552486366,-0.0004147190007189543,Null
-1.1846289062464,-2.30834960937,-0.25207519531,0.26515354185417916,0.0022900390652,-0.36767578125,0.74304199218,0.08161943883441238,0.4138037109343999,-0.20104980468,0.90686035156,0.07846548981052151,1.3116472075868,0.40748957275,2.4800993787,0.27793140363943014,951.14263772551,951.1064666295,951.19364871526,0.00048674862045654867,-0.00034347932924812014,Null
-1.2943017578088,-2.42749023437,-0.64306640625,0.25306658903743606,0.08422363281239999,-0.61022949218,0.81994628906,0.1171271361222079,0.5035253906207999,0.17492675781,1.01708984375,0.043237248237608654,1.4367997323111996,0.84703386548,2.60954985632,0.28358754796865415,951.1503836841101,951.10145283833,951.1938494609,0.0008994214256482205,0.000406811725846043,Null
-1.0107763671835999,-1.32446289062,-0.76123046875,0.021433108406679318,0.09350585937120001,0.00695800781,0.31872558593,0.005818586156814187,0.27011230468360004,0.05847167968,0.52819824218,0.014885731754744108,1.0591528775951997,0.80058549488,1.39832836662,0.02351929421242904,951.1751520960217,951.14653234621,951.23225510717,0.0003806019915847495,-0.00014168228035257957,Null
-0.9895312499971999,-1.34033203125,-0.662109375,0.04692624829054242,0.19184570312080004,-0.02795410156,0.36181640625,0.010790174657578993,0.2962646484340001,0.11340332031,0.4697265625,0.006073012496489111,1.057949323866,0.71155439587,1.4320116434,0.048125636018963476,951.1115672239507,951.05853713275,951.18065292422,0.0012216807383457454,-0.0007149212424798825,Stairs Up
-0.8932080078083999,-1.38439941406,-0.49291992187,0.057034879838727744,0.35051269530959994,-0.10229492187,0.63305664062,0.03331882664566915,0.285952148434,0.08020019531,0.57751464843,0.01769810628397814,1.0272030645192,0.63667888165,1.57191088447,0.05482170188225491,951.0398102392489,950.98881448025,951.07209133314,0.0005432962795705225,-0.0006937988232331213,Stairs Up
-1.0508837890584,-1.57397460937,-0.4775390625,0.08271059445636288,0.17348632812320003,-0.12390136718,0.49743652343,0.03422552648192032,0.28591796874720005,-0.04174804687,0.70239257812,0.032262395462930714,1.1252997666967999,0.55547301321,1.61592058875,0.0985962578955758,950.9650218719559,950.91216952891,951.01986926856,0.0008458898892032566,-0.0008688327322661897,Stairs Up
-1.0270312499948,-1.56872558593,-0.57946777343,0.07189597394717591,0.17231933593279997,0.01599121093,0.49194335937,0.015211916788733404,0.2576025390592001,0.07165527343,0.62719726562,0.014084688966941171,1.0833238337567999,0.64275901358,1.62826928599,0.07821852046117546,950.8828793907714,950.81090918818,950.94223653082,0.00105459278390948,-0.0009454451190122338,Stairs Up
-0.9708447265588,-1.26403808593,-0.66125488281,0.04141822448892859,0.1491894531216,0.04223632812,0.36877441406,0.005939854130648119,0.29276367186999996,0.07824707031,0.48132324218,0.01171928911498222,1.0326888702451997,0.73129471576,1.34630181071,0.04297761101714896,950.7825465119005,950.73015032741,950.84576375517,0.001385376419304752,-0.0006934698431864321,Stairs Up
-0.9873291015592,-1.30114746093,-0.67663574218,0.033649444579747716,0.15317382812119998,0.04577636718,0.34790039062,0.006874556493273715,0.24115234374560005,0.05847167968,0.39831542968,0.00782518449455517,1.0333565749592,0.71012550136,1.34353943217,0.03684374949535225,950.7050584943115,950.63695570811,950.82071262197,0.0014055768420556934,-0.0008613415769504948,Stairs Up
-0.9788378906207998,-1.26257324218,-0.67041015625,0.036585923252186466,0.1414306640592,-0.00708007812,0.27270507812,0.004115863279792821,0.2756005859336001,0.15808105468,0.42858886718,0.004711309490936565,1.0306175659463996,0.72680711217,1.31231363994,0.03724073701514482,950.621721368515,950.55945288728,950.67194765135,0.0007791273383162147,-0.0005180972698870802,Stairs Up
-0.9767089843712,-1.21875,-0.7529296875,0.01384007087875926,0.19257324218480001,0.01672363281,0.38342285156,0.010294928791580237,0.28741699218280004,0.17810058593,0.44653320312,0.007408979107661367,1.0431595535868001,0.78254494158,1.29459959366,0.016868793840115304,950.5939519340996,950.5367905053,950.66713767172,0.0015283563895074034,-1.2722958054014468e-05,Stairs Up
-0.8784521484332001,-1.09741210937,-0.67980957031,0.014740857837013443,0.16870117187199996,-0.05505371093,0.37145996093,0.010376448582782314,0.5114306640584,0.18481445312,0.95068359375,0.049945248353886175,1.0604904289632,0.87300375164,1.26062647069,0.011486430225464386,950.6268329802994,950.45362795563,950.79638927188,0.009266891478538835,-0.0007909397075723261,Stairs Up
-0.11836425780960001,-0.60388183593,0.15551757812,0.029164196119509732,-0.5835107421835999,-0.75610351562,-0.30139160156,0.012231412945369115,0.7649365234336,0.41650390625,0.98754882812,0.01918313223909269,0.9960315323551999,0.82372063685,1.18023353217,0.0075928374749723755,950.5973042310159,950.3634293115,951.0437977728,0.03086068877628065,-0.0006904932849694526,Stairs Up
-0.9064794921831999,-1.28234863281,-0.12426757812,0.10943500480311802,0.11646484374800004,-0.44873046875,0.47692871093,0.05147646764215298,0.5445898437464,0.00549316406,1.00634765625,0.07446633387096824,1.1499998361508,0.81345981063,1.61106247995,0.04279962888817542,950.5673381048152,950.48437203912,950.68612093722,0.0027623212778677022,-0.00013229458317423422,Stairs Up
-1.0197119140584,-1.38122558593,-0.68286132812,0.045703867614017846,0.12711914062159999,-0.00524902343,0.33410644531,0.008649626018963049,0.2761865234332001,0.12060546875,0.41223144531,0.006000854896849781,1.0707386747400003,0.7169483243,1.43972524713,0.04597995431396843,950.5873641107828,950.53060905724,950.68464242019,0.0016405504993449009,-0.0001236371799434576,Stairs Up
-0.9762402343707999,-1.26391601562,-0.67126464843,0.03442310068369437,0.17793457030760002,0.03991699218,0.39624023437,0.009385532658529101,0.2931054687464,0.13928222656,0.41528320312,0.006274881170263236,1.0409600887563997,0.69737122107,1.33289953218,0.03697100536386689,950.5325965677874,950.47495612464,950.61267701378,0.0014332953431442593,-0.0008374747607307588,Stairs Up
-0.9717578124956,-1.36462402343,-0.73364257812,0.03655781033044247,0.18621093749679993,-0.02722167968,0.36389160156,0.009526235984638622,0.30994140624680006,0.04992675781,0.53466796875,0.012648524033899697,1.050820972264,0.78199939072,1.41141131863,0.029264609690441673,950.4738129661903,950.43355094828,950.5230784105,0.0004450509577489224,-0.00042126513406545393,Stairs Up
-0.9835742187468,-1.2236328125,-0.68200683593,0.021879983767131225,0.14634765624760004,0.046875,0.26342773437,0.003371156008519624,0.3023193359344,0.1748046875,0.40380859375,0.004701713118899632,1.0425736543616,0.71502485222,1.27962083864,0.02315794014882072,950.409863615551,950.3817052024,950.45335061372,0.0004799476258808244,-0.0006223068099896509,Stairs Up
-0.9736035156219998,-1.3701171875,-0.63647460937,0.03688426364564677,0.16332519530920003,-0.08020019531,0.50244140625,0.02152939936084401,0.265791015622,0.13195800781,0.45141601562,0.007249134815058565,1.034031369432,0.68319578303,1.43004524987,0.04142331910251506,950.3411154999858,950.28900231744,950.42081559596,0.0008382269121681806,-0.0006882829125388665,Stairs Up
-1.0064062499956,-1.23962402343,-0.77868652343,0.019745988219655248,0.12513671874719998,-0.03833007812,0.26538085937,0.004915426860994475,0.2614257812464001,0.14636230468,0.40026855468,0.00388701756786709,1.0502129434127996,0.79670558325,1.29185748677,0.022395857900474218,950.2766271942833,950.2247426995,950.31803896802,0.0005344260840785067,-0.0006731867311758792,Stairs Up
-0.9701464843712,-1.25451660156,-0.72021484375,0.0264033345021101,0.14756835937119997,0.046875,0.3203125,0.005652148699480681,0.3044482421844,0.1435546875,0.48693847656,0.005851275367020432,1.0323208808596,0.74220607132,1.35030391835,0.027768327192540902,950.2028524140097,950.16369597516,950.2509873804,0.0005815742553909208,-0.0006255546558597794,Stairs Up
-0.9583935546836,-1.15734863281,-0.68518066406,0.01874525821580399,0.153554687496,0.01110839843,0.34509277343,0.008061502822847537,0.29165039062080006,0.14453125,0.42895507812,0.006811091394119524,1.0202061765372,0.74710695264,1.24046368018,0.01981639325822948,950.1393638986046,950.09545390077,950.21960704993,0.0006041078282539848,-0.0006141301197273054,Stairs Up
-0.9820556640588001,-1.322265625,-0.70043945312,0.03740856502982123,0.07677246093599999,-0.13366699218,0.26403808593,0.008701101601093348,0.266499023434,0.12353515625,0.4248046875,0.006322261877751305,1.0266933498508002,0.71836065029,1.38905014916,0.03955297187326232,950.0697493848711,950.01166359203,950.11089517623,0.0008698289034096334,-0.0007664597226008025,Stairs Up
-1.0151599121059,-1.25305175781,-0.7294921875,0.013536329129275205,0.1450524902318,-0.1357421875,0.33972167968,0.018828707166766954,0.25576293944850004,0.06774902343,0.54333496093,0.011787849030852426,1.0702792962929,0.76274830613,1.31136686934,0.01537185622771524,950.0171917462658,949.97692912795,950.06133521302,0.0009735224036838715,-0.0004177490036872732,Stairs Up
-1.0614160156204,-1.49499511718,-0.85095214843,0.02194735055008462,0.1347167968736,-0.138671875,0.34338378906,0.021243686626987238,0.28883300780840004,0.00146484375,0.60571289062,0.0348605872643418,1.1315554587428003,0.88707645276,1.55210260938,0.025283264611589532,950.0066128080352,949.97251851939,950.05480677337,0.0005144815411369725,-0.0001311221348760403,Stairs Up
-1.0383300781215998,-1.279296875,-0.85913085937,0.01627826329439145,0.16648925781039994,-0.02465820312,0.34619140625,0.015301908290647774,0.2417675781224,-0.00170898437,0.44580078125,0.016892795707180976,1.0958438884136001,0.93601338615,1.27953563529,0.01152928865734902,950.0133405686075,949.97835429982,950.09292633598,0.0008245726539647928,-4.613750330059328e-05,Stairs Up
-1.1040917968708,-1.58374023437,-0.94714355468,0.02055760407694315,0.1766406249976,-0.10131835937,0.5029296875,0.0263472187151546,0.33476074218519986,-0.09606933593,0.69189453125,0.04277692043382216,1.1969654066351998,0.99501698956,1.61833176235,0.018529395896112376,950.0018814354061,949.95362133806,950.06949301436,0.0014028872583481732,4.088831183615349e-05,Stairs Up
-1.0505078124968,-1.322265625,-0.83349609375,0.014079371221381769,0.13794433593480002,-0.05383300781,0.3916015625,0.014555117674306688,0.3231298828092,-0.09521484375,0.53112792968,0.028467196309812672,1.1267547159816003,0.89499289248,1.35721329108,0.014103740870018118,950.0197483230979,949.9793511233,950.13111465894,0.0015976891234058134,0.0004034457146692377,Stairs Up
-1.0204687499956,-1.32006835937,-0.67687988281,0.03625728713130198,0.18064453124720006,-0.00952148437,0.47973632812,0.01590071625151605,0.34708984374559987,0.14233398437,0.47937011718,0.009517993445421449,1.1052472564364,0.77142269032,1.37696025657,0.034290924264811756,950.0568997325594,950.01197501579,950.12925737135,0.0013851881020550255,0.00033854734160862824,Stairs Up
-0.9590478515591999,-1.16955566406,-0.76831054687,0.013322379998609317,0.23950195312119996,-0.00573730468,0.541015625,0.017309287581699567,0.315913085934,0.09057617187,0.70166015625,0.020090546848874916,1.0522736501212,0.82993283066,1.38087600417,0.020070911655401327,950.023833486076,949.97952744845,950.07371448066,0.0006148116911631106,-0.0005467276876607025,Stairs Up
-0.9660498046835998,-1.22229003906,-0.79321289062,0.015286355692754975,0.18715332030919998,-0.2236328125,0.40808105468,0.022529761814816238,0.3711376953087999,-0.02905273437,0.67004394531,0.029856912872575844,1.0790214026516,0.93291761742,1.3189856391,0.008819082838716687,950.029548655563,949.98190527199,950.11063950438,0.0014950938032022324,0.0009189044711190236,Stairs Up
-0.9479296874959999,-1.29296875,-0.6552734375,0.03839507738762714,0.1840332031224,-0.06555175781,0.47619628906,0.02702282655002604,0.3788330078083999,-0.17053222656,0.62927246093,0.03677785516924835,1.0659846414315999,0.71020329469,1.43710381293,0.04121606651018777,950.0249085194897,949.7887167145,950.38586024478,0.021787657608354924,-0.004530108475696527,Stairs Up
-0.872812499996,-1.18054199218,-0.59228515625,0.029986818535013764,0.06889648437359999,-0.19897460937,0.47644042968,0.023346904551319315,0.5480224609332,0.23461914062,0.84057617187,0.033649803411789296,1.0599185151551997,0.74540494909,1.36084630969,0.029862056428375455,949.9028839556942,949.52583177045,950.35358593893,0.07374128109758676,-0.003572713212999481,Stairs Up
-0.8917565917926998,-1.19360351562,-0.60815429687,0.033875756147867496,0.14152221679289997,-0.02709960937,0.35693359375,0.006593632991464679,0.4351879882784999,0.24133300781,0.61376953125,0.011085856388318637,1.0108209238438,0.71711292627,1.3398797667,0.03427039897425283,949.8282708468635,949.78546221436,949.88004768352,0.000439387730391013,0.0002134517597680253,Stairs Up
-0.3821826171856001,-1.13513183593,0.72839355468,0.37248603825169413,0.5237890624967999,0.14111328125,1.36987304687,0.10323583636625072,0.20382324218559997,-0.57067871093,0.64880371093,0.13742765575659427,0.9985870205924001,0.4157459119,1.58826079048,0.07252974374107066,949.7776811202764,949.66304437713,949.94056003496,0.0027053132274043423,-0.0008116562657555284,Stairs Up
-0.8133251953092,-1.21240234375,0.02868652343,0.09887657777161318,0.3771728515595999,-0.037109375,1.20361328125,0.13721791421486576,0.4069433593712,0.19519042968,0.64770507812,0.01959093378049659,1.0902680176223998,0.74517080131,1.41657794179,0.03414581037749562,949.704691808993,949.65139115742,949.74344212268,0.00045626588918490097,0.000504309350648043,Stairs Up
-0.9334667968719998,-1.20568847656,-0.60217285156,0.0179941828562516,0.2350195312476,-0.04528808593,0.58251953125,0.03575248853103206,0.36273925780839994,0.11987304687,0.58850097656,0.013770429871482793,1.052495221004,0.69456198187,1.32696739123,0.01744439403429893,949.7661627925112,949.59108029331,949.97098617558,0.010641538143870635,-0.0008914837000839198,Stairs Up
-0.8568408203092,-1.11059570312,-0.62365722656,0.020646108858662988,0.18101562499720003,-0.09118652343,0.65844726562,0.0439987523619261,0.4762255859335998,0.27258300781,0.703125,0.012543982062623605,1.0159702236224,0.68333401786,1.35156958363,0.03833850111460958,949.6374937172493,949.57175991099,949.74651348424,0.0025901189147662295,-6.873109898532805e-05,Stairs Up
-1.0106933593707998,-1.28210449218,-0.76708984375,0.02072762238853677,0.15561035155920003,-0.06530761718,0.39025878906,0.012431730260551244,0.3090771484340001,0.0361328125,0.474609375,0.011946148920573847,1.0799182445576,0.83975393125,1.34003962539,0.019874104544967918,949.6728243785931,949.57289018765,949.77046229337,0.0021106201209984262,0.0012339256878005527,Stairs Up
-1.0530712890584,-1.35778808593,-0.83569335937,0.025025498120450424,0.1550830078096,-0.03637695312,0.34875488281,0.012922610995693916,0.2876513671832,0.08569335937,0.43615722656,0.006765416270640335,1.1128933714779998,0.912652036,1.41647698088,0.021704971764204318,949.7132883945903,949.68030657623,949.74845212802,0.0003446383698208718,6.398061855147582e-05,Stairs Up
-1.0310839843707997,-1.31311035156,-0.82263183593,0.016295422062655333,0.1448876953088,0.00500488281,0.37084960937,0.009533304060253833,0.21835937499719996,-0.01232910156,0.35888671875,0.0122279494698883,1.0750272944392003,0.88684683559,1.33423955551,0.013939261389779153,949.7274360641474,949.67840811586,949.81569518918,0.0014987593876096663,-0.0002616163097299602,Stairs Up
-1.037261962887,-1.21447753906,-0.87280273437,0.012065094641709854,0.12248291015289997,-0.01379394531,0.29858398437,0.008604490630602694,0.261005859371,0.06774902343,0.38940429687,0.009001744732647926,1.0856970160547998,0.93455420054,1.27029701026,0.00968433494784775,949.7270888900355,949.68667689054,949.80601981776,0.0010938304395249451,0.000335356876721187,Stairs Up
-1.0055407714814,-1.22033691406,-0.77075195312,0.01904964022428396,0.15057006835659997,0.03393554687,0.36584472656,0.009002834394336611,0.26069702148039997,-0.00659179687,0.39294433593,0.009133305108475952,1.0570518029918,0.83591722303,1.27277124563,0.016807971278776798,949.7173340405766,949.67484057723,949.79935610453,0.0011794286498970656,-0.00015520027096604035,Stairs Up
-1.0070263671844,-1.16918945312,-0.78210449218,0.014343101665181856,0.1712792968716,-0.01391601562,0.30993652343,0.006286078414415667,0.2296289062476,0.02685546875,0.38757324218,0.00941761493677527,1.0552247559508001,0.83542276738,1.21915767649,0.012540583657445082,949.7316530736865,949.6870293484,949.82044870251,0.0014005451968308997,-8.578217071556938e-05,Stairs Up
-0.9814746093712,-1.4140625,-0.71057128906,0.03203349556578201,0.15754394531,-0.20251464843,0.4990234375,0.0275692145020097,0.35824218749679987,0.17395019531,0.70141601562,0.016737741075287794,1.075051897202,0.80435082883,1.49806502827,0.036657003436425785,949.7363415935226,949.5388436233,949.95772274523,0.014780386909320625,-0.0013099348045392156,Stairs Up
-0.9767822265587998,-1.30322265625,-0.69055175781,0.036610015714893994,0.17452148437280002,-0.0634765625,0.41076660156,0.014671114622755456,0.2579248046836,0.09350585937,0.39477539062,0.005867048851025389,1.0334067569648,0.73033880414,1.35654917594,0.04013499349223212,949.622081629966,949.54098820905,949.67997485568,0.0013196000050935688,0.0008267699700727975,Stairs Up
-0.9894238281204,-1.392578125,-0.63488769531,0.04839714474129365,0.15586914062,0.03454589843,0.33825683593,0.006343973188714364,0.31166503905839993,0.03771972656,0.56896972656,0.014015580283206394,1.0588326234564,0.69187155115,1.40223696097,0.047810509048023045,949.6335734293525,949.60376203315,949.67898570477,0.0004635905429621921,-0.00038235132515877497,Stairs Up
-0.8459472656211999,-1.18286132812,-0.36987304687,0.04470504052727002,0.3157373046840001,-0.00012207031,0.85668945312,0.04286876124565997,0.47212402343399984,0.31311035156,0.97204589843,0.020022428252318092,1.0538167428612,0.72500234677,1.45935400145,0.03455399542998989,949.7025304851818,948.81612725715,950.95782966469,0.23830986170098184,0.0035027908197685777,Stairs Up
-0.7687365722620999,-1.0703125,-0.42211914062,0.025498169388202038,0.6195446777303,0.37768554687,0.80639648437,0.015248605005280762,0.18117187499649998,-0.10974121093,0.86083984375,0.0404540651736528,1.0288856236576,0.78756418647,1.35051850697,0.028051651130232048,949.4198433414163,948.94858206888,949.92208400942,0.053168870885749,0.001793620266333972,Stairs Up
-0.7974560546835999,-1.09130859375,-0.55847167968,0.023834396227741347,0.5972924804638999,0.39782714843,0.88598632812,0.017703680673042104,0.226340332027,0.04772949218,0.50329589843,0.008403357947748593,1.0283516060855,0.689817489,1.42730917385,0.036221623270276546,949.367643450074,948.84938360421,949.97788674178,0.10923151713242651,-0.005898708356907276,Stairs Up
-0.7596813964806999,-0.97424316406,-0.56518554687,0.015247936710856017,0.6200708007775998,0.380859375,0.83190917968,0.019150124890525633,0.18990234374690002,-0.05212402343,0.42492675781,0.011949456364049026,1.0073036796286998,0.70074276557,1.27493876913,0.029181678877872427,949.2783305289408,949.01360565097,949.41275358218,0.010737366712582984,4.9106278428831606e-05,Stairs Up
-0.7879882812462998,-1.07275390625,-0.58532714843,0.01576030194172013,0.6197570800747001,0.43835449218,0.90979003906,0.015234044517728501,0.19389526366810003,-0.02526855468,0.55004882812,0.01715588355727024,1.031080077993,0.74671257279,1.37415283287,0.02743671054536332,949.1146901145017,948.88404788124,949.5767293377,0.04116603961607964,-0.0015721305108560863,Stairs Up
-0.7621508789024999,-0.94763183593,-0.58129882812,0.010656374096864124,0.6132763671833,0.39904785156,0.86108398437,0.016138826933582352,0.14463012695009997,-0.05541992187,0.3212890625,0.011386860107303972,0.9979459334156001,0.74326563377,1.30527938619,0.020003932209812787,949.3875567633065,948.95390977166,950.66629044503,0.3334030860571246,0.01354732606564585,Null
-0.7781982421836,-0.94946289062,-0.6025390625,0.008374269562382962,0.6574365234339998,0.50061035156,0.83190917968,0.00881991184108712,-0.0011914062508,-0.19897460937,0.21264648437,0.007493698572203254,1.024293478582,0.8698191962,1.25218329493,0.013212703882740541,948.9753039075798,948.42416405012,949.37129140784,0.05847323016248404,0.0008501843405086042,Null
-0.7637377929649,-1.00109863281,-0.62646484375,0.00678520865508721,0.6653405761689,0.51086425781,0.85559082031,0.008385613246149445,0.0267846679675,-0.20324707031,0.20922851562,0.012669439020198816,1.0215471908631002,0.86818652129,1.23677911713,0.007921722613008409,949.1001189458531,948.79480450638,949.68713229418,0.03944615142692792,0.0013213457221761143,Null
-0.8039843749956997,-0.96716308593,-0.68371582031,0.0053842739383350305,0.6225012206998,0.49462890625,0.787109375,0.00665677059030789,0.04717285155979999,-0.13647460937,0.27941894531,0.007890930777399737,1.0233860399616999,0.86358711382,1.23537456506,0.00862383000118204,949.0785682750228,948.80029332876,949.3466727151,0.03483950096024902,-0.000904689154392687,Null
-0.8269921874949999,-0.92504882812,-0.76062011718,0.0023862539156141492,0.5952514648396998,0.48107910156,0.71630859375,0.004321949500094955,0.0688818359383,-0.1005859375,0.28637695312,0.016780696155220286,1.0317686607224998,0.97142200216,1.14318951282,0.0017096295215811212,949.1033815748576,948.99058754645,949.23807829688,0.0041849541206758776,0.00014666136875214023,Null
-0.8325634765576,-0.94018554687,-0.77966308593,0.002222275348673099,0.5802758789022,0.47351074218,0.66674804687,0.0033638967347075616,-0.08169677734019996,-0.13427734375,0.1728515625,0.002488833069715357,1.0217774987084005,0.95808883153,1.07779396199,0.0005266664640188568,949.1497553912748,948.95983932588,949.31329174813,0.0089157215015976,-0.0005735468407869666,Null
-0.6606616210901999,-0.95715332031,-0.39868164062,0.037154522514026164,0.7364489746039999,0.48815917968,1.02026367187,0.028315719478733795,-0.0207507324224,-0.38952636718,0.25988769531,0.02046393821095768,1.028008938391,0.7777839641,1.15592630469,0.007610023905129591,949.0135830505704,948.80052953494,949.35589072121,0.02861205985932624,-0.0029734306798517274,Null
-0.5768872070276998,-1.56628417968,-0.29272460937,0.06199819422146094,0.6560058593711,-0.03503417968,1.15161132812,0.08745832214347016,-0.3335974121067,-0.88818359375,0.08471679687,0.08078457341429099,1.0255862395007003,0.55638182128,1.68296057263,0.05105183308778612,949.1258015445658,948.94632580239,949.33080865479,0.013002226308799759,0.0012780536034671267,Null
-1.0352270507773,-1.56628417968,-0.86560058593,0.013969433181150083,0.2488244628856,0.02185058593,0.60986328125,0.010447060115267054,0.12274291991960001,-0.0322265625,0.27941894531,0.009042369745766651,1.0800420003046,0.94480657043,1.68296057263,0.015462663001769088,949.0935897647171,948.9565698504,949.13553156875,0.002163424126532209,0.001094572238450946,Null
