avg_accX,min_accX,max_accX,var_accX,avg_accY,min_accY,max_accY,var_accY,avg_accZ,min_accZ,max_accZ,var_accZ,avg_magnitude,min_magnitude,max_magnitude,var_magnitude,avg_pressure,min_pressure,max_pressure,var_pressure,slope_pressure,Label
-0.6102220939828281,-0.73803710937,-0.49877929687,0.002165272776668568,0.7445253314359596,0.53186035156,0.87841796875,0.005621977108939199,-0.27399359808676765,-0.43115234375,0.02709960937,0.008841423119119857,1.0069359620212122,0.83383521325,1.13344598355,0.00434603931471694,969.8062905897945,969.75588869478,969.95800162819,0.0010319462339492553,1.584821727057261e-05,Null
-0.5661193847617999,-0.63525390625,-0.45739746093,0.0028221527058544258,0.7816699218717998,0.64807128906,0.96875,0.0022969957312789294,-0.2821472167937,-0.37817382812,0.00610351562,0.004388848451282573,1.0087303846913,0.86888440245,1.15129722013,0.003012125684838543,969.8550858157327,969.81215456613,969.99270352186,0.0032473177874275568,0.0011504980760459287,Null
-0.5670239257772998,-0.63562011718,-0.25854492187,0.011933866119243316,0.8341113281207998,0.24609375,1.1005859375,0.016074804922604106,-0.08449340820409999,-0.73571777343,0.08935546875,0.08054478934582403,1.0610725571412,0.81773360733,1.27221954936,0.006050434749665719,969.8109087182991,969.74758722184,969.85268652458,0.0006253545213492768,-0.00012869711053810427,Null
-0.10085205078149999,-0.38623046875,0.09252929687,0.026384472960256238,-0.3798693847620999,-0.53625488281,0.24609375,0.033870704816300244,-0.879871826168,-1.07995605468,-0.73571777343,0.006958485581285964,0.9938853971537001,0.78599087399,1.1460249271,0.00745420218222972,969.7777428227139,969.73426333831,969.81685599505,0.0003723973230236285,-0.00019626079702914689,Null
-0.7046020507776999,-1.10900878906,0.0185546875,0.14746884610296293,0.15714233398250002,-0.5068359375,0.55004882812,0.09435692390113262,-0.47738647460569994,-0.86596679687,-0.17504882812,0.06878011707569986,1.0198162076648998,0.73546240833,1.3163694269,0.016697313151038392,969.7719807115832,969.72120236012,969.81125291,0.0007106193664646732,0.0006655514148492373,Null
-0.9615136718706999,-0.9677734375,-0.95092773437,1.554780537036528e-05,0.27323608398060006,0.25122070312,0.29284667968,0.00010444129807498026,-0.20308593749620002,-0.21801757812,-0.19104003906,4.437200949788018e-05,1.0200749782982,1.01232136634,1.0305606026,2.03565114935748e-05,969.8240665347331,969.81125291,969.83569620468,3.072805433614852e-05,0.00012930544107975518,Null
-0.9637426757775001,-0.99938964843,-0.94543457031,0.00014884844573228933,0.2538623046828,0.22595214843,0.27185058593,0.00021036933166970197,-0.1783911132772,-0.20471191406,-0.12475585937,0.0006737169532935622,1.0129108890229,0.98766548212,1.04032714149,0.00010458629642551085,969.8338990131465,969.82277739828,969.85702056643,7.088057718456585e-05,8.685186515892212e-05,Null
-0.9684716796843,-1.02380371093,-0.93115234375,0.0004003276969294147,0.25014038085609996,0.16333007812,0.30590820312,0.001849676435309402,-0.18266357421569995,-0.29064941406,-0.13342285156,0.00240546247579046,1.0188891633958999,0.98883430928,1.07350208304,0.00035087927981861035,969.8348672975683,969.82325131086,969.84964067564,4.105526295833347e-05,-7.269939452661956e-05,Null
-0.9637353515589999,-0.97619628906,-0.94982910156,3.861167215261009e-05,0.24278808593380002,0.20068359375,0.28662109375,0.00042017532114492186,-0.18614257812199997,-0.26184082031,-0.14990234375,0.0005565151060068557,1.0116017307801999,0.99913890093,1.02426013208,4.851441166371023e-05,969.8381731525238,969.82848562763,969.84625286523,2.286788353848931e-05,-0.000101180713075257,Null
-0.9651062011683997,-0.970703125,-0.95886230468,9.71898136113161e-06,0.2465002441368,0.23852539062,0.25866699218,2.433135503221525e-05,-0.20161376952770002,-0.21313476562,-0.18371582031,3.0218585575885434e-05,1.0163122617035998,1.0093250088,1.02307081569,1.3611008556797752e-05,969.8385592034318,969.83525486081,969.84187788417,4.795617004506129e-06,5.988503917427672e-05,Null
-0.9817163085903999,-1.16223144531,-0.89465332031,0.0036513509113120157,0.27159057616829996,0.06030273437,0.48498535156,0.012219743793425882,-0.0864941406233,-0.24060058593,0.21166992187,0.019973617104548487,1.0383217294365,0.98720834565,1.18534215199,0.002407918029798952,969.8381794860129,969.81705739793,969.86244479243,0.00010330829714859537,4.831034505350568e-06,Null
-0.8711291503876001,-1.19763183593,0.31274414062,0.1533780156031152,0.39974731444929984,0.04602050781,0.74816894531,0.04591914013622323,-0.3439172363245999,-0.88427734375,0.05126953125,0.05695069367624599,1.1236281943927,0.79621401656,1.40602316616,0.02837174666086241,969.8444297496518,969.81200813886,969.91184522959,0.0006600828436735454,-5.703445790915292e-05,Null
-0.1310913085942,-0.76013183593,0.47180175781,0.20005373867149062,0.44774169921589996,-0.01110839843,0.94995117187,0.1298631548575389,-0.6068420410116,-1.00720214843,0.08825683593,0.12056577999537817,0.9906636445771001,0.61222005256,1.53698721258,0.05098809419223985,969.8528486855954,969.77087889781,970.02930245895,0.0051054964799336815,0.001696830819720343,Null
-0.5364257812455999,-0.681640625,-0.37573242187,0.005238569144026091,0.7890307617150001,0.69909667968,0.87585449218,0.0020886408620706975,0.36676391601139996,0.08825683593,0.50244140625,0.007817483747635377,1.0285238203670999,0.96594479706,1.14726853725,0.001989827840277179,969.8105699688978,969.69413935964,969.94733633675,0.006708655964834613,0.0011782960869499647,Null
-0.6001062011685999,-0.73876953125,-0.44177246093,0.0059858188048517134,0.7841223144496,0.66162109375,0.9091796875,0.004749374093210447,0.21604370116830002,0.04174804687,0.3623046875,0.008976780722644108,1.0194195405006001,0.94485948284,1.11110780942,0.001968476610750374,969.8185838826603,969.76714605983,969.88763250099,0.0008220555113569282,-0.0004232214795631393,Null
-0.7081237792934999,-0.869140625,-0.58764648437,0.0063841946123205425,0.6991760253873,0.60693359375,0.81579589843,0.004404552770013596,0.24699462890279997,0.14611816406,0.32238769531,0.0021777089135986936,1.0313759954337,1.00453250365,1.09285394885,0.00039706642427211506,969.8809529689757,969.78546584243,969.93999574559,0.000979685766453549,0.00028848003737111014,Null
-0.6063293456996999,-0.615234375,-0.58764648437,6.435898066275994e-05,0.8033325195273,0.79663085937,0.82080078125,4.2979012842090946e-05,0.18342529296490004,0.13696289062,0.20922851562,0.0005119005779118146,1.0233334436647001,1.01435853049,1.03175501306,2.5211868757789455e-05,969.8411788657994,969.80973164493,969.8707596841,0.00020909394905067232,0.00010657294243254469,Null
-0.6071643066365999,-0.623046875,-0.59655761718,7.061611974665582e-05,0.8011669921837999,0.79052734375,0.81408691406,4.679708770078519e-05,0.18194091796450004,0.16284179687,0.20239257812,0.00014861407303983252,1.0216931275596999,1.01303937873,1.03191115397,2.6325611764665933e-05,969.8466151613221,969.82219329543,969.85764072943,9.61527472147556e-05,-0.00017764983087925707,Null
-0.6642407226517,-0.74987792968,-0.623046875,0.0013284687501499072,0.7648071289024,0.68444824218,0.79650878906,0.0010457181870650951,0.16765624999509998,0.12756347656,0.21716308593,0.0006964406340680992,1.0282208111661,1.01658845099,1.0421184474,5.6752521692308535e-05,969.8524577236641,969.82219329543,969.89223950628,0.00026545796165295966,2.0375831251309685e-05,Null
-0.6398657226527998,-0.68530273437,-0.57861328125,0.000967360981802172,0.778784179683,0.73571777343,0.82116699218,0.0007471412119905104,0.1563378906218,0.01745605468,0.24731445312,0.007743055796350912,1.0245328483274998,1.0078348039,1.03793475969,7.060879453594138e-05,969.8570808042567,969.82297155339,969.88906847465,0.0002788413729687342,0.0003050389255807446,Null
-0.5811364746054999,-0.63732910156,-0.54528808593,0.0005070350552809326,0.8096240234340999,0.75634765625,0.84301757812,0.00040052705341724016,0.21723022460609998,0.16735839843,0.27941894531,0.001326354879057271,1.0210319106278,0.99596725109,1.04267488404,0.00010610830293837458,969.8469538809262,969.79598393135,969.8785378499,0.0006861392503467045,-0.0006543590109705751,Null
-0.6888134765579998,-0.76721191406,-0.60534667968,0.002375757188563274,0.7251770019489,0.66687011718,0.7763671875,0.0008210318181594366,0.22066650390200004,0.17224121093,0.27368164062,0.0010392766709294392,1.0261688566084,1.00906863036,1.07046233471,0.00021270539352671926,969.8759558219631,969.83195736727,969.98621003908,0.0010186107941779498,-0.00032288189216504173,Null
-0.6285839843701999,-0.66198730468,-0.60534667968,0.00022248773862098227,0.7540087890589001,0.73193359375,0.77941894531,0.00012222465843845536,0.2827111816375,0.24255371093,0.3232421875,0.0007689060752554851,1.0220604592971,1.00797064967,1.04180767853,6.827418243949128e-05,969.8632825282175,969.84014951938,969.88572089386,0.00023929256040165867,-0.00032630871830726375,Null
-0.6411706542937,-0.7041015625,-0.56518554687,0.0010048712308556482,0.7604357910127999,0.67956542968,0.90673828125,0.0033799330078028477,0.2693225097614001,0.06005859375,0.37902832031,0.004324839360605246,1.0341460668565,0.9914067493,1.15122935187,0.0010721959715778394,969.8592909200758,969.7863731817,969.88121565521,0.0006300263735475198,-0.0004267768469673216,Null
-0.6695153808552999,-0.78466796875,-0.55102539062,0.004329789182949645,0.7395336914019,0.61706542968,0.86145019531,0.004342677201869038,0.17540039062130003,0.01037597656,0.2734375,0.009106985029443383,1.0213911181178001,0.99876811474,1.06032544488,0.0002909734171313023,969.8534392878144,969.83094441405,969.87781647594,0.00020587867832819962,-6.031440755099753e-05,Null
-0.6664660644501998,-0.68701171875,-0.65112304687,0.0001105246805866132,0.7406359863239999,0.708984375,0.76049804687,0.000218264471098477,0.23306518554230007,0.21166992187,0.25427246093,0.0001574182314866394,1.0234667229528,1.01396931894,1.03507613105,3.562861882361848e-05,969.8494895543604,969.83947253812,969.85960941292,3.0201924848523802e-05,3.713315298515326e-05,Null
-0.6883850097612998,-0.82531738281,-0.52868652343,0.00207365654181256,0.7409301757771999,0.7001953125,0.85180664062,0.001178692537088801,0.11913696288829997,-0.14611816406,0.24584960937,0.01538052927749486,1.0263275479379,0.93663898507,1.1754916205,0.0021650271604937905,969.8749751935845,969.82530663446,969.96598344227,0.0008404232943059625,0.0004981103992607452,Null
-0.6071484374969,-0.78833007812,-0.43359375,0.008851541148229612,0.8162121581994001,0.68200683593,1.0,0.0069743148291880235,0.11400878906150001,-0.06481933593,0.30651855468,0.01090501291528358,1.0330127891453997,0.82902234421,1.20445423886,0.007250155552318682,969.8828162399367,969.82530663446,969.95886081126,0.0011616043545712212,0.0003650273515811484,Null
-0.6496179199184,-0.80407714843,-0.49499511718,0.006362237127954815,0.7680871581997999,0.65295410156,0.93395996093,0.004705081700940463,0.16802368163879997,-0.11218261718,0.32275390625,0.013376399234542998,1.0290038222176001,0.88140027848,1.16601504991,0.005599693741779449,969.8714423033063,969.82036264704,969.90832458881,0.0005986058285790404,0.0005312769142763952,Null
-0.6736523437464002,-0.76391601562,-0.6171875,0.00129272249007152,0.7587512206996999,0.68896484375,0.80725097656,0.001250358451222691,0.12208618163849999,-0.14514160156,0.30578613281,0.017561617118316636,1.0313451319593003,0.95694045589,1.08961963741,0.0006533340994562433,969.8708088343295,969.848615439,969.90623364516,0.0001904800754022736,-0.00017109398780950833,Lift Up
-0.66567749023,-0.75439453125,-0.53051757812,0.003989103723881239,0.7660852050750999,0.67541503906,0.84631347656,0.0019315333243137306,0.0815881347647,-0.13500976562,0.23229980468,0.012290013454377928,1.0264641179901002,0.96329844816,1.12217509392,0.0010804491374419428,969.8831327832087,969.86013470539,969.90950099861,0.00021836030656801649,-4.638728407245148e-05,Lift Up
-0.6389807128871999,-0.66723632812,-0.62023925781,0.00023086307474782917,0.7879968261677999,0.76428222656,0.80383300781,0.00013355831155337485,0.10942993163630002,0.06970214843,0.14868164062,0.000607478912142511,1.0208521687709,1.010911907,1.03386174718,3.362651003760655e-05,969.8802295371987,969.85807303481,969.90287871894,0.00014162468935807174,-0.0001300100156653351,Lift Up
-0.6445678710906,-0.66723632812,-0.6220703125,0.00013269122801179087,0.7871044921836,0.76428222656,0.7978515625,7.499887486302082e-05,0.09982421874759999,-0.029296875,0.1337890625,0.0014715535231478666,1.0230380266249999,1.00109607262,1.03169826677,2.196361151243959e-05,969.8733924753496,969.86594021537,969.88005282271,2.1732900477975396e-05,-5.4605016798560735e-05,Lift Up
-0.6355102539030999,-0.67395019531,-0.59521484375,0.00017521101415158733,0.8013769531215,0.78063964843,0.82141113281,9.017619221155152e-05,0.0097644042948,-0.029296875,0.05065917968,0.00033556707416947833,1.0230467805149999,1.00109607262,1.05052554199,0.00014533031918259072,969.8789136110815,969.87082357594,969.88906466505,1.5084245870593663e-05,-1.4313853992958593e-05,Lift Up
-0.6702868652302999,-0.69775390625,-0.63745117187,0.0002720203950554203,0.7720117187455999,0.74816894531,0.80285644531,0.0001705941768620551,0.0417907714801,0.00134277343,0.06640625,0.0003943465499652823,1.0236424803659,1.01696168528,1.03557518453,1.7886932542899456e-05,969.8805726778321,969.87393986691,969.89319734248,1.8609025748186685e-05,9.109772182979792e-05,Lift Up
-0.6605517578085999,-0.69201660156,-0.63049316406,0.0001957961766624586,0.7764331054646999,0.74816894531,0.80749511718,0.00016853466778394898,-0.0021789550767,-0.04260253906,0.06408691406,0.0011082265637024067,1.0200735026945997,1.00654737035,1.03888521618,9.05260479143104e-05,969.8928163547063,969.87891156617,969.91593540361,0.00011791199726599909,-8.889596830252331e-05,Lift Up
-0.6535754394504998,-0.68640136718,-0.62622070312,0.00020777188616947874,0.7960205078083998,0.78564453125,0.81591796875,6.743151732865768e-05,-0.0049877929672,-0.03405761718,0.03686523437,0.0002754303601282652,1.0301808621139998,1.01836594673,1.05994486011,0.00010798054804635199,969.855795648921,969.82218471608,969.93042319227,0.000512417890281392,-0.00016532755713679836,Lift Up
-0.5883154296829,-0.73254394531,-0.47106933593,0.0032767606745621645,0.8564819335899,0.79577636718,0.8984375,0.0006578611304362824,0.2161682128863,0.03601074218,0.35070800781,0.007330550501843349,1.0658189441878,0.97142240098,1.14701363793,0.0016035782080597379,969.8666171002752,969.7662837556,969.98476270359,0.003988251240988252,-0.0018100503711416427,Lift Up
-0.43121337890159994,-0.55200195312,-0.37451171875,0.002687024197143224,0.7933410644489999,0.77526855468,0.81420898437,0.00012433359570224414,0.4674316406213999,0.34423828125,0.51220703125,0.00214834165087716,1.0191447150466,1.0018663127,1.0366032761,8.23369533991975e-05,969.6536457870628,969.55080347358,969.7662837556,0.0038635908552968417,-0.0021167105122413404,Lift Up
-0.49517944335619984,-0.57360839843,-0.37512207031,0.004152317689768725,0.8170922851518999,0.7802734375,0.87292480468,0.0007571917531537137,0.34627685546579984,0.16198730468,0.50927734375,0.011493353982275046,1.0240570551232004,0.98260906552,1.05447388357,0.00029911803473185874,969.4709515987622,969.35099697764,969.55080347358,0.0037388572638119987,-0.0019494198867954567,Lift Up
-0.4819995117144,-0.51525878906,-0.47106933593,8.348425831288631e-05,0.8683386230429,0.84313964843,0.87353515625,2.035235365196302e-05,0.23592651366820003,0.2138671875,0.24853515625,3.8689222910410537e-05,1.0208491140914997,1.0109971614,1.02602854912,1.4363231021346453e-05,969.2537386145245,969.15518820797,969.35099697764,0.0031273403142767996,-0.0019111960268809987,Lift Up
-0.4761022949174999,-0.51525878906,-0.43298339843,0.0004477828605689964,0.8228869628862999,0.79907226562,0.84313964843,0.00016009930861153932,0.22084472655809997,0.21032714843,0.24084472656,8.903299918899173e-05,0.9760660300826001,0.95221101212,1.0109971614,0.00023179573928419194,969.0585103285688,968.99070436118,969.15518820797,0.0019338771030904696,-0.001478177550923453,Lift Up
-0.4655590820272,-0.50122070312,-0.43212890625,0.00029911718584179085,0.8778173828083999,0.83190917968,0.89770507812,0.0002630478444554254,0.225617675778,0.21350097656,0.24084472656,4.4139834353300465e-05,1.0191885222154002,0.99645951979,1.03076568703,6.762630732002282e-05,968.985531138279,968.97373355353,968.99570507569,3.900152314962896e-05,-5.6210742859433024e-05,Lift Up
-0.4864501953092,-0.51062011718,-0.46435546875,0.00020366967324075716,0.8709570312463998,0.85961914062,0.8798828125,3.0584190830489456e-05,0.22225341796379997,0.21447753906,0.23168945312,1.59735932521572e-05,1.0221636279495998,1.01269950608,1.03071787138,2.6027750154895e-05,968.9794849999988,968.97344354375,968.98471049488,9.732798116901698e-06,-3.676406774705192e-05,Lift Up
-0.49951171874579997,-0.51696777343,-0.49060058593,2.8597586072011618e-05,0.868562011715,0.84252929687,0.88952636718,0.00013378642423184176,0.2096948242154,0.1396484375,0.23193359375,0.0004942716311744915,1.0239276283624001,1.004506047,1.04359704998,0.00010721780362365219,968.9630710850164,968.9505137305,968.97704689641,7.884563627109555e-05,-0.00023473545291214848,Lift Up
-0.4761523437465998,-0.50341796875,-0.44543457031,0.00027063865855312807,0.8923852539019999,0.85815429687,0.92321777343,0.0003065274760890022,0.14618408202740002,0.11010742187,0.18017578125,0.00033066381710749855,1.0223137995235998,0.99208723898,1.04895520283,0.00021770569038207017,968.95201437143,968.93370940146,968.96593796407,5.4615053256502884e-05,-0.00011658373845359273,Lift Up
-0.4701635742152,-0.48876953125,-0.45080566406,8.192693945973936e-05,0.8945703124962,0.87854003906,0.91430664062,8.354490452753017e-05,0.159970703121,0.12939453125,0.18774414062,0.0003680744797283553,1.0233990723814,1.01068678994,1.04270941835,8.38443287871214e-05,968.956579279775,968.94495038968,968.97140451541,5.434423435870781e-05,9.186356802223477e-05,Lift Up
-0.5240307617147999,-0.70275878906,-0.453125,0.0064706645890317506,0.8425488281201998,0.69616699218,0.89721679687,0.004505992754516001,0.2172631835906,0.16491699218,0.33898925781,0.0035661944777381958,1.0226924048148,0.95925946767,1.04677024715,0.00019972360867422784,968.9726384938784,968.95834451039,969.00126800991,0.00012518404972521705,0.00017791589626227296,Lift Up
-0.6668017578091999,-1.05395507812,0.05236816406,0.07211520103518053,0.6236547851513999,0.35998535156,0.86694335937,0.03303041571893106,0.21691650390399997,-0.14208984375,0.52746582031,0.04688400541210908,1.0119847070988,0.75774639863,1.13753626943,0.007089821687648721,968.9575755163451,968.90107561324,969.0694292385,0.0021230634734896643,-0.0006245313615606296,Null
-0.8917822265591999,-1.07104492187,-0.69372558593,0.008824433485656081,0.4312695312459999,0.27966308593,0.66003417968,0.011064517353499621,-0.13551757812100002,-0.27917480468,0.02770996093,0.005784244465054743,1.0091056075678002,0.8674474275,1.16064552624,0.006824543730993581,968.9925709888599,968.95549695939,969.03847784965,0.00037747410027326987,0.0005296477189150129,Null
-0.9635180664026001,-1.11437988281,-0.81811523437,0.008303927658821236,0.36995361327819976,0.23937988281,0.50793457031,0.007567242907691841,-0.17121337890360003,-0.53051757812,0.08203125,0.026163980267854707,1.0606111160882,0.86368196775,1.27467628207,0.011379415285827163,969.0067123458539,968.962440103,969.06898997908,0.0015057455102801304,0.0002259648266098773,Null
-0.937448730466,-1.10656738281,-0.81030273437,0.004097428038920099,0.3443334960897998,0.26770019531,0.53442382812,0.0037199200342879833,-0.21762207030979996,-0.48681640625,0.04150390625,0.02336795797218689,1.0325334005777997,0.86797974456,1.29995193621,0.00957906458854363,968.9952230180985,968.96019016825,969.06269781494,0.0008405006780611955,-7.948727449084612e-06,Null
-0.9386987304656,-0.95239257812,-0.91223144531,0.00010339520796836663,0.3045751953096,0.251953125,0.34362792968,0.0006852919645540938,-0.2488867187474,-0.3525390625,-0.17260742187,0.000869619509198587,1.0184816867272002,0.98015611535,1.0503900147,0.00020478016144851493,969.0063065424554,968.99556432602,969.04021774762,0.00010070507221851641,-0.00010819937766713056,Null
-0.31973876953080005,-1.64807128906,0.70690917968,0.7555168471196386,0.5077124023392,0.13110351562,0.81872558593,0.027236670370138133,-0.03660400390599999,-0.69494628906,0.50622558593,0.15129363537211651,1.1061597375746002,0.8078189215,1.71094431505,0.0630928622573517,968.9897406580358,968.92710007402,969.05889255007,0.0016566582598388007,-0.0004178895902750115,Null
-0.08377441406339999,-1.64221191406,0.70544433593,0.6295722091015616,0.6468481445275998,0.41174316406,0.998046875,0.02578609549025962,0.0110375976544,-0.67858886718,0.51184082031,0.13369935334699504,1.0737859973643997,0.73139677408,1.69371929105,0.05424567304792951,968.9561938257722,968.92310988451,969.04140394397,0.0006163820276837901,0.00027592328914212395,Null
-1.1606420898398002,-1.49670410156,-0.90502929687,0.02443751391177645,0.35781738280939995,-0.00366210937,0.76013183593,0.05120760717744345,-0.05561279296800001,-0.27648925781,0.09436035156,0.01138070803038827,1.2394512454038,0.90604460789,1.59212529825,0.028416468670351684,968.9900162049088,968.9383587321,969.08583600501,0.0016403307326204835,-0.0001763714589316617,Null
-0.6198339843708,-1.31005859375,-0.34057617187,0.0605020170499915,0.7295678710905997,0.18078613281,1.24926757812,0.06383258699748759,0.17467285156020002,-0.33361816406,0.51611328125,0.06070776951282992,1.0496847542221999,0.69174597632,1.36955573826,0.028614058948624326,968.998451185356,968.87859274173,969.17715523767,0.007182085457111569,-0.0015623339310426125,Null
-0.8470483398403998,-1.43774414062,-0.14172363281,0.1410084905585554,0.6559594726515999,0.12756347656,1.25756835937,0.06910465816659057,0.1186791992182,-0.19885253906,0.52978515625,0.056405349385042255,1.1752024279514004,0.82034368909,1.53178702882,0.0450616551332798,968.9559477014051,968.85819269932,969.05674798605,0.002762927400805675,-0.00018870418376727602,Stairs Up
-1.1116943359331999,-1.33081054687,-0.73010253906,0.02637668691500215,0.40892822265260004,-0.04736328125,0.95251464843,0.09344644884241984,0.11081787109219998,-0.17980957031,0.33813476562,0.019187012518608864,1.2360194338731998,0.85404552011,1.58710270626,0.02549817602526157,968.9742695802796,968.89941456234,969.28346568086,0.009452206077444007,-0.0008825669641638806,Stairs Up
-0.9838256835901998,-1.59655761718,-0.59423828125,0.06638611642368362,0.5397338867147999,0.19750976562,0.88305664062,0.04062199487211439,0.07252685546780001,-0.17980957031,0.4091796875,0.034233157085653734,1.1639740052414,0.76447097258,1.68083843898,0.04997894923774226,968.9047946767881,968.85864128858,968.94346506495,0.0009751655360425906,-0.0007235378307421656,Stairs Up
-1.186933593747,-1.49951171875,-0.923828125,0.027277827720713892,0.3486987304662,-0.10314941406,0.62072753906,0.03553105978611827,-0.029985351562,-0.20971679687,0.169921875,0.010028594526886966,1.2580060834742002,0.99847070164,1.53446588208,0.021041498034425857,968.8572774895493,968.79031044114,968.92376039466,0.0012369743009188678,-0.0008264725942045156,Stairs Up
-1.0140795898400001,-1.24450683593,-0.79223632812,0.01503492522103528,0.435603027341,-0.06323242187,0.76904296875,0.06113828806579932,0.028225097655200003,-0.19580078125,0.24572753906,0.01236255439208385,1.1389311481614,0.93313945905,1.32197413196,0.009485169538552848,968.7689938864781,968.72849936497,968.83261591054,0.00031001262434652904,-0.00045463314649155876,Stairs Up
-1.0679101562462001,-1.41174316406,-0.67041015625,0.026431496360119117,0.3155371093722,-0.06579589843,0.64599609375,0.030725473490306476,-0.08545410155979997,-0.26354980468,0.08361816406,0.008825296680867836,1.135367168435,0.83968963096,1.47816538221,0.023800009478235195,968.69753560843,968.61950309999,968.75487900832,0.001607854736411933,-0.000992689028533065,Stairs Up
-0.9804882812464,-1.24182128906,-0.68603515625,0.0220428508699316,0.42464843749599995,0.17858886718,0.71948242187,0.021191913696559324,-0.08780029296720002,-0.23706054687,0.13208007812,0.011740226221157316,1.0898073026836,0.87784469922,1.3637230384,0.0163007479504989,968.620348623578,968.57203080158,968.70490624243,0.0012521030334292245,-0.0007451688058052147,Stairs Up
-1.0794506835895998,-1.31018066406,-0.80590820312,0.0195184590901186,0.3667529296841998,-0.03894042968,0.65148925781,0.028505855834126695,-0.04821044921699999,-0.53979492187,0.59350585937,0.06713419454652175,1.1819738814676,0.88985563811,1.42980659489,0.019182227329675686,968.5782884191646,968.53433345817,968.64110444262,0.0009089928908605067,-0.00020021135907287915,Stairs Up
-0.9621240234335999,-1.2041015625,-0.67321777343,0.02104891131612537,0.44338378905799997,0.00695800781,0.7021484375,0.018773964559357995,-0.07060302734259999,-0.30639648437,0.25061035156,0.02057757515435006,1.0816883114572,0.80287561775,1.2477493409,0.01717520375164288,968.5022426445299,968.44304697212,968.60491149603,0.0021751617786939653,-0.0003111727377727567,Stairs Up
-0.9826782226527999,-1.2041015625,-0.67858886718,0.02025375658205897,0.3540991210902,-0.09631347656,0.63098144531,0.03383037916946446,-0.2391088867154,-0.50988769531,-0.06896972656,0.011721921864168337,1.0970532811444,0.88313771055,1.2233937023,0.009937203949082584,968.4810596348453,968.45795869991,968.52738044341,0.0002627488583409447,-0.00010312818145173296,Stairs Up
-1.0635620117146,-1.20190429687,-0.95300292968,0.004212277856669939,0.31888671874700003,-0.02014160156,0.58227539062,0.03245512731120984,-0.13620361327819996,-0.38146972656,-0.02038574218,0.007530950711336925,1.1359819881602002,1.00247717792,1.26003587766,0.0047531427499598305,968.4718915939675,968.44856157446,968.50509377492,0.0003085973078491649,-0.00029989199793745933,Stairs Up
-1.0464257812458,-1.224609375,-0.89636230468,0.00843297679023426,0.3298559570274,0.03125,0.60510253906,0.026726196925726715,-0.17844970702799998,-0.3857421875,0.00561523437,0.01246148950478274,1.1275510116337997,0.92740129615,1.31278108243,0.011544786602857163,968.481393817213,968.45308075456,968.5468209142,0.0006171221972949347,-5.763367796177858e-05,Stairs Up
-1.1258642578092,-1.29040527343,-0.99987792968,0.0049689031851509885,0.29036865234060005,-0.08032226562,0.63159179687,0.04823661166480404,-0.0912377929682,-0.31372070312,0.10424804687,0.014977723112405587,1.1920936626822,1.07350259664,1.38386849853,0.006689617287201854,968.4830663609245,968.43783756991,968.55155888814,0.001188999484302383,-0.00043036919744795105,Stairs Up
-1.0536682128872,-1.32299804687,-0.30151367187,0.058539785332017646,0.41859497070049995,-0.07006835937,1.07080078125,0.11104626055140127,-0.08677246093490001,-0.33337402343,0.11303710937,0.015113737462155736,1.2056832803466,0.90407145844,1.51894257917,0.02237224780317826,968.4625852981964,968.42959954954,968.5298459142,0.0005621386140859569,-0.00031731751047177055,Stairs Up
-1.0009545898402001,-1.2822265625,-0.58215332031,0.03270696069885643,0.42113525390179984,0.09423828125,0.80932617187,0.025646984221786826,-0.1056982421862,-0.50061035156,0.39855957031,0.05278493517432412,1.1320417626718,0.86186452412,1.38656943148,0.01913742451194143,968.457767096116,968.33939824128,968.64923160025,0.00733340702297906,-0.0014646071458061245,Stairs Up
-1.0731811523402,-1.27502441406,-0.82531738281,0.016135666256054178,0.28402099609,-0.0810546875,0.50964355468,0.02413765664601493,-0.032338867187,-0.37084960937,0.25512695312,0.020488219332589645,1.1312644104828,0.87387075955,1.37526706247,0.013965934015567413,968.3390286652415,968.27128809685,968.40548665029,0.0015147726835737774,-0.0001492184399101703,Stairs Up
-0.9913256835898,-1.29943847656,-0.75378417968,0.023454650730752827,0.27127929687179997,-0.02136230468,0.43115234375,0.012297799153597662,-0.11288330077940001,-0.23254394531,0.0859375,0.007410226933770439,1.0451241370875999,0.82138803001,1.36405870736,0.019705349068842273,968.3153556616553,968.23766181563,968.41406054753,0.0025721098995694354,-0.0008311536969508818,Stairs Up
-0.8429663085892,-1.21826171875,-0.48461914062,0.045563392621005526,0.5051196289015999,0.21423339843,0.79907226562,0.0199616806737624,-0.09846923827899999,-0.39086914062,0.12438964843,0.020050770471212398,1.0125638556142,0.66774608849,1.29063066984,0.035220961050928506,968.2944282451182,968.1314408733,968.49022674837,0.01183128825119948,-0.002681133415040836,Stairs Up
-0.8980566406216,-1.3251953125,-0.65417480468,0.028874298322355742,0.45720214843299994,0.23107910156,0.71606445312,0.012235885918614194,-0.1165332031222,-0.39086914062,0.12414550781,0.012202536674195458,1.0301587815514004,0.81615640385,1.37229756275,0.020880808309668635,968.144424858439,968.01965072008,968.44023768338,0.012644222231651658,0.0009795215730099367,Stairs Up
-0.8923950195277999,-1.181640625,-0.34155273437,0.03940297633143554,0.45466308593339994,0.17504882812,0.81127929687,0.026029681316341164,-0.17097412109079996,-0.76696777343,0.15173339843,0.04187433761065864,1.0527847208616001,0.64045463017,1.42367468113,0.030502827776453138,968.1335710269501,968.04798439802,968.31859340609,0.0036407781506573593,-0.0008650473155339352,Stairs Up
-0.9585107421833999,-1.32043457031,-0.52099609375,0.03897569013363339,0.3969433593711999,0.16369628906,0.65930175781,0.012609018556984715,-0.0798071289042,-0.19873046875,0.15930175781,0.012579451479667837,1.0574690635777997,0.69570498158,1.36797513889,0.028240150909656366,968.0640248742417,967.9967190577,968.20509877701,0.0036187577304474133,-2.7857464566958383e-05,Null
-0.9537426757774,-1.15930175781,-0.52099609375,0.026162426526102938,0.37199951171439993,0.08557128906,0.77172851562,0.03140883318740509,-0.078718261718,-0.24816894531,0.08178710937,0.009227139184793839,1.0475666343111998,0.73291626583,1.33533025068,0.023171570332576913,968.046069997013,967.9967190577,968.08953390479,0.0006331243312686545,-9.409318519980171e-05,Null
-1.024687499997,-1.33508300781,-0.796875,0.0174608830008409,0.314895019528,0.10546875,0.57006835937,0.019628541571787436,-0.2077954101524,-0.45629882812,0.05163574218,0.021002302753727144,1.107345414341,0.80869864737,1.39114105636,0.023857799843526786,968.041656991036,968.00369777025,968.14970800547,0.0011052912342791458,-2.819365002519783e-05,Null
-1.084602050777,-1.30102539062,-0.78076171875,0.01806860103137842,0.30584716796420003,0.1083984375,0.58093261718,0.0104262980847872,-0.07248046874939998,-0.89782714843,0.27612304687,0.07922025013261164,1.1642858265398002,0.85410030425,1.58605379232,0.026499019120617532,968.034957654268,967.98121863965,968.24921106174,0.005140526892477838,-8.195407508466559e-05,Null
-1.022768554684,-1.30102539062,-0.95971679687,0.0041203397932938444,0.2102954101532,-0.06750488281,0.37524414062,0.014032264435745805,-0.11776367187179998,-0.24694824218,0.01049804687,0.005779799210774049,1.0602275882271999,0.9795544073,1.31909184206,0.003796463598262086,968.057240222374,968.03163382114,968.10225631895,0.000444923905455527,4.516481483933947e-05,Null
-0.9762353515583999,-1.0556640625,-0.89489746093,0.001366349446678766,0.22897705077680006,0.142578125,0.28991699218,0.0014647782992209034,-0.130498046873,-0.28686523437,0.02905273437,0.00823177771113535,1.0158722736447998,0.94899553256,1.09593889688,0.0014661532275471953,968.0482387308651,968.01516484345,968.10932746637,0.0007153438111772672,-0.00040720113342040753,Null
-0.9916601562457998,-1.076171875,-0.90795898437,0.002243854445625951,0.21953124999640003,0.06994628906,0.38403320312,0.00643797715501345,-0.0872973632784,-0.26293945312,0.07348632812,0.0075207214220634495,1.0264092045626,0.95286992052,1.09949341021,0.0017468051815530718,968.0324207953142,968.01400780902,968.08603153566,0.00031412867724731785,0.0001441383773440734,Null
-1.0199511718713998,-1.19909667968,-0.89916992187,0.007786956194635251,0.242043457028,0.02954101562,0.38403320312,0.01210556649806767,-0.132775878904,-0.34912109375,0.05993652343,0.016951114992074034,1.0694308090509999,0.93877058553,1.25273164654,0.009401826336487293,968.0263178408161,967.98143618152,968.1555795203,0.0016734173557646941,-0.0004548808202375784,Null
-0.7601733398401999,-1.25354003906,-0.27172851562,0.10542367420435107,0.2819677734346,-0.22766113281,0.5888671875,0.0650170738282305,-0.48918701171479995,-0.97143554687,0.04736328125,0.13252035902570702,1.0855326548997999,0.94156216481,1.34695029634,0.018407692348226524,968.1068092235778,968.001762543,968.38667341879,0.010337039363450371,0.002668742862418006,Null
-0.7289453124957999,-1.10729980468,-0.41833496093,0.04678678527016717,0.42822265624859995,-0.22766113281,0.95031738281,0.13301238808779856,-0.21662597656179997,-0.90856933593,0.43884277343,0.15559350841914155,1.0367544058388,0.80123856674,1.32482816238,0.019032103625372224,967.9657064226565,967.83143676955,968.11947480229,0.006027397158301901,0.0011400685046352587,Null
-0.6765527343712,-0.83581542968,-0.44262695312,0.014179853742747559,0.6662866210903999,0.52587890625,0.86706542968,0.008650013467339448,0.3547509765593999,0.21264648437,0.5419921875,0.006001923204790502,1.0267196753,0.94002424395,1.13316251017,0.0019190909733627034,968.0150872692753,967.94735068283,968.12416529514,0.002612654963516868,0.001390769934906578,Null
-0.7146655273402002,-0.80346679687,-0.63952636718,0.0025836567745245132,0.6846215820271999,0.62158203125,0.74182128906,0.001307761482529559,0.22917480468340007,0.08923339843,0.34167480468,0.007264183627185181,1.0211328421808,0.99752316106,1.07507923688,0.00030947690563803255,968.0633234491927,967.96236947291,968.19941469813,0.0038184728901983684,-0.0008632868614050129,Null
-0.6360498046837999,-0.68176269531,-0.60620117187,0.0007130794091702855,0.7215478515588,0.69787597656,0.74060058593,0.00019752487989726464,0.36093017577739983,0.32983398437,0.41174316406,0.0006598708666241671,1.0279922476121999,0.99642696417,1.06077870316,0.0002504617867735126,968.0423954489038,967.92061194434,968.14369943232,0.004601423332087574,-0.0017387663054265626,Null
-0.6298339843718,-0.65747070312,-0.599609375,0.00020623267299614063,0.7249340820277999,0.70104980468,0.7587890625,0.00018758762366567023,0.34332275390259986,0.31384277343,0.36889648437,0.00023494600648426097,1.0201014507708,1.00619010302,1.05252773118,0.00010736694820117626,968.0526398166992,968.01998261131,968.07956575151,0.0002373576459724848,0.00016067160690201864,Null
-0.6555957031223998,-0.68176269531,-0.6328125,0.00023117376096467952,0.7306445312457999,0.68981933593,0.75610351562,0.0003813433888043393,0.29937744140219996,0.2490234375,0.34387207031,0.001148479905956609,1.0271212381168002,1.01584966815,1.03981691952,3.9756271059872204e-05,968.0562944193551,968.03942909724,968.0835682033,0.0001220998441203605,-0.00020551349762766918,Null
-0.6652197265583999,-0.80883789062,-0.38671875,0.008502991054832732,0.746572265622,0.6923828125,0.9814453125,0.004573938124168963,0.2171679687476,-0.48217773437,0.31176757812,0.029261834668856828,1.0429296519109998,0.96869931549,1.10883380557,0.0012752287113272779,968.0658927907104,967.99142006132,968.22198684276,0.0026832534780463465,0.0007512063167539655,Null
-0.6199694824190999,-1.02746582031,-0.30456542968,0.04064987804422899,0.3396252441383,-0.11767578125,0.86291503906,0.11368053979707693,-0.5166076660130998,-0.96411132812,0.16687011718,0.13230934328855473,1.0179658135035001,0.76050311189,1.2685842004,0.014252436591076367,968.0387574391415,967.93993424141,968.19879933558,0.004415525194437014,-0.0010947727677464278,Null
-0.5700097656202,-0.71435546875,-0.29809570312,0.008809143991333129,0.8121411132772,0.75512695312,0.93298339843,0.0014267379647455525,0.21506591796500005,-0.03796386718,0.345703125,0.0041355705560264236,1.019365622448,0.81511844017,1.21029484831,0.005918318796403407,968.0545828211613,967.99697310254,968.1810632205,0.00218598031074983,0.00012418203402680812,Null
-0.5219091796829999,-0.60974121093,-0.37487792968,0.005902217638687291,0.8578369140588,0.80151367187,0.92541503906,0.0017007583319549574,0.1762255859354,0.08166503906,0.24206542968,0.002245909493358757,1.0241230449948,0.99722270193,1.05087768367,0.00025374284999288174,968.033499015733,967.9925224778,968.06832001623,0.00037402584875829184,-0.0002110495675125988,Null
-0.49545898437079994,-0.7236328125,-0.27307128906,0.010111876810405793,0.8224609374965999,0.54357910156,0.96887207031,0.010156050474996571,0.3177514648394,0.12524414062,0.57202148437,0.018523036524516086,1.0265027647388,0.74111398055,1.19921758819,0.007659313602516987,968.0441554842779,967.94670220004,968.13820246688,0.002146360117435265,-8.003417528176859e-05,Null
-1.2177807617149998,-1.63916015625,-0.45690917968,0.06760978181573045,0.3606616210912,-0.27392578125,0.81115722656,0.09982610423627038,-0.0008349609366,-0.20434570312,0.19421386718,0.011832176651054502,1.3220055160886006,0.74111398055,1.68458213912,0.04327705373576965,968.0324292378343,967.94670220004,968.10217640075,0.0017509694851257998,0.0009921593336638791,Null
-1.1487817382775998,-1.48693847656,-0.95190429687,0.023651762255413565,0.32638427734079994,-0.07971191406,0.69616699218,0.05058051649327764,-0.07608886718579999,-0.22216796875,0.07897949218,0.007869929640871569,1.2193215663125998,0.95731045289,1.57495930388,0.026819998621017915,968.037581135881,968.00730314524,968.11041715988,0.0005318885986159442,-8.637315145663507e-05,Null
-1.1088574218706,-1.32165527343,-0.91467285156,0.012704319761291933,0.3899218749971999,-0.02185058593,0.99841308593,0.09043283327580658,-0.03431640624780002,-0.25549316406,0.60412597656,0.02900776335592507,1.2170567259122003,0.91635634667,1.65102327398,0.03270490860431575,968.0494350095573,968.01981193452,968.11929107545,0.00041785839373281725,3.7860519665570734e-05,Lift Down
-0.4391210937467999,-1.24108886718,0.00061035156,0.15451449700065206,0.7389575195279999,0.38146972656,0.99755859375,0.020989227902699345,0.37399658202900005,-0.16357421875,0.73852539062,0.07279208169312955,1.0517690742777999,0.84389615559,1.60039587096,0.018539047407034454,968.0536276661978,968.01860699039,968.11929107545,0.0005410157891335631,-9.368788957632548e-05,Lift Down
-0.9777172851517999,-1.10729980468,-0.84741210937,0.0045075152919662595,0.30946533202759996,0.18640136718,0.70654296875,0.010193992148874481,0.022636718751399994,-0.24230957031,0.40148925781,0.03914402419727273,1.0489394872745996,0.90867768061,1.29257284251,0.0052983139472020865,968.0712123252732,968.02740211869,968.11592693388,0.0006424560088496116,0.0006019528176926663,Lift Down
-0.9833496093721998,-1.0625,-0.9150390625,0.0014195038815146659,0.22669189452660002,0.11254882812,0.31530761718,0.0019667975890646193,-0.135363769528,-0.27136230468,0.07849121093,0.007955774062360406,1.0227679774442,0.94608653512,1.13022456032,0.0018821600889576925,968.0676159647741,968.0367796418,968.0991322299,0.00033097032418055,0.00028877723111335685,Lift Down
-0.9673437499956,-1.01770019531,-0.91577148437,0.0007339037066912686,0.22797607421539992,0.15393066406,0.38391113281,0.0025875544849460683,-0.21308105468379998,-0.27136230468,-0.12878417968,0.0013153632240641333,1.0181563035722,0.96090187999,1.09998816407,0.0010896481162307088,968.0661153215488,968.04087872673,968.08580121969,0.00015024882308906928,4.515524763191538e-05,Lift Down
-0.4921142578116002,-1.03308105468,0.47045898437,0.3546578540906922,0.5668286132777999,0.12438964843,1.00170898437,0.11580350134785174,-0.16740966796579998,-0.3876953125,0.11474609375,0.016025257284791015,1.0273254057884003,0.73349408822,1.33989184991,0.01790037749338732,968.0451093843412,967.98790237678,968.0924320874,0.0012546947081961252,-0.0006652460319915421,Lift Down
0.4339233398391999,0.41076660156,0.46813964843,0.0003462140307043328,0.9290832519498999,0.91320800781,0.96301269531,0.00015869085685450902,0.10607299804369999,-0.0048828125,0.13525390625,0.0009171169137627774,1.0315166210104,1.01359218217,1.05991544244,0.00011908786758193847,968.0413256254818,968.01502567351,968.05359734896,0.00010263219834168036,0.0003142813591902869,Lift Down
0.46527832030839983,0.42663574218,0.48889160156,0.00026149952049437145,0.9204248046839999,0.90112304687,0.9609375,0.00029035447826054,0.0506811523394,0.03491210937,0.07116699218,0.00010151615650464493,1.0328433976752,1.01462018117,1.05379489284,0.00011683632563387326,968.0523648550173,968.04392787685,968.06193908715,2.3899758995073967e-05,5.751645910647882e-06,Lift Down
0.45526855468319993,0.42541503906,0.48168945312,0.00019963953229731592,0.9215209960904,0.89855957031,0.9609375,0.0001735345582852074,0.0670776367142,0.02197265625,0.08557128906,0.00023902802150571568,1.0302734616352,1.01133970575,1.05658960836,0.00011362303886882781,968.0457267856217,968.02916537026,968.05369441906,3.32107786092755e-05,0.00013280645678164662,Lift Down
0.4503759765588,0.41955566406,0.490234375,0.00032217649498595,0.8898046874969998,0.85144042968,0.92431640625,0.00040728277633870206,0.059836425777,0.02197265625,0.10119628906,0.0005765260410227216,0.9994779042568002,0.95794326767,1.04545800546,0.0005132771356366949,968.0533505057381,968.04137531062,968.065762332,4.024853937131642e-05,-6.153294669690833e-07,Lift Down
0.3957690429649999,0.15075683593,0.51794433593,0.009899754722824667,0.9183593749954,0.83837890625,1.08923339843,0.0038170663996195276,-0.0071069335934,-0.18408203125,0.17834472656,0.016262386355966867,1.0132056442012,0.96246899703,1.2026080408,0.0031932560411717104,968.1330290266467,968.065762332,968.22415259626,0.0019530266093178744,0.0014909001113109375,Lift Down
0.538525390622,0.47204589843,0.568359375,0.0005246689825661152,0.8613720703091999,0.8408203125,0.92150878906,0.00032847443012371956,-0.11168701171480003,-0.14892578125,-0.07019042968,0.00031154770443368626,1.0224679613241998,0.99196265518,1.06578676165,0.00015933404993584958,968.3260721497521,968.22415259626,968.44009595804,0.0038252257527518372,0.0021231909363042738,Lift Down
0.027563476562000044,-0.70288085937,0.52514648437,0.23864490816952252,0.850229492183,0.74377441406,0.92956542968,0.0033170628065807765,-0.2762109374966,-0.60217285156,-0.06335449218,0.018922850363302435,1.0261690888366,0.85518594535,1.16593707281,0.005247869550556588,968.5589442675952,968.44009595804,968.72575995173,0.006871137118308971,0.0025855376302340353,Lift Down
-0.610297851559,-0.70288085937,-0.4833984375,0.003595077124523658,0.8262060546838,0.64074707031,0.90490722656,0.00337439597260552,-0.012099609375,-0.27770996093,0.28771972656,0.03383813340125186,1.044706852605,0.91024146274,1.14199338116,0.0042559954683636225,968.7346881287777,968.66647594603,968.80411224526,0.0013820389154016557,0.0004638573274751986,Lift Down
-0.6939880371059999,-0.75451660156,-0.64880371093,0.0010145172251160783,0.7268334960898,0.65795898437,0.83459472656,0.0016908867130211063,0.1844604492153,0.13220214843,0.29528808593,0.002218714416555288,1.0238889463712,0.9969390424,1.09088982861,0.00021745683739998983,968.9641750528843,968.80411224526,969.08786866776,0.004399929911074902,0.0019403795401379273,Lift Down
-0.6580834960901,-0.69055175781,-0.63659667968,0.00020769267976359306,0.7794726562465999,0.75537109375,0.79748535156,0.00014770401849079068,0.11661987304360003,0.10070800781,0.15686035156,0.00022105868869068317,1.0269805367073,1.01375979297,1.05714037318,0.0001347197044561941,969.1972154445054,969.08786866776,969.36580159253,0.003915732216407203,0.0018374051397114582,Lift Down
-0.6669641113242,-0.68896484375,-0.61608886718,0.0002826006289382643,0.7627917480432,0.75012207031,0.77917480468,6.764624303563591e-05,0.11504028319989999,0.09484863281,0.15075683593,0.0002756173246459947,1.0200274670793998,0.99117474419,1.03530525718,9.112666200336912e-05,969.3951091523933,969.32925918683,969.47187034291,0.0014156343800354198,0.0010283748427947195,Lift Down
-0.6901293945273997,-0.69738769531,-0.67163085937,4.138892949484259e-05,0.7519506835890999,0.74157714843,0.77319335937,4.7356185294212765e-05,0.10375732421469998,0.09020996093,0.11584472656,6.766390920845576e-05,1.0259594986046,1.01779036404,1.04528386628,3.630932195990995e-05,969.6083707069025,969.47187034291,969.70238855955,0.0035347657758799593,0.0020297253533970105,Lift Down
-0.6738476562462,-0.70227050781,-0.64001464843,0.00031616613119783227,0.7626318359333999,0.73815917968,0.79345703125,0.00021437878564031868,0.0873291015594,0.07556152343,0.10363769531,5.6928757474196324e-05,1.0217019180478,1.01383023504,1.0293073346,1.125513702278982e-05,969.8294765185212,969.70100004839,969.94139695724,0.005176114475418675,0.002421189014327227,Lift Down
-0.6456298828092,-0.66271972656,-0.62744140625,9.623922482747398e-05,0.7944775390591999,0.78210449218,0.8076171875,5.262533824450264e-05,0.0662255859344,0.04113769531,0.08740234375,0.00017871654397054332,1.0260179070984001,1.01573442456,1.03571731908,3.0195440720692828e-05,970.0370367673964,969.94139695724,970.12157107199,0.003289017574051516,0.001964020150349769,Lift Down
-0.6673046874963999,-0.6962890625,-0.63330078125,0.00021400485377952273,0.7713525390588001,0.75219726562,0.80029296875,0.000146111358279907,0.0495922851522,0.03271484375,0.06665039062,6.0771336450766334e-05,1.0213390211878002,1.01136558584,1.03091866776,2.3194632019171673e-05,970.2319763217392,970.10047377388,970.33960345081,0.005837158089292863,0.0025317391199461523,Lift Down
-0.6623120117164,-0.68322753906,-0.63684082031,0.0001581540673654609,0.7785644531211,0.76574707031,0.802734375,9.145820983833702e-05,0.0403088378869,0.02709960937,0.05346679687,4.090543196339718e-05,1.0230715685771998,1.01085149201,1.03483257631,2.677991546729901e-05,970.4518985316367,970.33495785997,970.53754283308,0.0035951585960787057,0.002048125953939587,Lift Down
-0.660686035152,-0.67370605468,-0.64025878906,7.625186683143261e-05,0.7792114257783999,0.76403808593,0.78601074218,2.5090996660425666e-05,0.0444885253866,0.03259277343,0.06567382812,7.487408290127424e-05,1.0226360390115,1.00549513508,1.03609172369,4.6160092250889204e-05,970.6551755880696,970.53754283308,970.75728654995,0.004172916651111243,0.00216979820611178,Lift Down
-0.6918749999968999,-0.71936035156,-0.65185546875,0.0003748183057689331,0.8041955566370999,0.77868652343,0.82690429687,0.00017450929137991024,0.05607055663609998,0.03601074218,0.07507324218,8.137239801135503e-05,1.0624312001468,1.02030336805,1.08799415109,0.00043409515990409285,970.8631678894758,970.75728654995,970.97322171934,0.003963164791916319,0.002116357276002745,Lift Down
-0.6814392089815999,-0.7109375,-0.66589355468,0.00013450642278741839,0.7755187988246999,0.75646972656,0.81762695312,0.0002400364463540047,0.0634399414033,0.052734375,0.0693359375,1.7131067278757424e-05,1.0343425347561,1.01345859702,1.08295172915,0.0003401081038581486,970.980033994313,970.93748104499,971.01629260595,0.0003458653109321606,0.0003991242753105268,Lift Down
-0.6684631347627998,-0.677734375,-0.65588378906,2.892823382629718e-05,0.7688952636684999,0.7578125,0.77575683593,3.55452283918625e-05,0.057117919918099995,0.04504394531,0.06506347656,1.9932965736381667e-05,1.0204741977401002,1.01274140417,1.02918873314,2.153526697957489e-05,971.0049710586868,970.9571960986,971.02235177523,0.00025681591060457143,-0.000286764496194382,Lift Down
-0.6775524902299997,-0.69274902343,-0.66711425781,5.020893432532186e-05,0.7621960449177999,0.75354003906,0.77124023437,2.2739802649303125e-05,0.058729248042600005,0.04431152343,0.07250976562,7.10002385655794e-05,1.0215669921817,1.0152870643,1.02862542852,1.2830761073877791e-05,971.0057059773313,970.96931836796,971.02886487759,0.00022033773403117927,0.0004099271649793811,Lift Down
-0.6710876464809999,-0.68579101562,-0.66088867187,4.249099981766594e-05,0.7677941894486,0.75952148437,0.78967285156,3.918007618172228e-05,0.0558520507776,0.04858398437,0.06640625,2.1216670684508288e-05,1.021289860223,1.01135304738,1.04313565465,5.54327928503652e-05,971.0147282116895,971.00410919278,971.02769809783,3.6737350029535925e-05,-1.721480115409798e-05,Lift Down
-0.6715710449186997,-0.68579101562,-0.66174316406,2.6308976939423804e-05,0.7707824706993999,0.76184082031,0.77758789062,2.1512573108065057e-05,0.054322509762100006,0.046875,0.06457519531,2.138196067100006e-05,1.0237775635924,1.0174121465,1.03617969518,1.2355898078969928e-05,971.0241244135171,971.01024771484,971.03229521795,4.8405761523371504e-05,0.0001477260809575881,Lift Down
-0.6773254394488998,-0.689453125,-0.65783691406,4.943975745662634e-05,0.7648327636675001,0.75842285156,0.77722167968,2.1103805660271696e-05,0.05391479491759999,0.041015625,0.06335449218,2.706203044833371e-05,1.0230981886283,1.01637343926,1.03105778781,1.2564021739174927e-05,971.0320080004816,971.01624117148,971.04888447735,0.00011437109525221527,0.0003218357292629128,Lift Down
-0.6576721191371999,-0.7158203125,-0.56408691406,0.0013194130451504478,0.7798144531217,0.73168945312,0.90905761718,0.0014244941509023437,0.0934667968713,0.0400390625,0.28857421875,0.002430112939952791,1.0262926395748,0.99027676463,1.13829868017,0.0012373107022751464,971.0266556917693,971.00103991548,971.06164591573,0.00019657558561537105,0.00015253975859374127,Lift Down
-0.5899768066373999,-0.72937011718,-0.49291992187,0.00431026626559578,0.7813317871057999,0.65966796875,0.90014648437,0.0034147594477214687,0.29739379882440004,0.07861328125,0.37768554687,0.0073290125211548166,1.0294533499449,0.92777757242,1.13214896928,0.002145821850320666,971.0326909769158,970.99968766946,971.06850351791,0.00031512757261019717,4.464862565086353e-05,Null
-0.5915307617143999,-0.78125,-0.42944335937,0.0071429424755538535,0.8252416992156,0.68664550781,0.98681640625,0.006576275217411144,0.1657250976536,-0.03601074218,0.31066894531,0.009206493930009675,1.0348373182492003,0.85655116924,1.21130712466,0.010308577208136752,971.0377601021339,970.98466418885,971.09995866829,0.001100377848138702,-5.44443833092069e-05,Null
-0.5685412597617,-0.71472167968,-0.48083496093,0.003912486360173122,0.8068066406209999,0.72326660156,0.92858886718,0.0024030773085903573,0.1837731933551,0.02807617187,0.31481933593,0.009200723621281243,1.0099522459922998,0.89918859018,1.1174917407,0.003339688113341398,971.0268748032264,970.98892627622,971.06379201755,0.00033147832650700276,-0.00010910934869770725,Null
-0.6285742187465999,-0.73425292968,-0.55285644531,0.0016984680926853135,0.7673486328078998,0.69616699218,0.86096191406,0.0014392773551450547,0.25753784179260003,0.10046386718,0.35498046875,0.005071620259395549,1.0285026299251998,0.97629154261,1.07264030316,0.0005705302932858533,971.0463303942398,971.02944792391,971.06386743877,0.00010818157233940131,0.00020956131458694743,Null
-0.6275268554646999,-0.68994140625,-0.46203613281,0.0039768849660128435,0.7284753417931998,0.6865234375,0.85632324218,0.0013284909167706382,0.33399658202689997,0.20886230468,0.494140625,0.003161633105143111,1.0211064287455003,0.87941002712,1.11988458321,0.0017616109201778285,971.0424903360224,971.02194251294,971.05937167199,7.412105358832779e-05,-0.00015687698277578517,Null
-0.4851403808549,-0.79467773437,-0.23620605468,0.022185470978126804,0.8274890136683,0.59680175781,1.20239257812,0.018867832330491444,0.03247680663919999,-0.78857421875,0.58337402343,0.2323300472303557,1.0865211161912,0.82094256409,1.31876411159,0.01138927369383193,971.0409242720357,970.97173918958,971.19259803071,0.003063277413118431,-0.0002848939941113502,Null
-0.21312377929449994,-0.56555175781,0.12341308593,0.05764100921624294,0.4764831542937999,-0.11999511718,0.99243164062,0.12017057621558627,-0.7970056152309999,-1.08642578125,-0.25695800781,0.041754741335695254,1.0329216955026999,0.4972671239,1.48093208772,0.05870639070405931,971.0165464295897,970.9608111352,971.0628464541,0.0005057609002880449,0.00017866307253455667,Null
-0.18647583007550003,-0.57958984375,0.00805664062,0.04248662816576049,0.9712988281221,0.8212890625,1.1435546875,0.008819930264657536,0.18073120117070002,-0.25695800781,0.45690917968,0.06291144585664428,1.05792299338,0.9631828035,1.19751263383,0.004780990009062494,971.0139701593694,970.91750620764,971.09086225686,0.0016439086876949777,-0.00025618361353910634,Null
-0.22346069335619995,-0.3623046875,-0.06982421875,0.007173674303654772,0.9549975585907998,0.82421875,1.04345703125,0.003371972092522821,0.30983276366869994,0.23132324218,0.41027832031,0.0028359180674251863,1.0336145416983,0.90769646571,1.12214064149,0.002868775597988197,971.0364105655852,971.01756887147,971.05027691073,6.409285895062198e-05,0.00023761283989851944,Lift Up
0.10822753906279999,-0.38745117187,0.62548828125,0.11140271870553355,0.7505041503868,0.31164550781,1.12292480468,0.06611965059492556,-0.3219616699214001,-0.94091796875,0.4833984375,0.21496560853176805,1.0274620254124998,0.79968030658,1.25259819016,0.01163018307805606,971.0511174068772,970.90132030509,971.17853080865,0.007140189689066661,-0.0011893522615574943,Lift Up
-0.7422973632776998,-1.26611328125,-0.00988769531,0.08107274213846609,0.6399072265588001,-0.05017089843,0.86401367187,0.03955949173989765,0.105325927734,-0.39111328125,0.59362792968,0.08644816280850667,1.0667651360799,0.71176421128,1.42298031383,0.038991840758591176,971.023267303291,970.93494819667,971.19489217584,0.003216915668359287,0.0008769420384184966,Lift Up
-0.08159179687459998,-1.11547851562,0.66125488281,0.4573688055488818,-0.15781738281269997,-0.85546875,1.58288574218,0.745846187435042,-0.3104858398402,-0.61596679687,-0.0400390625,0.019307804077285357,1.102172597948,0.25683144104,1.86830336454,0.12472539171997551,971.0082439436432,970.95643899622,971.21187478301,0.0026579473475684175,-0.000277774726513821,Lift Up
0.5223266601520998,0.36376953125,0.74450683593,0.01454142232735087,-0.7280310058556,-0.89807128906,-0.54638671875,0.016217994706556892,-0.43368041991689993,-0.68920898437,-0.08337402343,0.025892559113905797,1.0226803733587004,0.95866924165,1.09645755654,0.0011548508568796074,970.989391342043,970.87106768709,971.15923310607,0.005887206965853162,-0.0006616124557769361,Lift Up
0.11075561523250002,-1.20727539062,0.73999023437,0.6287040736571825,-0.09464843749880002,-0.556640625,0.82458496093,0.22976159071356583,-0.37932861327800005,-0.70068359375,0.4287109375,0.10881446209112766,1.0395725104454,0.35253929497,1.43319228785,0.04243601070985568,971.0046210896594,970.8301343175,971.13677352261,0.0051382288205111025,-0.0005740375877133667,Lift Up
-0.8014318847612998,-0.9111328125,-0.72009277343,0.0014073761590967593,0.23226196288680004,0.04211425781,0.38293457031,0.011310595362718261,0.5643395996048999,0.4287109375,0.64245605468,0.002558117639807748,1.0136991014555,0.87881663395,1.08003864595,0.002278110081059654,971.0215302766884,970.96877877552,971.13677352261,0.002664943386201121,-7.91803542166935e-05,Lift Up
-0.8108789062471,-0.86486816406,-0.7734375,0.00038250891849112164,0.3406042480432,0.24938964843,0.46643066406,0.0038517773316716513,0.5353369140587,0.41906738281,0.69445800781,0.0036073665666848105,1.0331342843115001,0.98011046014,1.07063262217,0.0005234876808631044,971.03571900358,970.93754087753,971.1243986214,0.002523507641733789,-0.0005187184965217389,Lift Up
-0.8062048339804,-0.82788085937,-0.78161621093,0.00014183294140856958,0.34721801757359994,0.2939453125,0.39489746093,0.0008012559361920604,0.5181384277309999,0.47485351562,0.55078125,0.000375176046531548,1.0198909017277,1.00198122546,1.04155282193,0.0001228759635064562,971.0284750419062,971.01370028156,971.0360302732,3.848696870159532e-05,0.00017445857586594437,Lift Up
-0.7930493164028999,-0.80834960937,-0.77416992187,7.952831610918724e-05,0.3555407714805,0.32824707031,0.38806152343,0.00026410971476178616,0.5229052734343999,0.5068359375,0.56762695312,0.0002121285717968711,1.0145069044444,1.0003840037,1.04504593442,9.326584890807296e-05,971.0292506972265,971.02343691355,971.03638166105,1.407736234155624e-05,5.151131304136995e-05,Lift Up
-0.8248193359338001,-0.83898925781,-0.80187988281,8.269623070682505e-05,0.34172607421569995,0.32861328125,0.35205078125,3.75892116564987e-05,0.5658923339794998,0.53356933593,0.58386230468,0.00021373662532232678,1.0571567105817001,1.03374353853,1.07109055466,8.904192671948213e-05,971.0040015375316,970.9361334776,971.03668852938,0.0009363574619770292,-0.000989141551300554,Lift Up
-0.804866943356,-0.81909179687,-0.79431152343,2.6859856314693102e-05,0.3351599121050999,0.30786132812,0.35485839843,0.00018945687195973153,0.5163098144492,0.50354003906,0.53356933593,4.038994210502019e-05,1.013384529707,1.00451947938,1.03374353853,2.497196378916069e-05,970.8322349326367,970.73129927519,970.9361334776,0.0037533078879865506,-0.002103425341347687,Lift Up
-0.8051635742143,-0.818359375,-0.79431152343,4.095847559767413e-05,0.34843749999639984,0.32556152343,0.365234375,0.0001198077442903991,0.5082861328091999,0.49499511718,0.517578125,2.719816535955353e-05,1.0140113726269002,1.00466304856,1.02398444259,1.9077152255071927e-05,970.6223902115397,970.51926856232,970.73129927519,0.0039501040929020795,-0.0021543236632368228,Lift Up
-0.8628540039025999,-0.95324707031,-0.81701660156,0.0010376101491520705,0.28021972655840005,0.09509277343,0.35986328125,0.0052864034730693635,0.44293334960579983,0.40661621093,0.50305175781,0.0010460604606521008,1.0131054411485,0.98918456609,1.05399071317,0.0001452705617289372,970.4644179938093,970.35588259077,970.53191528785,0.001837748748896248,-0.000813427111100262,Lift Up
-0.8423144531203998,-0.94152832031,-0.78686523437,0.0018571967789467439,0.13407348632399999,0.05798339843,0.19018554687,0.0010375148886231165,0.5445495605428999,0.40576171875,0.60290527343,0.0033126236738878034,1.014727731085,0.97270904918,1.07058313526,0.00048126799507659915,970.1420961566199,970.09351267759,970.35588259077,0.002126393884158608,-0.0007516918211321991,Lift Up
-0.8020666503864998,-0.82971191406,-0.77355957031,0.0002921074493608776,0.1233178710903,0.08996582031,0.166015625,0.0004290082177735599,0.5987731933543999,0.51257324218,0.63562011718,0.0009579476006808051,1.0092409136388998,0.97882752767,1.03276400257,0.0001440373213344059,969.9778179170825,969.86468380152,970.10088732911,0.005423358270105285,-0.0024866430979811824,Lift Up
-0.7973767089799,-0.82116699218,-0.78173828125,7.992407739269259e-05,0.124780273433,0.10131835937,0.14477539062,0.0001638284837416894,0.609562988277,0.59484863281,0.62048339843,3.209421729504087e-05,1.0115122046621001,0.996212739,1.02297332662,6.355300191342064e-05,969.7577252011333,969.64621166778,969.86468380152,0.004321255631947002,-0.0022599230976857944,Lift Up
-0.7947424316366,-0.82116699218,-0.78637695312,7.234994059477345e-05,0.1113500976527,0.07983398437,0.13452148437,0.0002996772166507795,0.6117004394497001,0.58447265625,0.62426757812,0.00016068550518719124,1.0092901238282002,0.98869162923,1.02703091169,5.316767204695273e-05,969.5519452331723,969.44412678292,969.64621166778,0.003497118587133941,-0.0020301361001358992,Lift Up
-0.7890869140581998,-0.79760742187,-0.77807617187,2.23246487774128e-05,0.09108642577779998,0.07983398437,0.10070800781,2.601603666155168e-05,0.6175292968710999,0.61022949218,0.63012695312,3.092276930433979e-05,1.0061542949057,0.99681139506,1.02045647889,2.9629352591952634e-05,969.3352424505008,969.21303319318,969.44412678292,0.004086327599287052,-0.002188136085213652,Lift Up
-0.7700830078090999,-0.79321289062,-0.75170898437,0.00010969857978170818,0.08057373046489999,0.05969238281,0.09594726562,8.611541203914596e-05,0.5939184570278999,0.56665039062,0.63439941406,0.0004795822169931024,0.9759499825636,0.94499931191,1.01711850027,0.0004539114513268959,969.1192904631451,969.03368533869,969.21303319318,0.0032627152551659056,-0.001960045962909222,Lift Up
-0.7881750488239001,-0.81127929687,-0.76513671875,0.00014455235816779392,0.07596435546479999,0.05041503906,0.10339355468,0.00026565173056080146,0.6041259765577999,0.55932617187,0.63537597656,0.0005338468936807776,0.9961978839211,0.95010442191,1.02212133296,0.0004879525140145105,969.004520797518,968.99440893959,969.03368533869,8.902059843776891e-05,-0.0002644199063412038,Lift Up
-0.7940966796840999,-0.80187988281,-0.78576660156,1.793651869559018e-05,0.07095336913699998,0.06103515625,0.08935546875,5.4144911988217904e-05,0.611052246089,0.59460449218,0.625,6.778331115688192e-05,1.0045361178914,0.98957495016,1.0171929434,5.496835552166156e-05,968.9924627373193,968.98665846751,969.00005003485,1.3870504601448089e-05,-7.910004975670138e-05,Lift Up
-0.7907604980426001,-0.79748535156,-0.77966308593,1.9094587279037226e-05,0.07852294921380001,0.06481933593,0.09753417968,5.3302392819916554e-05,0.6178735351519999,0.60729980468,0.626953125,1.654624337634709e-05,1.0066310449673,0.99785364299,1.01755912455,1.789632393320709e-05,968.9877607106869,968.98024437015,968.99269544168,1.2061019084528483e-05,6.702716887962019e-05,Lift Up
-0.8382360839804999,-1.01733398437,-0.65490722656,0.008058116608950056,0.31926757812209994,0.06481933593,0.74987792968,0.034376425670805934,0.2273168945307,-0.30224609375,0.63000488281,0.138951875457398,1.0156426907462,0.8851480731,1.13345898563,0.004330270462080509,968.9730011466892,968.86764164606,969.19605272507,0.008795289588569004,-0.0015093965422976817,Null
-1.1648339843717999,-1.59924316406,-0.71166992187,0.04917303687409672,0.42295898437199986,-0.13305664062,0.87866210937,0.08787630341179745,-0.05440551757760001,-0.35668945312,0.14465332031,0.020446852208546674,1.2877659829072,0.91675127336,1.67001373752,0.03663886645127213,968.9870910229063,968.93269652277,969.06878802488,0.0012838450655074957,0.0005026024998208078,Null
-1.2615441894492998,-1.62231445312,-0.81823730468,0.04734924714237214,0.34997924804350006,-0.18078613281,0.82287597656,0.09291932542241257,-0.0623388671851,-0.28588867187,0.10986328125,0.011728588041016681,1.3475455299446002,0.81875743607,1.67143150044,0.052993519272907984,968.9624269815322,968.90912881912,969.00932072701,0.0010010218969923952,0.00040641279761542324,Null
-0.9189855956982999,-1.61389160156,-0.55676269531,0.05511662425861208,0.38456298827839985,0.03369140625,0.9599609375,0.05515699381196102,0.3063903808564,-0.24060058593,0.65612792968,0.07589979074565688,1.1107014983924,0.85165867568,1.64626994608,0.03732539266170869,968.9992186673672,968.79211607726,969.24556851491,0.015007859323756268,-0.0014945232297788658,Null
-0.7534020996058,-0.80310058593,-0.734375,0.00033859853042420224,0.2314099121058,0.18872070312,0.34497070312,0.0008480107227624476,0.6487951660115999,0.62036132812,0.68273925781,0.0001485842210413745,1.02121911469,0.99335835674,1.07876082344,0.0005391918036565957,968.9455038556653,968.88628065866,968.98034102181,0.0010884440319792886,0.0010728714756218852,Null
-0.7445117187450999,-0.75915527343,-0.73059082031,5.268084882448656e-05,0.22898193358990004,0.21374511718,0.24719238281,8.78772290030048e-05,0.6442614746048999,0.63366699218,0.66088867187,7.280926964197817e-05,1.0109432183466,1.00464396701,1.01550201991,8.399876144174938e-06,968.9746428597189,968.971000056,968.98088549753,5.991931039003542e-06,-2.382262453795829e-05,Null
-0.7338085937459999,-0.79797363281,-0.67004394531,0.000982662499622184,0.24450195312119993,0.20874023437,0.32788085937,0.0009481707968189583,0.6556140136673999,0.58239746093,0.70776367187,0.0009185395743626899,1.0152621413051999,0.99396563565,1.04511067476,0.00015116750626404838,968.9805420873432,968.97109641019,968.9910608467,3.8419557955836026e-05,7.960327814394191e-05,Null
-0.9925500488250001,-1.62731933593,-0.599609375,0.12132133782903601,0.2507983398407,-0.25085449218,0.77722167968,0.050724500182281904,0.28304077148170004,-0.41015625,0.79443359375,0.1538852345010436,1.1760069115331,0.78963156282,1.67242979488,0.06853231396582735,968.962941204914,968.77946069842,969.17921864879,0.009471126204041495,-0.0016395734173672235,Null
-1.2366967773403998,-1.79553222656,-0.69799804687,0.10908189626054485,0.33465454101309994,-0.33166503906,0.87158203125,0.07349767753955724,-0.1202404785138,-0.56628417968,0.34375,0.06208964865925641,1.3426503313585005,0.76936242628,1.83131233132,0.09634643587376963,968.9741363825481,968.92592107621,969.05242681378,0.0009626260393910999,0.000408446274560212,Null
-1.2596618652299998,-1.68273925781,-0.97583007812,0.04911492731142867,0.32256835937180006,-0.21887207031,0.791015625,0.09155759079185279,0.020068359375000004,-0.11193847656,0.18090820312,0.005935646668398498,1.3397542275920002,0.99479456679,1.71175799444,0.04181999293472531,968.9676409169155,968.92309128022,969.02020646765,0.0007508806527768,0.0002337353821636176,Null
-1.3404760742143997,-1.79174804687,-1.05334472656,0.049920333870330735,0.3559204101535,-0.3154296875,0.88256835937,0.12760145360051509,0.0771704101536,-0.05395507812,0.21911621093,0.004302676392072844,1.4412938957178998,1.08486133877,1.79546302798,0.03251398131552951,968.9678437702576,968.91471694593,969.02380016046,0.0011291147454064274,-0.00011108000467686636,Stairs Down
-1.2794482421831,-1.96069335937,-0.76538085937,0.12650964209534654,0.2958203124985,-0.48803710937,0.97131347656,0.15480100311139428,0.012092285155799999,-0.28955078125,0.30493164062,0.022541674645660467,1.3778743406609997,0.76789442733,2.04833011374,0.12820180108676926,968.9737037882339,968.91318801006,969.09564665198,0.001757792117376085,-0.00016927495000080558,Stairs Down
-1.1195397949177999,-2.03393554687,-0.68676757812,0.10176909748182475,0.4436962890592,0.01489257812,1.20690917968,0.10157224057893093,-0.1012048339827,-0.43811035156,0.1630859375,0.022305714136558855,1.2362922338176,0.74063544366,2.37028347857,0.15702046669563238,969.0339821709296,968.9942764118,969.06985911205,0.0006033056742714985,0.0004992186183618135,Stairs Down
0.03233520507829999,-1.91333007812,0.7021484375,0.35390709803659787,0.23749633789070004,-0.74853515625,1.30688476562,0.3673656529376738,-0.4534606933549,-0.89624023437,-0.00280761718,0.05817767085940574,0.9636947908396,0.42078985951,2.23976116952,0.10709590317089322,969.082988624126,968.98650875063,969.27220113896,0.007423777853946724,0.0013696686444111168,Stairs Down
-0.45441284179399993,-0.86743164062,-0.12390136718,0.032314452069967414,0.9305078124967,0.65966796875,1.25769042968,0.03348325240452628,0.1860156249968,-0.443359375,0.51672363281,0.06113843265065687,1.0856832402518,0.69849299481,1.61232400809,0.054440717413041496,969.1051378678245,968.9687506011,969.2749153309,0.007638580045874932,0.0007079098163106169,Stairs Down
-0.46720703124640006,-0.70263671875,-0.34912109375,0.008618000637350407,0.8894299316368,0.73950195312,1.19763183593,0.013893934902040838,0.17433349608999996,-0.02075195312,0.435546875,0.017689518560967815,1.0279699771747,0.85797219657,1.39495062198,0.02306802705523087,969.2340212605725,969.14148379388,969.30426448194,0.001926452325714794,0.0009886465174159752,Stairs Down
-0.5251196289028999,-0.71252441406,-0.35522460937,0.012449011531876567,0.8993676757782001,0.76245117187,1.16027832031,0.011589141439861731,0.21646972655869995,-0.00061035156,0.44616699218,0.018160129098902175,1.0738660933837998,0.87746346625,1.38432336155,0.020262521353326755,969.3305896026587,969.24936788441,969.40933773,0.0020296994971199097,0.0013367723456472308,Stairs Down
-0.47954345702780005,-0.67211914062,-0.27856445312,0.015444495816452868,0.8461145019499997,0.58410644531,1.27990722656,0.0270337660068584,0.22940673827760003,0.00866699218,0.41796875,0.016384502101722924,1.0098046874293,0.64759133753,1.48939513527,0.037442180493070576,969.3482675711505,969.30279430759,969.42238810359,0.0011462224758654173,0.0008428633840116978,Stairs Down
-0.6279443359345,-0.85607910156,-0.30041503906,0.018664806563653085,0.7777221679649,0.53625488281,1.13134765625,0.028120948660197796,0.2882177734326,0.04577636718,0.51245117187,0.012397681727557262,1.0583796024791001,0.82743083902,1.46030765868,0.02086824660274915,969.4273048034145,969.37312036738,969.47180403609,0.0006623722916026334,0.0006053859760368589,Stairs Down
-0.6131848144491999,-0.83532714843,-0.39685058593,0.014421576290171031,0.7553442382761999,0.60705566406,0.92346191406,0.008092988494777876,0.32789794921599996,0.07543945312,0.49072265625,0.01207780989147458,1.0382108499050002,0.87561460605,1.26975556372,0.010527557717787362,969.4517517884743,969.4047572737,969.5568738156,0.0010084886162933173,0.0002791151917402809,Stairs Down
-0.5863696289022999,-0.76147460937,-0.408203125,0.010008165156040845,0.7290124511682998,0.58154296875,0.86779785156,0.004404727333290911,0.40201660155869995,0.20373535156,0.59008789062,0.010064672002779716,1.0249779405828001,0.8473530416,1.1920157015,0.01066550884448104,969.4710790691522,969.39752712878,969.66825045191,0.005013375672683786,0.0013392551963162113,Stairs Down
-0.5972021484333999,-0.958984375,-0.22619628906,0.025182655989835673,0.7849133300740999,0.65319824218,1.01525878906,0.009513812683703153,0.30604003905819993,0.11242675781,0.48803710937,0.010851210921851973,1.0444734412498002,0.78980427048,1.38576105385,0.020775030963042587,969.4545533951,969.37756178726,969.56510162998,0.0018107526282870336,-0.0002494400795606176,Stairs Down
-0.9579980468708998,-1.30627441406,-0.22619628906,0.07828851591456512,0.6541943359336,0.17993164062,1.16564941406,0.08273971885136101,0.0070019531254,-0.26586914062,0.43811035156,0.03817074031427416,1.226022192192,0.8139208328,1.47004580151,0.03407988290061271,969.4247771687089,969.37020050419,969.50835274594,0.0015477114834566144,0.0004719449444526935,Stairs Down
-1.0770019531208,-1.61535644531,-0.63073730468,0.08711848475749834,0.3533984374963998,-0.05603027343,0.65600585937,0.046025211738811855,-0.09315429687320002,-0.40808105468,0.11364746093,0.02285877661198109,1.1680149423836,0.65623299258,1.68921987433,0.084530230727259,969.4496367436446,969.38911031563,969.51955221377,0.0010146133922981973,0.0003203464124373944,Stairs Down
-1.0479931640592002,-1.45886230468,-0.67736816406,0.03983753339156835,0.34049804687199997,0.04516601562,0.51794433593,0.020062947369688083,-0.1497412109352,-0.45837402343,0.17138671875,0.023811728929684566,1.1331108130307999,0.78371689419,1.50773963356,0.035945449574111596,969.5111188679496,969.4808800528,969.54633747513,0.00034157727045466775,0.000282162762475994,Stairs Down
-1.017167968746,-1.43334960937,-0.64123535156,0.05559347239419605,0.3179785156224,-0.07116699218,0.64697265625,0.03068815857456718,-0.1292041015596,-0.40515136718,0.0849609375,0.014521873454360982,1.0896566969612,0.6624378526,1.57585069392,0.06553380307656312,969.5428097803311,969.49797112596,969.61535296998,0.0009154988808912829,0.0007676670092173142,Stairs Down
-0.7741101074191,-1.32409667968,0.62841796875,0.27565108389864545,0.40383544921500003,-0.54614257812,1.19873046875,0.1519717247729714,-0.13799804687290002,-0.47277832031,0.14025878906,0.02849478296485385,1.0766849259745,0.33533130333,1.47660671147,0.07442320736333119,969.6051400924496,969.56707288907,969.69740677558,0.0013326538456994242,0.00035416305371167666,Stairs Down
0.4982739257773999,0.30358886718,0.96655273437,0.022016647795309815,-0.5747314453094999,-0.9638671875,-0.23376464843,0.04134668665698087,-0.6064660644485999,-0.83276367187,-0.34313964843,0.01803411800876051,0.9871485124881002,0.64867420931,1.38028964277,0.05304597868352495,969.6376313812191,969.594197608,969.73207015621,0.0017178036141938162,0.0006112044295386705,Stairs Down
0.6795422363240999,0.45373535156,1.0556640625,0.028756043734942477,0.5525732421833,-0.57189941406,1.3046875,0.10457196466766619,-0.35177612304379996,-0.80017089843,0.09033203125,0.0467669817453406,1.0168742792385,0.71348236816,1.39720692115,0.035476788021990675,969.6853259865708,969.61142787655,969.73207015621,0.0006063769613750809,0.00011125839598429284,Stairs Down
-0.2865734863273,-1.14221191406,0.64184570312,0.29617083219612583,0.5877331542920998,0.15759277343,0.89709472656,0.040840948258802655,-0.46940917968430007,-0.95922851562,0.06201171875,0.08533009555587029,1.0156771054907,0.66988786438,1.26128097592,0.030541267109703497,969.7839123286234,969.6899476415,969.9821358609,0.005630728211302994,-0.0015957160457457512,Stairs Down
-1.0712841796832,-1.50769042968,-0.7294921875,0.049125932057787966,0.2687255859344,-0.11633300781,0.60339355468,0.03591003682818377,-0.26893554687159993,-0.51745605468,-0.02575683593,0.014214905006662603,1.159864999964,0.79236137919,1.56887859619,0.04561728238425911,969.8645285363148,969.75905369116,969.97971296152,0.002811017795475389,0.0012502048310808784,Stairs Down
-1.1049951171840002,-1.32678222656,-0.91076660156,0.012140337048292081,0.3016503906212,0.0087890625,0.61376953125,0.037530191402336814,-0.20222656249759996,-0.29406738281,-0.06762695312,0.00459981431868599,1.1793876130371999,0.9276394926,1.38358066796,0.01583358312792921,969.8467379724493,969.80601104318,969.94218275653,0.0008697570574614707,0.00046898502435729266,Stairs Down
-1.079453124996,-1.24890136718,-0.97717285156,0.005095998831457894,0.31684570312080007,-0.07385253906,0.64416503906,0.04589362939155058,-0.19406738280920002,-0.27233886718,-0.08825683593,0.0017675329940466042,1.160569966014,1.00916733716,1.33487072676,0.008666001324270929,969.8780083762801,969.84805263881,969.91239989894,0.00020778504252505926,0.0003840159356172756,Stairs Down
-1.0752197265571999,-1.22009277343,-0.935546875,0.006390912364086731,0.3193017578091999,-0.08459472656,0.67761230468,0.05158278137625621,-0.20418945312200001,-0.29833984375,-0.05078125,0.004155210196320595,1.1617272885452,0.95076634968,1.31762762601,0.01175932084497805,969.88614420132,969.86447378767,969.91239989894,0.00016243428625030364,-3.235372420732877e-05,Stairs Down
-1.072827148434,-1.25036621093,-0.89770507812,0.009833865695496762,0.32024902343360007,-0.03759765625,0.60974121093,0.04293304515576812,-0.21251464843280002,-0.30383300781,-0.00170898437,0.005763696805468409,1.1583659715992,0.9278431156,1.35178534374,0.014963212773885388,969.8914220871136,969.85368008072,969.94021707855,0.0006519374553982861,-1.355952142464908e-05,Stairs Down
-1.0934033203088,-1.48107910156,-0.78820800781,0.03385877329900331,0.30595703124759993,-0.27917480468,0.63171386718,0.07059265507496128,-0.11774902343519997,-0.28540039062,0.11706542968,0.013059199457893063,1.1756778568140003,0.79253697032,1.5097681418,0.0374974312157353,969.8981461291842,969.8314043827,970.12244748801,0.005040593219446294,0.00014088186759095693,Stairs Down
-0.9853320312464,-1.32958984375,-0.68420410156,0.03276946530195126,0.3233691406216,0.18933105468,0.52111816406,0.008446012458513785,-0.20680664062160006,-0.51611328125,0.02575683593,0.019952884442737864,1.0716447523944002,0.76170667981,1.36647255869,0.030656568444887195,969.9544420163345,969.89207051075,970.01823131177,0.0014588909049326614,0.0010711130508982728,Stairs Down
-1.0553173828079998,-1.38195800781,-0.71643066406,0.02993411569889117,0.3440429687451999,0.04577636718,0.65551757812,0.03438065148363242,-0.19422363280760002,-0.39147949218,-0.05017089843,0.004756511967584461,1.1452221958932,0.90891586557,1.4619811558,0.026898839129797902,970.0131908093259,969.97474732638,970.06438887186,0.00032864721651873924,0.00027413389831739874,Stairs Down
-1.039741210934,-1.36682128906,-0.66906738281,0.04157160156910701,0.266494140622,-0.25842285156,0.62756347656,0.041354130397589846,-0.20065917968399993,-0.43139648437,0.05505371093,0.017825161567725373,1.12010333718,0.7586380208,1.40413592162,0.03783527043233205,970.0768883937244,970.01599090922,970.13274016397,0.0011737546733791954,0.0009463086886439307,Stairs Down
-0.9549462890584001,-1.38366699218,-0.67456054687,0.0438232758068825,0.40434570312039997,0.17370605468,0.65161132812,0.014894846713870499,-0.19438476562239998,-0.52807617187,0.05163574218,0.02302275281919049,1.0734580211055997,0.75518052718,1.45887375479,0.042237013371240494,970.1583194035126,970.09636417527,970.25748587313,0.0013764409825460825,0.0010899535765511016,Stairs Down
-1.003476562496,-1.4443359375,-0.71496582031,0.0501182610581641,0.3257080078095999,0.18139648437,0.58898925781,0.008715435711908387,-0.16689941406080003,-0.53039550781,0.16186523437,0.044900857172994635,1.0906475306588002,0.77980492458,1.5217538284,0.05463788334890392,970.2374216819712,970.18640738487,970.29250885901,0.0011511271994825531,0.0004980453601730438,Stairs Down
-1.0003466796832001,-1.34558105468,-0.78210449218,0.029298902377017075,0.35789062499599994,0.1904296875,0.59558105468,0.010998236627073561,-0.26544921874680005,-0.62365722656,0.03833007812,0.038305781200466134,1.118402268342,0.88989451215,1.38554901432,0.026500731230225918,970.3052598446958,970.24096987575,970.37952829911,0.0015125562573194246,0.000573564261652118,Stairs Down
-0.9651513671832,-1.36486816406,-0.67663574218,0.02671996887294717,0.31944335937199997,0.21032714843,0.435546875,0.0037157467159558088,-0.23588867187080007,-0.39489746093,-0.01879882812,0.010299524875485116,1.0520340733167997,0.82981194211,1.42854464039,0.022986751090350113,970.3540638613238,970.32801095222,970.39324179947,0.00036978741247673414,7.584729407409001e-05,Stairs Down
-0.9721435546832001,-1.39624023437,-0.72338867187,0.03717013561363919,0.28357910155839994,0.12756347656,0.51574707031,0.007646053632263067,-0.3348925781212,-0.71728515625,-0.01611328125,0.03836881521993379,1.0854656045063997,0.80630561947,1.52460012821,0.04217253787083798,970.4055785158573,970.35682311425,970.49544296163,0.0010259861554738005,0.00038903208456705625,Stairs Down
-1.189511718746,-1.74841308593,-0.77990722656,0.07254381748130154,0.30217285155920004,-0.15209960937,0.74841308593,0.06252541204821553,-0.1467431640604,-0.35266113281,0.06188964843,0.009615454191813559,1.2654973866844,0.80393399449,1.80481195227,0.07023668548593703,970.4449612885116,970.4024285788,970.51106037798,0.0009952566606446305,-0.00011252131038371271,Stairs Down
-1.0837255859336,-1.21838378906,-0.9013671875,0.00838981532101228,0.27136718749799993,-0.06176757812,0.58532714843,0.03164284575992793,-0.23466796874640006,-0.42041015625,-0.037109375,0.011252432158580001,1.1582608480428,0.91855925376,1.29879488221,0.012499395768650176,970.4603991014716,970.40581023897,970.57268056932,0.002028480356646206,0.00010717449076798623,Stairs Down
-1.0669482421843997,-1.25793457031,-0.86157226562,0.008540115067363447,0.1970214843732,-0.09497070312,0.52722167968,0.04119914950634727,-0.27933105468280006,-0.41259765625,-0.04614257812,0.012146111112925842,1.1409951653836,0.87987503065,1.35118019341,0.014766070115589856,970.4421002219351,970.41315103551,970.51291745793,0.0008006457988789397,-3.4715070409957564e-05,Stairs Down
-1.0618798828088,-1.28564453125,-0.84497070312,0.011645093012411891,0.2557421874960001,0.01354980468,0.52368164062,0.02873812116762833,-0.27101562499520004,-0.38037109375,-0.10717773437,0.005234471090063149,1.137524996938,0.87452069847,1.37508076734,0.017819000737910776,970.4374102089299,970.40384461239,970.51469020746,0.0008776195657460219,-0.0004153221062073729,Stairs Down
-1.0864453124964002,-1.36865234375,-0.84838867187,0.0176517562192677,0.2876318359336,-0.40283203125,0.63220214843,0.07572129702252264,-0.18817871093480001,-0.36389160156,-0.00036621093,0.009796650819146373,1.1738647394860002,0.91425711035,1.47776584435,0.02291545227264659,970.4544011394299,970.42253679775,970.5269198535,0.0007278233908495093,0.00015802780058283655,Stairs Down
-0.9652294921832,-1.32482910156,-0.701171875,0.023820865852506114,0.2844335937464,0.048828125,0.50524902343,0.01220414966047284,-0.25949707030880004,-0.59899902343,0.05249023437,0.028094113474784705,1.0572555052160002,0.8004694634,1.45788661097,0.02585647042589192,970.4774768987975,970.40839991699,970.56676635327,0.001292109358344918,0.00031100271499534993,Stairs Down
-1.0329199218715999,-1.35095214843,-0.73425292968,0.023249981041987482,0.3019042968716,-0.216796875,0.61267089843,0.04649530516682447,-0.2402783203088,-0.52600097656,0.02685546875,0.01974105459223333,1.1327775246356,0.87707907742,1.42772599934,0.021424240155055518,970.5718945436445,970.50838403891,970.67530062826,0.0017213438989004655,-7.511590576861426e-05,Stairs Down
-0.9910449218720001,-1.38244628906,-0.73486328125,0.03515161514278899,0.2740429687464,0.14501953125,0.36022949218,0.0030122519501355246,-0.2311425781216,-0.49279785156,-0.05041503906,0.014785318808296064,1.0626221398484,0.83352506438,1.43234333002,0.03429329217475766,970.6203428265627,970.55664096534,970.71335420234,0.0020043354419990176,0.0011453986294356552,Stairs Down
-0.9769433593704001,-1.42077636718,-0.66748046875,0.05745455149430408,0.2964208984336,0.20178222656,0.53234863281,0.005842632139645329,-0.15235839843439997,-0.45568847656,0.05834960937,0.01645157953658281,1.0438650805780003,0.72113980138,1.45036187034,0.0553471991017927,970.681439757372,970.62026978154,970.81225621625,0.0017923490612342834,0.000852848919268122,Stairs Down
-1.0004394531211998,-1.36767578125,-0.72204589843,0.043924508673198914,0.3262890624971999,0.26928710937,0.51342773437,0.002548895074804709,-0.1917529296856,-0.453125,0.10998535156,0.025515112828462375,1.0832998488476,0.80030281847,1.40957841631,0.042265562228017264,970.7894917001747,970.72577957211,970.94850952346,0.002987314529493035,0.0003740564582142153,Stairs Down
-1.0035839843712,-1.33557128906,-0.73815917968,0.037463159127866415,0.28122070312159997,0.17578125,0.376953125,0.003150830702331514,-0.18353027343400005,-0.42663574218,0.041015625,0.0182612413345434,1.0680813447107997,0.77900511555,1.40625534586,0.03781614015305556,970.840796649588,970.73117457725,970.96142007854,0.004001487929052598,0.0011381414788583233,Stairs Down
-0.9870068359336,-1.31652832031,-0.75598144531,0.02599062953326908,0.2835986328084,0.15515136718,0.44311523437,0.006872480902915602,-0.22465332030920002,-0.53295898437,-0.02172851562,0.016036776436671424,1.0625390518052,0.83267983602,1.40900043555,0.024748933769515362,970.9169559694787,970.87100284743,970.98353961577,0.0013137046136534529,0.0005385711123742005,Stairs Down
-0.9645605468707998,-1.30725097656,-0.72998046875,0.0340096116303644,0.2597607421844,0.17236328125,0.39770507812,0.003822110493936181,-0.22620605468360006,-0.54028320312,0.00732421875,0.022508059992787273,1.0361018178324004,0.77474760591,1.40681029389,0.03560735183609764,970.9572241317228,970.91560853363,971.05591692663,0.000918108877240273,0.0005849673721778571,Null
-1.0942431640583998,-1.54370117187,-0.60437011718,0.06109809451682086,0.2814843749972,-0.09338378906,0.67114257812,0.037651029403181185,-0.14872558593600002,-0.49658203125,0.12768554687,0.030095255590885425,1.1697204919724,0.65638278571,1.58674330981,0.05861693105431726,971.0308851699259,970.97577611695,971.14787054253,0.001970473363546723,0.0008890412948164699,Null
-1.0854736328092,-1.3251953125,-0.76208496093,0.020539689545908808,0.33155761718399995,-0.03576660156,0.564453125,0.03576996388985597,-0.1530273437468,-0.50732421875,0.10290527343,0.02234994763014602,1.1686177084276,0.77234018879,1.43882038283,0.0240469551248842,971.0485469820278,970.99659286783,971.15110379759,0.0009951655143050305,0.00017022896284705298,Null
-0.8712255859336001,-1.16967773437,0.27282714843,0.1121508159050231,0.4463183593711999,0.07580566406,1.03015136718,0.06345780122116022,-0.18726562499599997,-0.35192871093,-0.00805664062,0.01064389874239956,1.0682617132748002,0.65336559691,1.50300472535,0.0368781984499917,971.0462995092414,970.97052653114,971.10227813771,0.0016236591744348868,-0.0009157281821734612,Null
0.8186035156211999,0.48083496093,0.98681640625,0.02874096716320308,0.3113085937467999,0.17626953125,0.55383300781,0.0091562057745396,-0.4015136718715999,-0.64770507812,-0.22302246093,0.022011282468170742,0.9922401235672001,0.85103231951,1.05909261878,0.0030372657201859343,971.0140844651271,970.99305077042,971.03897337833,0.00018488215021266924,0.00020058468124884425,Null
0.11348876953059993,-1.34533691406,0.89343261718,0.6827137944318349,0.5349414062464,0.25561523437,1.01647949218,0.055467785344321646,-0.15313354491939998,-0.46081542968,0.314453125,0.051413838144323744,1.0342601654681998,0.6654608645,1.46449362575,0.034845722599605625,971.021119036181,970.97059951286,971.10625059107,0.0016394545015776933,0.00047324595020592687,Null
-1.2108837890575999,-1.58764648437,-0.85266113281,0.038954533808184845,0.29920410156000005,-0.18920898437,0.7451171875,0.06039194256292045,-0.0468359375,-0.27001953125,0.08483886718,0.00889165921599567,1.2765541356551997,0.90626369663,1.64047724194,0.035880346472996975,971.0456212848673,971.00460185106,971.12158532557,0.0010552933358619206,-8.824522194796265e-05,Stairs Up
-1.4029150390584,-2.23303222656,-0.66247558593,0.13666058636658573,0.3939208984359999,-0.50720214843,1.205078125,0.2512525873931925,0.16216308593559997,-0.28430175781,0.48913574218,0.029985513445586087,1.5777100020683996,1.00538604117,2.25386948448,0.0749414112976548,971.007880762047,970.89895309445,971.31500988215,0.007797886052891684,-0.0014555103005328808,Stairs Up
-1.0602832031208,-1.32958984375,-0.67663574218,0.029348086444156287,0.46125976562079984,0.0546875,0.84594726562,0.031678576517621945,-0.08228027343639999,-0.46984863281,0.28283691406,0.05302349061520605,1.1924646568736,0.75252978519,1.60107234339,0.03501896944413098,970.9454857589907,970.82402668341,971.17705466513,0.009461688516134142,-0.0018881230875570994,Stairs Up
-0.9291748046840002,-1.3203125,-0.52770996093,0.04696052363418825,0.3897998046835999,0.20166015625,0.70361328125,0.03052976791341514,-0.17174316406079998,-0.4716796875,0.26049804687,0.043728222653282876,1.0709294290304,0.88488210454,1.37007207925,0.01810293625045495,970.887203990274,970.85478112509,970.97524834672,0.0012889293486500091,-0.0002762767098986927,Stairs Up
-0.9287499999968,-1.09411621093,-0.74572753906,0.009696464008707415,0.43738281249679983,0.32666015625,0.58508300781,0.006749882216337111,-0.22658203124680004,-0.34741210937,-0.05017089843,0.007543623664238357,1.0612899788192005,0.96114639399,1.1483588808,0.002659954640164673,970.8376626603858,970.75259295601,970.89070223354,0.001216433472061322,-0.0009138991435091968,Stairs Up
-0.9385058593708,-1.20788574218,-0.56420898437,0.03422697780088024,0.49875488280839986,0.34240722656,0.70568847656,0.009649525989299187,-0.11685058593600002,-0.53686523437,0.22326660156,0.029969591419230255,1.0929046678684,0.72980915215,1.37496954168,0.0220916786275578,970.8019275189837,970.69610157458,971.0875986088,0.006827308264338337,0.00017763187008731373,Stairs Up
-0.8336181640579998,-1.14819335937,-0.51843261718,0.026758090414271084,0.5630908203080001,0.28234863281,0.88610839843,0.02318373554885487,-0.098632812498,-0.54650878906,0.119140625,0.025942574847123118,1.0336534464608,0.64531067623,1.33286993969,0.028691976249566063,970.6803649575074,970.51179012198,970.92090007367,0.010076930917000484,-0.0023470094703931985,Stairs Up
-0.9783984374956001,-1.22082519531,-0.75219726562,0.01609727045525605,0.4447509765583999,0.01501464843,0.81372070312,0.03794238904506371,-0.14820800781120003,-0.64038085937,0.12561035156,0.03484742487245151,1.1191897794111998,0.93756222518,1.42946863844,0.012570705470983051,970.5842590139644,970.50615364043,970.68817044188,0.0023997946331154652,-0.000148373763985199,Stairs Up
-0.6280175781224002,-1.20129394531,0.82104492187,0.4569675603508383,0.48144042968480005,-0.06750488281,1.05432128906,0.09011673142143231,-0.1631982421848,-0.35485839843,0.04138183593,0.013305066715288376,1.0852897357439997,0.60421892192,1.42389419255,0.03005685496012519,970.6138562383823,970.52039777655,970.76459126886,0.004442411895853096,0.000511992370272642,Null
0.8533740234344,0.56567382812,1.2841796875,0.04048274223270574,0.49992675780839996,0.26196289062,0.74816894531,0.020308419911510233,0.1331249999972,-0.12390136718,0.39111328125,0.019088532081058405,1.0147793219836003,0.62349951156,1.42159090767,0.04565664406815955,970.4961517122173,970.39938643628,970.63943951467,0.002909073077401346,-0.0007443171563202628,Null
-0.4036035156219998,-0.68823242187,0.21142578125,0.0495443099913222,0.8963574218716,0.57141113281,1.09619140625,0.018530476550936505,0.056132812498799985,-0.46704101562,0.46862792968,0.05007898046359338,1.031986422204,0.74731172139,1.2409275851,0.021696537303558687,970.4781280608976,970.33943849792,970.67457911401,0.007143754035256118,0.001485756658643147,Null
-0.5050659179653,-0.62268066406,-0.35473632812,0.00493058456933736,0.8292712402312997,0.71948242187,1.09033203125,0.007288853596905726,0.2565417480436,-0.00988769531,0.49792480468,0.03525040339165276,1.0230298412656003,0.8521162385,1.27037574849,0.009092047348587614,970.4479971727186,970.33886168543,970.63442696605,0.007438224222763451,-0.0010941073023060226,Null
-0.6285742187460001,-0.77185058593,-0.48510742187,0.009302224197555345,0.6113037109339999,0.50048828125,0.74633789062,0.004232761835789265,0.4734765624971998,0.25158691406,0.67102050781,0.019383420269831718,1.0123295863692001,0.96501774319,1.06018411463,0.0007634964775014015,970.5041155658774,970.41062972587,970.62186792088,0.0026249384249255217,0.00029938091874255146,Null
-0.5914208984336001,-0.6875,-0.46911621093,0.0042716817663636325,0.7130664062459999,0.66296386718,0.75927734375,0.0006155547228964103,0.4134716796839999,0.24755859375,0.5126953125,0.007586932760229754,1.0204778541524002,0.99893930925,1.05071052681,0.000177359055329273,970.4658439369942,970.42610240105,970.48736169996,0.00031854139931993295,0.0003893283484219255,Null
-0.5851806640579998,-0.69311523437,-0.50720214843,0.004019603584756033,0.7115869140591999,0.65112304687,0.76086425781,0.0008301864007947284,0.44285156249719987,0.32824707031,0.50109863281,0.0030056354735713228,1.0259513535364002,1.00910793999,1.048680478,0.00011166023961083859,970.5026071625771,970.48003828514,970.52046778336,8.066429083257317e-05,-2.1065013105691234e-05,Null
-0.6149902343724,-0.67529296875,-0.5751953125,0.0007845235593419296,0.7178076171843998,0.67761230468,0.73864746093,0.00015732678500886998,0.389589843746,0.28210449218,0.43518066406,0.0017118058059549305,1.0236068243723997,0.99302482566,1.04025409606,9.818050301107367e-05,970.4923153786007,970.47770552352,970.50020393849,3.4240555387988695e-05,7.969857298173924e-05,Null
-0.6221533203087999,-0.74816894531,-0.58703613281,0.0023241099926629124,0.7003124999963998,0.56994628906,0.73937988281,0.0019053009783836302,0.3947265624967999,0.18920898437,0.47033691406,0.004890782664555423,1.0208194528508,0.96216871115,1.05024900747,0.0002808557012090264,970.4965258120989,970.4654304307,970.51171337588,0.00012701369539155213,-0.00024795776414722676,Null
-0.553496093746,-1.21350097656,-0.12097167968,0.05475737143078698,0.7590527343712,0.43310546875,1.00830078125,0.019704773787215694,0.3245556640600001,-0.05554199218,0.53125,0.029378047230011486,1.0370139528324003,0.69689368364,1.34240110471,0.01541334401811169,970.5121231418484,970.37136429308,970.6172404225,0.0042162273820252815,0.00017901854547120458,Null
-1.0365478515592,-1.18334960937,-0.91418457031,0.007943159402139318,0.4259814453083999,0.20178222656,0.71997070312,0.02772927390211624,-0.044443359374000006,-0.32080078125,0.17175292968,0.016412931162282197,1.1400898831311999,0.95620095962,1.27686454229,0.009723658297930942,970.4550117861542,970.35766569644,970.55761165547,0.0020364578141431043,0.0009362695849470743,Null
-0.9793408203079998,-1.08776855468,-0.87976074218,0.003205562215924138,0.3055712890576,0.23168945312,0.40966796875,0.0020949386346227595,-0.10992675781,-0.20959472656,0.08508300781,0.005495282278772934,1.0351047378408,0.91809105565,1.16123210588,0.0038506607082668394,970.4969556420384,970.45838301513,970.5528215343,0.0006441520085674052,-0.00027137870912550605,Null
-0.8478759765588001,-1.14465332031,0.22241210937,0.11504611583578227,0.4127343749955999,0.04138183593,1.25207519531,0.09364547190032875,-0.08844726562359999,-0.36645507812,0.19921875,0.020732154845517967,1.0220347289332004,0.16350137027,1.58002563785,0.08044522498736639,970.5005617584466,970.46133576696,970.55531122185,0.0005932068761447076,0.00023143786674814396,Null
0.7765429687455998,0.62622070312,0.90197753906,0.006929820330536676,0.5124707031211999,0.25952148437,0.79760742187,0.037485691850578075,-0.319985351558,-0.48559570312,-0.16418457031,0.008912585865455491,1.0082810121096002,0.77580516313,1.09653909517,0.004242471480698074,970.4556771623124,970.42535260021,970.48560733544,0.00019401772420862668,-0.00020352200118490185,Null
0.7284619140579,0.68713378906,0.75146484375,0.0002576444847284924,0.6311071777305999,0.552734375,0.68078613281,0.0010441446710074034,-0.3359924316373,-0.4326171875,-0.25805664062,0.0016855032682366866,1.0221137102033,1.00356256413,1.0411279199,8.578489994699769e-05,970.4710807568002,970.44333150523,970.53215879222,0.0005059862332704,0.0005658595718238978,Null
-0.09291503906359998,-1.11145019531,0.73608398437,0.582619841261464,0.5894531249956,0.32189941406,1.01892089843,0.02661868899750725,-0.31067382812120004,-0.50634765625,-0.02758789062,0.019387055503224667,1.0185611201212001,0.61417321621,1.54117104311,0.03785756870446415,970.4863563806805,970.42325149512,970.58167491587,0.0021250021285097857,0.0006086065798615334,Null
-0.9408935546835998,-1.01220703125,-0.87048339843,0.0010244882468529585,0.3491992187459999,0.28918457031,0.41442871093,0.001158962201545499,-0.172490234372,-0.27075195312,0.0537109375,0.007281202836395674,1.0226618587523997,0.98340233931,1.0774571451,0.0005115009869047243,970.5161345113238,970.48459422767,970.58012930175,0.0005117517009028963,-0.00018499233852552787,Null
-0.9489257812456,-1.03356933593,-0.71105957031,0.004627391545433002,0.3928466796843999,0.287109375,0.62475585937,0.008103382707751272,-0.09052246093560003,-0.24084472656,0.04028320312,0.005233362563580845,1.038495811452,0.94758155509,1.13519701743,0.0023170838690979773,970.5283241633058,970.4829693229,970.58223280831,0.0009035960269117771,0.000740315277997941,Null
-0.4599414062459999,-0.67102050781,-0.31384277343,0.011356435255509624,0.8429931640591998,0.67236328125,0.92016601562,0.005161167395232313,0.10076660156280001,-0.30187988281,0.56823730468,0.07315066621572062,1.0081457536664002,0.90574661612,1.15904713927,0.004799197340001955,970.5245708566837,970.39919474106,970.68884892252,0.004889119383630484,-0.001324615959989278,Null
-0.7787304687451999,-1.39501953125,-0.11987304687,0.11661789980791686,0.6358154296839998,0.13903808593,0.90478515625,0.04004600072176793,0.1898876953128,-0.18920898437,0.681640625,0.058043119978508244,1.1143836615732001,0.84894340985,1.43061425965,0.01762499548420897,970.493353314825,970.39919474106,970.64502262106,0.002867154366136257,0.0005679562447070763,Null
-0.981020507808,-1.16467285156,-0.79443359375,0.004851455784772442,0.24617675781000004,-0.06225585937,0.49645996093,0.020470337096506006,-0.08277832030919999,-0.13623046875,-0.0107421875,0.001397718468098933,1.0239704247232002,0.80604210509,1.25738420361,0.007872089564394431,970.5100389562905,970.47020585122,970.534537492,0.0002612414025723832,0.0002257742420083456,Null
-0.9678124999959999,-1.07336425781,-0.88757324218,0.002274392494076503,0.3122607421844,0.14904785156,0.45764160156,0.0060208848991770555,-0.1011083984336,-0.20031738281,-0.01416015625,0.0032731324975062122,1.0263720503748,0.93342024495,1.12829204865,0.002428135853021952,970.5186207971216,970.49639163021,970.56068603206,0.00033143876519888335,-0.00021645252254815195,Null
-0.9647900390598998,-1.07495117187,-0.82678222656,0.004543275038403345,0.33788696288639997,0.19152832031,0.46472167968,0.004205445284537401,-0.12124023437150001,-0.28796386718,0.04016113281,0.0078708667946204,1.0325521489337002,0.89925363209,1.14503819301,0.0056198752620483395,970.525293465976,970.45677340616,970.58455141268,0.0012428535061723993,-0.0007394058334374365,Null
-1.0388195800737998,-1.30261230468,-0.90698242187,0.01021157295264784,0.37271606444929994,0.18676757812,0.81359863281,0.03339315884483628,-0.10183105468490002,-0.36267089843,0.11560058593,0.015491983504566067,1.1261314437662,0.9469331138,1.4257733384,0.01895623015661748,970.5145247882299,970.46716500604,970.59227778922,0.001409388482742588,6.285911222885963e-05,Null
-1.0112719726519999,-1.13488769531,-0.85961914062,0.007468597521776995,0.33710815429389995,0.16552734375,0.56567382812,0.0172982682769719,-0.12080688476270002,-0.36267089843,0.00024414062,0.005497368711107089,1.0812015649765998,0.88403274801,1.26498290834,0.011991900836473396,970.5157534605285,970.47906871664,970.60255015771,0.001002284821031824,-0.00022109391083115587,Lift Down
-0.5968908691368,-1.18591308593,-0.1005859375,0.1280916347810867,0.6698876953076999,0.26831054687,1.05798339843,0.04278430194575245,0.4013195800755999,-0.27172851562,0.89965820312,0.13046503635678094,1.1117566124489,0.88363318991,1.53503655799,0.02869741148256297,970.524422352733,970.48560889398,970.59717875511,0.001088626705485328,-0.00033798574416834875,Lift Down
-0.6171403639348514,-0.94580078125,-0.35913085937,0.018828367879939068,0.7128241510628712,0.53881835937,0.82019042968,0.0034037153496048267,0.3151782951708911,-0.08581542968,0.61486816406,0.029761269635108514,1.0174754302928715,0.87285175746,1.14282162671,0.004585574557694965,970.534288584682,970.50091177523,970.59481592456,0.0007185870866279928,0.00041682669733527386,Lift Down
-1.002464833882525,-1.08154296875,-0.84191894531,0.003234266528294299,0.297603722770707,0.14135742187,0.73010253906,0.017158411429527842,0.08721368963050505,-0.19250488281,0.70983886718,0.06873810329831277,1.0865673353559595,0.94617870935,1.28868811401,0.008800739064465636,970.5503051378488,970.50748416106,970.61432306078,0.0008290049109009568,4.197613610100923e-05,Lift Down
-0.9659912109336001,-1.06726074218,-0.90209960937,0.0016364268581690582,0.33673828124599986,0.27001953125,0.4462890625,0.0018726756837151646,0.011137695312,-0.19946289062,0.12231445312,0.007820792004999168,1.0278878034092,0.96710142482,1.12329835149,0.0013323203212375037,970.5339394355626,970.48509832915,970.56033374466,0.0005096909197366198,0.0006458730206868408,Lift Down
-0.9648254394487,-1.03149414062,-0.88488769531,0.0017633547611068036,0.28629028319929994,0.16760253906,0.369140625,0.0023082149435182282,-0.07069824218699998,-0.26342773437,0.05810546875,0.012415859048340012,1.0163371663853997,0.94590014328,1.06448689678,0.001133400800381539,970.5655401191401,970.54932632298,970.60026480668,0.00021064992278192561,0.0002540169301619592,Lift Down
-0.9762121582000001,-1.01916503906,-0.95446777343,0.00023785042491466246,0.27483154296510004,0.22570800781,0.322265625,0.0009066092787409791,-0.088408203123,-0.24572753906,0.07751464843,0.006868112303459494,1.0217547251637,1.00260622924,1.06437336334,0.0002912051500036748,970.5679715516989,970.52311351962,970.60026480668,0.00041707793363100055,0.0001910664526067444,Lift Down
-0.9715454101529,-0.98547363281,-0.96252441406,3.055716403812354e-05,0.25262329101100006,0.23583984375,0.29052734375,0.00013504440585010582,-0.12820556640279998,-0.14282226562,-0.10534667968,6.450445363193322e-05,1.0121084668938998,1.00411848504,1.02470358947,2.01359703935645e-05,970.557826113103,970.54804240988,970.56528871179,2.7428620512604172e-05,-8.748166516013213e-05,Lift Down
-0.9735766601530998,-0.97973632812,-0.96240234375,2.1457497516458168e-05,0.2644763183556,0.22570800781,0.29333496093,0.0003641419624319426,-0.09433837890170002,-0.11059570312,-0.07189941406,0.00013615939949654469,1.0134976077912998,1.00274684765,1.0250292768,3.84910813525169e-05,970.5604679008867,970.5381338073,970.56877197932,4.409804599515361e-05,-2.2276530484448037e-05,Lift Down
-0.9682348632772999,-0.98376464843,-0.91540527343,0.00020041778233375468,0.29049072265270004,0.236328125,0.42895507812,0.002055341396675809,-0.0149487304683,-0.09094238281,0.06994628906,0.0020045040289582336,1.0130205765399003,0.99520064313,1.03237820091,9.499700902358545e-05,970.542237012542,970.5214256883,970.56131699668,0.00011952630195737163,-2.842722597695421e-05,Lift Down
-0.9018859863241999,-0.99768066406,-0.83227539062,0.001398176970792589,0.36253173827759994,0.29431152343,0.41564941406,0.0009375759508518845,0.020245361327299996,-0.05358886718,0.06701660156,0.0009904733734540652,0.9733893478129001,0.90410063161,1.0612768959,0.0010541513533666065,970.5655217035767,970.53885602885,970.60110628082,0.0004024722817777948,0.00021399992212834754,Lift Down
-0.946020507809,-0.962890625,-0.90942382812,0.00011663966710444285,0.3618969726512,0.34558105468,0.38342285156,9.193571530059396e-05,0.011060791012,-0.00805664062,0.03833007812,0.00010698067267113472,1.0130410698086,0.97377624526,1.02909975136,0.00010783078817611526,970.7093884066225,970.60451093658,970.82398261939,0.0042720021195339,0.002239660377165907,Lift Down
-0.9586047363240999,-0.9921875,-0.927734375,0.00044408798665352355,0.3834680175745999,0.37109375,0.39489746093,4.776489102613687e-05,-0.0033630371073999996,-0.01086425781,0.02575683593,6.0942249724782764e-05,1.0325139317494,0.99998559047,1.06790322254,0.0004488070148488174,970.9372611799819,970.83968800355,971.04469793477,0.003780587320589729,0.002109673975509349,Lift Down
-0.9726623535118,-0.99584960937,-0.94250488281,0.00019441029490518296,0.3694458007780998,0.31689453125,0.400390625,0.00047933257588513603,-0.03896362304269999,-0.07434082031,0.00341796875,0.00033945799321461443,1.0414871842078997,0.99907737877,1.06967804892,0.00039185005761226794,971.0944427810615,971.05321635885,971.13111256945,0.000429407961667179,0.0006842467591473575,Lift Down
-0.9636423847426734,-0.97277832031,-0.94580078125,2.187780518972175e-05,0.3022654316173267,0.28356933593,0.32348632812,9.232602499287864e-05,-0.07558569577287128,-0.09326171875,-0.05554199218,0.00012903214092760905,1.0128681027858415,0.99907737877,1.02166202378,2.3500965791864978e-05,971.1375965079696,971.12305115576,971.15310650461,8.995790371786705e-05,0.0001788833578078789,Lift Down
-0.9667211914026,-0.97436523437,-0.96044921875,1.665551855234461e-05,0.2941503906212,0.27954101562,0.30944824218,5.699675492587841e-05,-0.09004638671439999,-0.0986328125,-0.08190917968,1.5923236361055253e-05,1.0145216663016001,1.00710864217,1.02167466909,1.7307401685652157e-05,971.1416434204574,971.13268266452,971.15024057157,2.4945677583372747e-05,-4.6564255029500756e-05,Lift Down
-0.9656353574780806,-0.97033691406,-0.96044921875,6.180747318532705e-06,0.2979502051729293,0.27685546875,0.30749511718,5.216430544777724e-05,-0.08907310408353536,-0.10388183593,-0.07592773437,3.685989138151377e-05,1.0145169627037374,1.00755422077,1.02097976211,9.65947814604348e-06,971.1381655290367,971.1276252311,971.144976518,1.887628043909003e-05,-9.695566573016046e-05,Lift Down
-0.9675756835889001,-0.98510742187,-0.95642089843,4.778750616989736e-05,0.30896972655840005,0.29321289062,0.3193359375,4.0539491055286283e-05,-0.0708959960904,-0.09216308593,-0.05578613281,7.190775989579646e-05,1.0182364543223001,1.00805520676,1.03543292972,4.484157973016434e-05,971.1254409084489,971.11582720686,971.13557042935,3.294194532982501e-05,-0.0001591579511764103,Lift Down
-0.9634936523402,-0.97094726562,-0.95336914062,1.5729551361977807e-05,0.30834716796460004,0.29772949218,0.322265625,3.799283745426791e-05,-0.07446411132439999,-0.08178710937,-0.06555175781,2.2232380476588176e-05,1.0143990438149002,1.00538597447,1.02153433683,1.280110849549725e-05,971.1223925278964,971.11310347991,971.13346559627,3.038123976164977e-05,0.0001224317426400119,Lift Down
-0.9235034179642,-0.97448730468,-0.73168945312,0.003994773198953224,0.39421508788629994,0.30212402343,0.62231445312,0.009685303555258247,-0.029167480467499996,-0.11242675781,0.11938476562,0.004191540653937351,1.0128999641913,0.94152259107,1.0687555628,0.0008499032358378441,971.1346786414231,971.11483377417,971.14723845428,7.443080681137248e-05,8.562664074874334e-05,Null
-0.9159460449179998,-1.08544921875,-0.72424316406,0.011013547656387127,0.4383215331993998,0.28527832031,0.56115722656,0.006191175048650498,-0.055424804685799994,-0.15637207031,0.02026367187,0.0024585994565183007,1.0212222857529,0.81591560367,1.2113476151,0.010834913802941156,971.1287190089369,971.08824910538,971.19972816017,0.0008601950128098345,-0.00032876781699541516,Null
-0.9557128906205997,-1.13269042968,-0.72546386718,0.008943544493762279,0.3425854492152999,0.189453125,0.61633300781,0.017561185064872694,-0.122114257809,-0.216796875,-0.04345703125,0.003003592298423064,1.0322061072715,0.89371053034,1.22868224137,0.009522830327793507,971.1423711410057,971.1050300192,971.18788510255,0.0007642311019440949,-1.3854166596763975e-05,Null
-0.9892980956985999,-1.17114257812,-0.82641601562,0.005851427128605941,0.25218872069880005,0.10473632812,0.396484375,0.008539833882558192,-0.1854370117152,-0.265625,-0.10217285156,0.0024030182999605536,1.0423034940406,0.85441048367,1.1885971472,0.006996486004491148,971.1418995623095,971.10140547506,971.18015393537,0.00047652686748253016,-0.00027410173782187305,Null
-0.9856567382772,-1.15270996093,-0.90466308593,0.0033737172682807835,0.2631750488242,0.19689941406,0.37780761718,0.0023280873608576788,-0.1897253417937,-0.36767578125,-0.08056640625,0.005694417596833755,1.0416039828384,0.943967043,1.20195980125,0.0031509295889927376,971.1358813233492,971.06308652754,971.16517271848,0.00052561502680084,0.00046635556027349844,Null
-0.9776586914029001,-0.99450683593,-0.9580078125,8.68451655508134e-05,0.23057006835639995,0.19213867187,0.27978515625,0.0004132745407457426,-0.11535400390230001,-0.13024902343,-0.10046386718,8.777355304563173e-05,1.0113244686639997,0.99051609583,1.03508229981,9.136658782659695e-05,971.153258603533,971.13720722022,971.16706104584,6.817025979485917e-05,-3.960514201815824e-05,Null
-0.9778919786478216,-1.00537109375,-0.96765136718,4.187998205134423e-05,0.23988025022811882,0.2275390625,0.25219726562,4.877790956178363e-05,-0.12165092241188119,-0.1328125,-0.10339355468,4.772645707588657e-05,1.0142576277825746,1.00713400216,1.03870647468,3.300878920406541e-05,971.1519376360363,971.14363119567,971.16388125384,3.0118794079851355e-05,-4.6493559409548744e-05,Null
-0.979082031246,-1.19616699218,-0.81042480468,0.012008480206955576,0.30813232421500003,0.14526367187,0.52746582031,0.014436552795658078,-0.17720703124720003,-0.3515625,0.02941894531,0.009443099113250093,1.0524695194179998,0.87539475766,1.28290224539,0.012915804593457696,971.1328665129321,971.09422305902,971.18456883251,0.00035115536683794264,4.969507937902369e-06,Null
-1.0269702148403999,-1.27136230468,-0.83715820312,0.011208820469428888,0.3196606445272,0.14538574218,0.53857421875,0.01081491336087535,-0.13440917968439997,-0.34765625,0.21557617187,0.02568939529184531,1.1007299824574,0.89047602193,1.30443002821,0.010652607032369215,971.1453000051761,971.11537787761,971.20161813037,0.0005724958656213964,0.0003319134394027449,Null
-0.6236108398403999,-1.00903320312,0.01342773437,0.13967776111146432,0.6416796874953999,0.22351074218,1.36755371093,0.15810919696648942,0.0654516601564,-0.34130859375,0.61303710937,0.09430129400751346,1.0505596590536,0.3697987699,1.51370194436,0.09032221521718443,971.118852218221,971.08352020057,971.17485958576,0.0006094213808538151,-0.000351570756500867,Null
-0.6337138474547473,-1.08020019531,-0.1708984375,0.08246789833293913,0.6483413233864646,0.25720214843,1.06262207031,0.04571650656936002,0.21353056936303028,-0.27551269531,0.58581542968,0.062429883373180756,1.0145334157875756,0.73248455542,1.31475858837,0.027220813508380338,971.1294007163114,971.04538555413,971.18711799143,0.0012486482504247814,-8.466966775720405e-05,Lift Up
-0.9572827148408999,-1.08361816406,-0.62292480468,0.009874960936710307,0.4087170410117,0.23852539062,0.64208984375,0.018787935615529418,-0.018453369140100002,-0.25305175781,0.27478027343,0.019223220135151393,1.0612068444029,0.87384865147,1.17897042212,0.005078415649685026,971.1514465123993,971.09385579356,971.23597689645,0.0011078205728517118,-0.00012312782782515942,Lift Up
-0.9583776855438001,-1.08239746093,-0.76672363281,0.0062198706513194235,0.3073205566370001,0.13293457031,0.55981445312,0.013219104347573354,0.04646362304610001,-0.28112792968,0.46520996093,0.05036063647291868,1.0387818689102,0.88422854966,1.13535109893,0.00517820719653263,971.1426279728288,971.09672048465,971.18018423788,0.0005003215309726324,0.00032029752373256815,Lift Up
-0.9709533691369,-1.02770996093,-0.89794921875,0.0011730219303785617,0.23003540038629997,0.1796875,0.28393554687,0.0007170951652269628,-0.08031372070009998,-0.25268554687,0.044921875,0.010772315918042766,1.0068974387665,0.95210290261,1.06341040399,0.0008185663545070507,971.1527306016665,971.11789492024,971.18943088103,0.00040897238996685196,-0.0003722545625484086,Lift Up
-0.12251464843859998,-1.03649902343,0.52380371093,0.37585558238267486,0.7267028808561998,0.2001953125,1.11218261718,0.0666675240625247,-0.015786132811100004,-0.38757324218,0.47448730468,0.08689465994595831,1.0222768102742001,0.74630986823,1.38040594509,0.02265639395829077,971.1260247201695,971.07931531919,971.19213694781,0.0009016373428793004,-0.00025715338188599097,Lift Up
-0.41054687499919995,-1.00439453125,0.23327636718,0.2486469486712751,0.6808764648396,0.19348144531,1.00244140625,0.09711762950280961,0.2666625976527,0.07727050781,0.47644042968,0.01320585021449432,1.0244608806475,0.8325046482,1.30565824771,0.009203097030257878,971.1438217465369,971.07261450924,971.3264775758,0.005365215328749864,0.0006212433140294984,Lift Up
-0.8195568847626999,-0.86022949218,-0.73583984375,0.0011389820548496357,0.37182983398129993,0.2890625,0.44738769531,0.0019295596278733598,0.4669055175754,0.39501953125,0.5546875,0.00152272374186601,1.0151569028212,0.92203466196,1.08581317903,0.0019530207760750785,971.1563578865386,970.99359816814,971.39679765504,0.010972436511458256,0.0012207334382826388,Lift Up
-0.789793701168,-0.83374023437,-0.75158691406,0.00036671020013886,0.40431884765190007,0.34411621093,0.48681640625,0.0012420904697132507,0.48502075195030003,0.35083007812,0.61083984375,0.0027131451185401475,1.0129463099286,0.96625981682,1.06389639057,0.0007186366953111768,971.1158396936598,970.99359816814,971.26882004511,0.005171799631639856,0.0019944181894253933,Lift Up
-0.802368164058911,-0.82568359375,-0.76025390625,0.0002757704257954834,0.37720089147287106,0.34130859375,0.427734375,0.000657519833898014,0.5043147625275248,0.45422363281,0.57287597656,0.0007494456874233537,1.0207893555447527,1.01078247874,1.03981187515,6.436702785371412e-05,971.1244564589387,971.08999119859,971.14085383828,0.00016710065605422456,1.902258996470048e-05,Lift Up
-0.8124414062459999,-0.9853515625,-0.76208496093,0.0028704243717929366,0.414636230465,0.28076171875,0.47290039062,0.0026651586245263516,0.5381933593724,0.4580078125,0.677734375,0.003675493712361109,1.0619054745616001,0.97322655622,1.20635637842,0.0031434982906833765,971.2027757656926,971.08762921678,971.51358143506,0.015414747582168853,0.002495841457341989,Lift Up
-0.8952563476538,-0.98974609375,-0.814453125,0.0027779096365168317,0.48138671874739986,0.30444335937,0.58264160156,0.004395524203189661,-0.0677099609356,-0.21691894531,0.48876953125,0.02348463308862043,1.032418222145,0.93918655801,1.12972542631,0.0022887279300333008,971.0159491157905,970.92799547105,971.25103010753,0.005504414707942387,-0.00011706547176535613,Lift Up
-0.8587939453089999,-0.8876953125,-0.837890625,0.00010231381715245473,0.5436181640587999,0.50061035156,0.57470703125,0.0003234963465376381,-0.09283935546399999,-0.12829589843,-0.04919433593,0.0005493279719653513,1.0210686231166,1.01121102484,1.04303856233,5.166500990619444e-05,970.8291384510185,970.7154289228,970.96440819899,0.004639217550895703,-0.0022978606575142124,Lift Up
-0.8590161132772,-0.869140625,-0.849609375,2.1360986168978725e-05,0.5371972656209999,0.51538085937,0.59265136718,0.00031246623604289477,-0.112482910152,-0.12951660156,-0.09436035156,7.737116982079523e-05,1.0195602389321998,1.01071336493,1.0406791544,4.646033959913179e-05,970.6205963785519,970.51320909718,970.75153459889,0.005376055000046361,-0.0024518619906434835,Lift Up
-0.8783008305674748,-1.00964355468,-0.78430175781,0.0026583099605543186,0.4808324948671716,0.32092285156,0.58837890625,0.005925956119117603,-0.1374450067027273,-0.25903320312,-0.00512695312,0.003923365161679153,1.016431966240505,0.95363343076,1.06848939456,0.000758376872922053,970.3746189459087,970.21075382639,970.51320909718,0.008953842445511066,-0.003217358868768026,Lift Up
-0.9232580566370998,-1.1005859375,-0.84301757812,0.0028517454126177192,0.4225903320274999,0.23168945312,0.53576660156,0.004804609706923165,0.11108520507449998,-0.06652832031,0.3759765625,0.00684506769579274,1.0277455423349002,0.94155507474,1.12471007876,0.0014378378309897583,970.1682078308711,970.01651915623,970.38569293733,0.006219442955621945,-0.002366741090144215,Lift Up
-0.9047778320277999,-0.97509765625,-0.81591796875,0.0010010960788586006,0.34863281249569994,0.27563476562,0.40832519531,0.0007631664324557712,0.2715014648409,0.14001464843,0.39318847656,0.004457094759747274,1.0095531267674,0.93390130918,1.08847841584,0.0008509460830562798,969.9595718365265,969.90507161116,970.01651915623,0.0006821350210147693,-0.0007607901661995718,Lift Up
-0.8985644531208997,-0.94030761718,-0.85339355468,0.0005974986095630411,0.4236315917924,0.38171386718,0.46362304687,0.0006236054364647924,0.10739746093349999,0.03430175781,0.15124511718,0.0006674594349090639,0.9997359304538999,0.95098980173,1.04494408557,0.0008219836379226512,969.8288498692929,969.67292909451,970.01040332903,0.009930301517529857,-0.003265143106989505,Lift Up
-0.8940673828087,-0.92651367187,-0.86645507812,0.00029658970203048793,0.4074255371058999,0.37670898437,0.43505859375,0.0002533473315399999,0.1120446777297,0.0947265625,0.14709472656,0.0002566243828362209,0.9891092662639003,0.95797241021,1.02608809228,0.00037112958502699857,969.6558767542851,969.63296782533,969.67751401625,0.0001830458997937256,-0.00041199270338111764,Lift Up
-0.9252441406208,-0.94226074218,-0.90563964843,8.635930341392932e-05,0.4098193359330999,0.38195800781,0.42907714843,0.00015616270026211975,0.10194335937100002,0.07983398437,0.12292480468,0.00013311742530886994,1.0172000222175,0.99276994145,1.0307540062,9.803455942609372e-05,969.6246555506825,969.59574440834,969.65353843241,0.00040561173653033786,-0.0006618827842256968,Lift Up
-0.9165185546835,-0.93444824218,-0.90307617187,5.129108524888286e-05,0.4139855956992,0.39990234375,0.43310546875,0.00010568194166799196,0.1362719726528,0.10266113281,0.16442871093,0.00023891896309782652,1.0150502735940998,1.00398959099,1.02668797119,2.5515359173384643e-05,969.6093737658541,969.57944292826,969.6334402244,0.000257974445790768,-0.0002897893666088863,Lift Up
-0.9056577776877226,-0.9814453125,-0.76977539062,0.0022348324615083025,0.4294046836292078,0.3525390625,0.57287597656,0.0022977691682497274,0.09693712290861388,-0.15161132812,0.16760253906,0.010557322174062593,1.014030248920792,0.92834641997,1.05428019535,0.0006912150104971499,969.6163360069703,969.50688608331,969.65501434901,0.0009134672610967803,-0.0004881257094814171,Lift Up
-0.7477929687466,-1.0419921875,-0.34106445312,0.05226307977349222,0.6646166992147999,0.27697753906,1.28308105468,0.09070283608537998,-0.029455566405200004,-0.21716308593,0.31091308593,0.03411829787538705,1.0778371843496002,0.82283114741,1.38057077675,0.015512815158288071,969.5666103798985,969.50688608331,969.61319301877,0.0008320939844280203,4.7175656750310815e-06,Null
-1.0006103515574,-1.38415527343,-0.40405273437,0.08238997664067095,0.46991699218280003,0.08532714843,0.8466796875,0.03363395951019735,-0.0677148437488,-0.54919433593,0.2275390625,0.04234871782318071,1.15242358414,0.7673602972,1.49043460065,0.05589612667313709,969.5865445446965,969.51278571276,969.67255983137,0.00215897333026044,-0.00035461897896670985,Null
-1.1283642578092,-1.48803710937,-0.8369140625,0.03860271046824571,0.35631835937199996,-0.01354980468,0.8466796875,0.05887303626852386,-0.05534423827919999,-0.54919433593,0.22204589843,0.028357222759565155,1.2205626290682,0.84218984755,1.57015165767,0.038417337941285566,969.5719960351693,969.52807894932,969.6316720132,0.0007636357616991907,-0.00013784725066504503,Null
-0.9992089843716001,-1.3935546875,-0.8115234375,0.014749462700906234,0.3159033203094,0.06298828125,0.671875,0.027839103515457764,-0.052968749999,-0.26806640625,0.12231445312,0.006848585629359244,1.0634104245156,0.8155415167,1.44922430751,0.01931337380127605,969.5742386895425,969.54239335573,969.59368916122,0.0002775577714513563,0.0003793466635776959,Null
-0.9847680664014001,-1.14978027343,-0.81286621093,0.006157206338983791,0.3358642578082,0.08325195312,1.1083984375,0.03587199341161902,-0.0712426757796,-0.54895019531,0.10998535156,0.03086863737454537,1.0721207529444,0.94771455961,1.41865595409,0.010479205042995307,969.6035494559133,969.56213949718,969.67279667398,0.0007403687415402323,0.00042381241811439464,Null
-0.7133591777115152,-1.30261230468,0.09020996093,0.16667574939097612,0.5983936040061616,0.04943847656,1.16662597656,0.07232661269159825,-0.1282860341681818,-0.49450683593,0.10083007812,0.026228919830382925,1.0367213213049493,0.52994989743,1.47394577656,0.07190087982383664,969.5803760984259,969.53620184942,969.67658148394,0.0015531445011837998,-0.0003358792768813376,Null
-1.1653112792938,-1.44787597656,-0.94470214843,0.02353037844228532,0.3053088378877,-0.03527832031,0.61694335937,0.04126884633003225,-0.04775512695209999,-0.25317382812,0.18713378906,0.013119920423833729,1.2280889399015,0.95271590317,1.54101454682,0.02260800578478615,969.5898468665586,969.52530472722,969.65789986641,0.0019575112913191497,0.00024414625312097453,Null
-1.1516479492149,-1.59582519531,-0.70739746093,0.04762625558817035,0.28522094726299996,-0.06518554687,0.63684082031,0.05132966073232254,-0.07345581054420001,-0.21032714843,0.10998535156,0.007354296028483433,1.2110143505930002,0.7093737035,1.65016895588,0.05225363300706757,969.589775063127,969.53253303079,969.69230705869,0.0018067330997727888,0.00041757150911092826,Stairs Down
-1.0322753906215,-1.55346679687,-0.64953613281,0.06463090879748078,0.2674267578094,-0.04309082031,0.53051757812,0.027091761164670523,-0.11913696288910001,-0.36108398437,0.08813476562,0.013949987097705872,1.0929213614496,0.69418375142,1.56547389262,0.06206262320930163,969.590148858725,969.53253303079,969.68052464162,0.0014316358510996496,0.0006204425454293226,Stairs Down
-0.4171496582027001,-1.744140625,0.69067382812,0.7190693984959123,0.08527709960929998,-0.65051269531,1.16796875,0.26787682587684825,-0.3235925292955,-0.74084472656,0.17053222656,0.07780708768487253,1.0865452847063,0.21685793592,2.09106877867,0.16113461544787575,969.6517033915842,969.58998648265,969.77688002085,0.0027062497401985244,0.00043088982045821444,Stairs Down
-0.0931811523436,-0.7021484375,0.71069335937,0.2336681076398746,0.575642089841,-0.40734863281,1.13659667968,0.15057472514798845,-0.5328735351525,-1.09729003906,-0.13732910156,0.07452535614139043,1.0122163913474,0.65675248481,1.40468452525,0.05414063772156078,969.7037742258425,969.55934205914,969.97694637742,0.007416287357198163,0.0005580350249086879,Stairs Down
-0.3861797068341583,-0.61303710937,-0.17993164062,0.015613577743720082,0.9655169496399008,0.66015625,1.52490234375,0.04595843452654282,0.10221877900524755,-0.21301269531,0.45178222656,0.022064375534586685,1.0575121542997032,0.70210264902,1.64463476457,0.0568456007927196,969.7560761094362,969.65452982528,969.97694637742,0.0071666294105942165,0.0004738638722821077,Stairs Down
-0.45127441405979984,-0.6533203125,-0.2890625,0.013307215204087243,0.8994750976515999,0.67163085937,1.17150878906,0.024475905178934113,0.19142822265220003,0.00109863281,0.43249511718,0.009560483086097938,1.0295059527094,0.76803027126,1.34919869982,0.036703508364054706,969.8570513549951,969.77495368125,969.93917020209,0.0025239344906375642,0.0012837096188514417,Stairs Down
-0.5047485351527999,-0.80895996093,-0.21606445312,0.025736679482769018,0.8516992187462,0.63220214843,1.24011230468,0.026250035257043152,0.30656249999699997,0.07104492187,0.56909179687,0.02021754074565904,1.0488688843696,0.71761527881,1.4555772271,0.045959076453673045,969.9326207095603,969.87583692175,970.03212277067,0.0018201858985040298,0.0007116994843987605,Stairs Down
-0.453979492184,-0.79602050781,-0.25073242187,0.019434892770119606,0.8278613281213998,0.65844726562,1.10485839843,0.01689058985358987,0.31379882812240006,0.1416015625,0.51232910156,0.011585523841257253,1.0051829842699995,0.74191849501,1.29209904073,0.02723285554533651,969.9776108598244,969.92004674602,970.08352586824,0.0019670124080869425,0.000730243189120286,Stairs Down
