avg_accX,min_accX,max_accX,var_accX,avg_accY,min_accY,max_accY,var_accY,avg_accZ,min_accZ,max_accZ,var_accZ,avg_magnitude,min_magnitude,max_magnitude,var_magnitude,avg_pressure,min_pressure,max_pressure,var_pressure,slope_pressure,Label
0.240099589025625,0.21594238281,0.26123046875,9.947026376448528e-05,0.16837310790624996,0.1484375,0.19067382812,9.377075260399066e-05,-0.9802627563433335,-1.00085449218,-0.96044921875,0.00011872815850509443,1.0232913966947919,1.00285731335,1.04214795994,9.683321936830033e-05,948.3796691771917,948.3751950585,948.3859226189,1.2078650105185056e-05,4.8088891229529796e-05,Null
0.24973144530840002,0.16540527343,0.34594726562,0.0028527511490381427,0.16523193358940005,0.12060546875,0.22839355468,0.0010138925217567855,-0.9762402343719999,-1.02392578125,-0.92358398437,0.0008380688561510317,1.0232777319022,0.9964572991,1.06509577398,0.00027548550938030796,948.3795307381818,948.37398989545,948.38523060656,7.135448182327133e-06,-4.066287735108175e-05,Null
0.31618896484059994,0.18041992187,0.41003417968,0.004304250256010756,-0.1092797851558,-0.40197753906,0.26904296875,0.0552708273506614,-0.9430053710898,-1.09790039062,-0.798828125,0.006401054937365268,1.031338803169,0.91589621475,1.15409211538,0.0028619263951728765,948.3744723612125,948.36255576508,948.39113200975,7.526473809546771e-05,-0.00021664606710729812,Null
0.3373388671837999,0.29846191406,0.36340332031,0.00034931768067901324,-0.3320849609339999,-0.39306640625,-0.28039550781,0.0015747969560245862,-0.901186523434,-0.92602539062,-0.88049316406,0.0001462681365473756,1.0189221657048,0.9979224902,1.0378517827,6.30119139860989e-05,948.3757534618208,948.3674574444,948.38310351729,1.4529659408600442e-05,9.662997623337746e-05,Null
0.28837646484019996,0.11108398437,0.37854003906,0.006409551091735423,0.0296215820316,-0.29943847656,0.48413085937,0.07288791411279903,-0.9502124023403999,-0.98986816406,-0.87915039062,0.0008733043827653935,1.0322865708098,0.98675030275,1.08463951451,0.0007025563396897238,948.3932357472548,948.37788709191,948.40755096305,6.433946277820586e-05,0.00025864873554011004,Null
0.1836865234344,0.08642578125,0.25732421875,0.0020585478917786023,0.560058593747,0.38439941406,0.74267578125,0.0071857734159404335,-0.8323071289017999,-0.95190429687,-0.72424316406,0.004240647596631036,1.0260038865682,0.97076668329,1.13856077224,0.0008158263693271072,948.3942877984196,948.38126179617,948.41496692753,5.772270719266031e-05,-0.00011275158252105713,Null
0.3529614257775999,0.05029296875,0.82836914062,0.06479094739472882,0.7623901367145999,0.4453125,1.03747558593,0.018657369595482483,-0.39057861327919996,-0.88952636718,0.28173828125,0.17295706506136513,1.0517502836224,0.91922116167,1.17201967617,0.006095768616997598,948.4085550714344,948.38330726773,948.43995392035,0.00021624314636979183,4.7498035255909e-05,Null
0.6823706054656,0.30310058593,0.90209960937,0.023060331133792196,0.6607128906209999,0.37646484375,0.91381835937,0.0211255178066632,-0.0748730468756,-0.62231445312,0.30029296875,0.07602352250531791,1.0074774230878,0.80183874876,1.24898483061,0.011892585743245034,948.387176830343,948.35913161633,948.4145568206,0.00021203572084432958,-7.470330620766749e-05,Null
0.5757226562458,0.37243652343,0.96850585937,0.022664113743074744,0.6539624023398,0.45922851562,0.87927246093,0.01341083905308247,-0.4772583007781999,-0.89758300781,0.142578125,0.051687522517433394,1.0275563288914,0.83861662349,1.32823300202,0.018092654312878667,948.3873903715477,948.36728305929,948.40985095238,0.0001639365549533265,-7.00636023659433e-05,Null
0.47623779296539986,0.00402832031,1.07690429687,0.10677251346768497,0.2285595703106,-0.52490234375,0.65673828125,0.09746078033528256,-0.6136010742146,-1.01892089843,-0.14453125,0.06482251478545244,0.9519428993084,0.76400930847,1.23999178458,0.01587692713662645,948.3820395756472,948.27772731,948.66677009129,0.0070314413500442725,-0.0010252732286449183,Stairs Up
-0.8700024414038,-1.515625,0.52355957031,0.3651412047552138,0.34717529296619987,-0.00598144531,0.66638183593,0.03143302744666036,-0.2962963867158,-0.88110351562,0.08825683593,0.05234318779515767,1.1605009629332,0.5568618201,1.5431000376,0.06352751687069244,948.3525018792425,948.22847275818,948.43716068343,0.002727918458888882,-0.00012223230461093782,Stairs Up
-1.2469384765588,-1.515625,-0.96032714843,0.01708242076827276,0.251486816404,-0.09094238281,0.64245605468,0.03848269954434472,-0.025114746093799996,-0.35961914062,0.19592285156,0.02185240406496764,1.2951782546512,0.97637725599,1.54169824176,0.018069264070290834,948.2878330919392,948.17915884457,948.46934101877,0.007229061394712765,-0.0005434128258334222,Stairs Up
-1.1720190429652002,-1.47094726562,-1.01135253906,0.012421769138447463,0.24203124999640002,-0.02197265625,0.58374023437,0.03724463060621877,0.021430664062,-0.08996582031,0.12585449218,0.004328642926521153,1.2126988927866,1.01453806595,1.49304911318,0.015639923321733324,948.2156118559734,948.15418091475,948.35336553105,0.003057569402271757,3.08499315823367e-05,Stairs Up
-1.1280419921824,-1.27685546875,-0.96228027343,0.006497377602882201,0.22575927734039997,0.01818847656,0.4892578125,0.018362572150850232,0.046457519528800006,-0.09716796875,0.15856933593,0.005759028526992145,1.1611600966913997,1.00281609446,1.29721299902,0.007701320107033837,948.1483128169923,948.07664676954,948.21341596475,0.001463797294542548,1.0953020131352687e-05,Stairs Up
-1.1166259765584001,-1.27978515625,-0.88061523437,0.016377832552384432,0.23777587890240004,0.07556152343,0.48486328125,0.014055383332135265,0.045336914062,-0.17736816406,0.19897460937,0.010283756737113863,1.1526379088760002,0.9198005175,1.31298427503,0.017355585665611264,948.0861070328524,948.01777483368,948.13581573934,0.001364505110414367,-0.00042345810897644433,Stairs Up
-1.0716137695272,-1.26684570312,-0.82275390625,0.014947064964364218,0.2186108398404,-0.07690429687,0.40881347656,0.016002563520853656,-0.0193261718754,-0.26293945312,0.27221679687,0.023274960203737323,1.1112397543936001,0.86578923984,1.29840106683,0.015503860919420555,948.0299770681808,947.96365016012,948.13581573934,0.002020361526815026,-0.0006499518379780305,Stairs Up
-0.4995654296835999,-1.232421875,0.0107421875,0.11299660600840117,0.7972167968714,0.12365722656,1.2236328125,0.06492963102181332,0.016452636718,-0.24145507812,0.2607421875,0.024972404066237776,1.0214786348248,0.632105892,1.43350219953,0.043274729578751836,947.9909319962724,947.83827677987,948.11356552131,0.007415536436963742,-0.001665399523292811,Stairs Up
-0.9605126953091999,-1.12268066406,-0.7265625,0.01422751506160155,0.42608154296439993,0.23291015625,0.99975585937,0.0404149066375298,0.0138696289062,-0.23498535156,0.14123535156,0.009927887440289168,1.0754992284578,0.8826667277,1.27051942953,0.011665152874668855,947.9410007155956,947.88028670212,948.04684987351,0.001988014510657377,0.00019547913874439908,Stairs Up
-1.0713989257788001,-1.17456054687,-0.89489746093,0.004529526287916955,0.3517041015597999,0.14965820312,0.57141113281,0.017001352141543902,0.0205541992186,-0.19323730468,0.19189453125,0.011526161907222696,1.1392847423869998,0.94427833263,1.26447482298,0.006839044456761266,947.9629041829081,947.88071882981,948.04951316872,0.002100387877431191,-0.0003380428000341849,Stairs Up
-1.055527343746,-1.19592285156,-0.927734375,0.003826315138017657,0.2681030273408,-0.04748535156,0.53076171875,0.023575541497420603,-0.0038793945316,-0.30090332031,0.23950195312,0.026772169325123975,1.110558466634,0.97420110923,1.2609573937,0.006388317428905825,947.9655376715943,947.88722471213,948.06791870696,0.003153622763780479,0.0002518211379592669,Stairs Up
-1.0526733398404,-1.19592285156,-0.8408203125,0.00812630837012945,0.336745605465,0.134765625,0.59350585937,0.015315972126977068,-0.0054809570314,-0.13024902343,0.10522460937,0.004445061689217463,1.1124021456528002,0.88679309146,1.3331801083,0.011837110314783236,947.9616426393305,947.90964479826,948.05520995134,0.001188757939104207,0.0004980302714405799,Stairs Up
-1.1119653320271998,-1.33679199218,-0.96911621093,0.008325224145499995,0.29680175780840007,-0.01904296875,0.611328125,0.031500971678744806,-0.0084741210926,-0.21984863281,0.13403320312,0.005954252402768911,1.1656565695818,0.98575028215,1.35628021861,0.011310504375089809,947.9352858048032,947.8611701086,948.00734209917,0.001584424692544892,-0.0002393028200538229,Stairs Up
-1.0873828124962,-1.29907226562,-0.94006347656,0.010429924401372796,0.2562915039043999,-0.09436035156,0.51025390625,0.028872064995832798,-0.11037597656060001,-0.39624023437,0.2880859375,0.038309633128671465,1.1518675893959998,0.96026325607,1.38382535145,0.010410237258842403,947.8908106289682,947.80148540533,947.99449370164,0.003404881864297708,-0.00036063403969218316,Stairs Up
-1.0200976562464001,-1.23486328125,-0.82897949218,0.009179962259436271,0.288481445308,0.05834960937,0.439453125,0.010528418488002912,-0.0418457031248,-0.18310546875,0.08386230468,0.0060105371953896765,1.0701273305863999,0.94434472664,1.25588130783,0.005920263164412925,947.8418350558476,947.76113469522,947.91992211435,0.0018437029486444972,-0.00029651944954672794,Stairs Up
-0.970952148434,-1.81787109375,0.26232910156,0.24681053375842654,0.42326416015300006,-0.13696289062,1.22546386718,0.11321967833489377,-0.050859374998,-0.45104980468,0.193359375,0.021777524345366592,1.1593395984432002,0.50057987026,2.19848436591,0.1600087418193472,947.7571559178494,947.65643846166,947.88843328167,0.003652656901107985,-0.0009773067961421106,Stairs Up
0.5217260742143998,0.1171875,1.03356933593,0.04889553513792714,-0.5919213867157999,-1.23059082031,-0.13696289062,0.06587889308290462,-0.2850146484358,-0.83520507812,0.03735351562,0.060539505312287856,0.9118482892270001,0.49233608425,1.38440131384,0.046359460629049595,947.7151682138193,947.53762686332,947.93374959121,0.01140916394517162,0.00020965517904770762,Stairs Up
-1.3231518554654003,-2.34338378906,0.14624023437,0.2643807589463954,0.34126953124859993,-0.66345214843,1.05480957031,0.24377096749057858,0.17462158203000008,-0.46008300781,0.75500488281,0.08547671229409008,1.5162307128345998,0.71849206774,2.38366370709,0.18830808312311012,947.5649951225615,947.43307664551,947.87412340906,0.011464033158753134,-0.00016579612620197057,Stairs Up
-1.6647509765592003,-2.84240722656,-0.52062988281,0.496751793563303,0.0165014648444,-0.61218261718,0.5576171875,0.09486204246494662,0.132788085936,-0.29528808593,0.50158691406,0.052497962507235506,1.7297120583678,0.71549838999,2.85066670234,0.4394622866130332,947.595561295164,947.52734391201,947.69339177918,0.0014017938655075713,0.00034492647322675966,Stairs Up
-0.8890283203092001,-2.19787597656,0.15515136718,0.18715518040955093,0.3157421874976,-0.65539550781,1.17260742187,0.2185511391305112,-0.159108886717,-0.40795898437,0.13354492187,0.029340225090043005,1.1336867321544,0.78245555369,2.22638740854,0.06144504407516314,947.5655655184855,947.50261786456,947.75013285592,0.004679198300696362,0.0008944623773932097,Null
-0.19135498046420005,-0.46508789062,0.15515136718,0.018116587996115135,0.9016479492145999,0.63073730468,1.1259765625,0.024666651481564827,-0.1813720703102,-0.90783691406,0.71923828125,0.24119908640726892,1.0676555252614,0.79953715748,1.41895099909,0.02397551794594269,947.6735795429681,946.94478300749,948.41791286957,0.22117462110802846,-0.0032314615858776365,Null
0.3627734374974,-0.06188964843,0.79968261718,0.06978456562153884,0.6206982421835998,0.21057128906,1.17663574218,0.07127479625422678,0.5300122070271999,0.19384765625,0.88659667968,0.03846713208777871,0.9727466329348,0.62836488678,1.28959775851,0.029574779335067487,947.5188235405083,947.00957928633,948.39994739473,0.12412421034717291,-0.003975192057601629,Null
-0.16294921874800003,-0.84558105468,0.74255371093,0.21855503659932343,0.5515234374950001,0.13806152343,0.89685058593,0.05719063067661492,0.23544433593559994,-0.98999023437,0.91223144531,0.3926160579700176,1.0137205973242,0.76048645696,1.31460833943,0.0204174180587531,947.4666111713308,947.12918067954,948.22504774134,0.07786396280767605,-0.0024941590196554697,Null
-0.30529541015620004,-0.8388671875,0.19470214843,0.12413476542213255,0.20324218749819997,-0.201171875,0.75329589843,0.07040868441158257,-0.7349999999968,-0.96484375,0.66455078125,0.10956761429981518,0.9763158090559999,0.60905990034,1.28353194809,0.022843503751930002,947.5107434779377,947.4255460383,947.61201061558,0.002805396088779804,-0.001138776502163216,Null
0.180153808591,-0.01770019531,0.40441894531,0.01745658913623622,0.9172778320266,0.42639160156,1.47094726562,0.06981772221088756,-0.31380126952759996,-0.73413085937,-0.02380371093,0.030745309778161874,1.0267593304597997,0.69235781475,1.54202446834,0.03528278269148838,947.5145576474102,947.46545312194,947.58319861835,0.0007429469523802235,0.0004293913694726522,Null
0.099392089842,-0.1962890625,0.34191894531,0.02443019385819393,1.0931005859336,0.83032226562,1.48474121093,0.020950663836040447,0.0779248046866,-0.25598144531,0.51782226562,0.05007053430493323,1.1331785624262003,0.83454415253,1.50206543362,0.021437552943645785,947.5206679051691,947.41653708142,947.75786288389,0.00875670713626465,-0.000373099888339038,Null
0.2037158203105,-0.12451171875,0.59130859375,0.03336510926755364,0.7439697265591999,0.36950683593,1.16821289062,0.04462881280952684,0.2192321777328999,-0.32592773437,1.09802246093,0.14730782321177835,0.9182112111578001,0.63633380557,1.19815711082,0.023222966440064736,947.497868231401,947.38857816667,947.82353331962,0.007963230416292632,-0.000853206160716071,Null
0.0389880371086,-0.16186523437,0.37414550781,0.018990896835586947,0.7328894042926,0.28479003906,1.18933105468,0.08302282776886521,-0.0635046386716,-1.00390625,1.07287597656,0.44253715928230286,1.0076357626198997,0.38748597611,1.37785862577,0.06529014076263633,947.5418617214266,947.45057843657,947.6442258216,0.002600750007732202,0.0005434491618012861,Null
0.39748657226139983,0.10107421875,0.68395996093,0.015403175382538471,0.5363635253868,0.25354003906,0.77258300781,0.03156781012783478,-0.6628967285112998,-0.92236328125,-0.46020507812,0.01416332895566043,0.9629682089310002,0.73059608247,1.20423058702,0.018513817250520717,947.5011443976182,947.43276392692,947.64218577526,0.002348538133477957,-0.0003303638233054718,Null
0.3283422851527,0.00354003906,0.51647949218,0.02410573176065016,0.7224438476533999,0.39379882812,1.07470703125,0.03548857076618555,-0.5935705566367999,-0.77795410156,-0.49108886718,0.0043860259848977875,1.0067339533752002,0.64823176096,1.33072399641,0.03220913867362926,947.4938592622811,947.44986613251,947.5575753463,0.0007131286764559588,-0.0003363509098869537,Null
-1.0564733886678999,-1.80932617187,0.00354003906,0.1059866946919724,0.4355993652306999,0.21325683593,0.64477539062,0.013132364537789676,-0.2788403320267,-0.52172851562,-0.07861328125,0.013028012568133516,1.2016444925311003,0.64823176096,1.88398742817,0.07122310441456485,947.4993310772766,947.4517316204,947.52780207765,0.00021578694932654975,0.00019497919525467223,Stairs Up
-0.5087475585901999,-1.65771484375,-0.05541992187,0.1020967262617766,0.7953308105435,0.09765625,1.595703125,0.10660156980173453,0.0562255859363,-0.69873046875,0.51293945312,0.1077463861654375,1.0685519492209001,0.74676069438,1.70236487005,0.06668026293635736,947.4616314895247,947.39820449414,947.62557836402,0.0029576667681522353,-0.0011799902480172943,Stairs Up
-0.03505493164060001,-0.94152832031,0.57824707031,0.19020206550293306,0.7549792480434999,0.36853027343,1.15844726562,0.038312411156400494,0.31336547851319996,-0.84619140625,1.10266113281,0.308988696422854,1.0635073052226998,0.4214413498,1.61086088399,0.07121291860861455,947.4133230514772,947.32341701028,947.55485478966,0.0028973190086574703,-0.0005931123512496764,Stairs Up
0.4345666503864999,0.32409667968,0.61743164062,0.0074415376857178625,0.7036474609331997,0.45629882812,0.98962402343,0.0224860936946064,0.5940454101534,0.38500976562,0.8447265625,0.016970643846674932,1.0254451728473999,0.73444001944,1.30038029559,0.03207006282145344,947.3583894093472,947.30781453013,947.38639148067,0.00028362829787523746,-0.0004937110620716809,Stairs Up
0.4375769042940999,0.32336425781,0.580078125,0.004084685130277297,0.6852709960908999,0.38696289062,0.95263671875,0.024445415331944362,0.6410473632779998,0.42150878906,0.87390136718,0.013596992125474255,1.0443152407527,0.79856253501,1.26952644934,0.023356673551124443,947.2948653586983,947.27669373977,947.31194608853,0.00014494775889396,-0.00039556385230392024,Stairs Up
0.318929443356,0.17797851562,0.55407714843,0.007963978899484348,0.7458959960907998,0.57434082031,1.04064941406,0.017205582357483894,0.6296740722618999,0.42553710937,0.89575195312,0.01660508046707033,1.0350387671303998,0.79415328714,1.29192156032,0.02486657570473059,947.2388519108381,947.17665356713,947.28150414295,0.0007878400797794232,-0.0008739718720059614,Stairs Up
0.3598266601527999,0.21264648437,0.5771484375,0.010570140649643206,0.7236804199183999,0.51440429687,0.96862792968,0.01426459228602007,0.5750939941373998,0.43249511718,0.779296875,0.010145291853073581,0.9996816906368999,0.81613106173,1.26202669312,0.01938224198975519,947.1553295607669,947.10801826454,947.2030490847,0.0009457413829209474,-0.0008690279951381008,Stairs Up
0.5485217285119,0.45068359375,0.76330566406,0.006890128506253112,0.6710009765588998,0.50158691406,0.8525390625,0.0093340586893764,0.517740478512,0.35656738281,0.66833496093,0.00842966697881108,1.0128486490331,0.8106696438,1.25329105936,0.01789750512210857,947.1166202481993,947.08188760194,947.13629811614,0.00024605816575240953,-0.0004873094787606962,Stairs Up
0.5487463378868,0.32409667968,0.78698730468,0.01656722482262077,0.6572302246052999,0.50634765625,0.97473144531,0.013978280038225996,0.5076062011685,0.36303710937,0.73217773437,0.011600321198623762,1.0041371420991,0.79650317661,1.35292791292,0.024415287478007232,947.0705844973368,947.05970989428,947.08614482077,7.569829287657879e-05,-0.000251000657801781,Null
0.5270312499962,0.35107421875,0.67431640625,0.00911728430267188,0.6836450195268,0.60925292968,0.84985351562,0.0035555131447292773,0.5284960937455,0.42797851562,0.66284179687,0.005020691385241361,1.0182569420017,0.93005265349,1.23495352141,0.005161541733877877,947.0704947734216,947.04968715217,947.11529676292,0.0002701209622981278,0.0004123643234163841,Null
0.4750236742393939,0.39208984375,0.55041503906,0.0022154875610998436,0.6622043185733334,0.5498046875,0.7607421875,0.0027273852471207554,0.5720695726762626,0.50305175781,0.61645507812,0.0010266324750189096,0.9980127775256566,0.8968471217,1.04979603608,0.001318669649643325,947.0568538541748,947.0354845989,947.09625223247,0.00031593951974662844,-0.0004408442483225804,Null
0.4583015064163365,0.35864257812,0.57153320312,0.0045693132813368845,0.5856836904351485,0.35180664062,0.76538085937,0.00635456731407439,0.6933472888265346,0.51245117187,1.03381347656,0.013524081559478351,1.0261159920190102,0.8968471217,1.20044804915,0.00513887292614108,947.0634178439926,947.04074223434,947.09887565674,0.0002180451116772588,0.00015498730403103078,Null
0.4490917475487878,0.2900390625,0.59362792968,0.010370067467174074,0.6955665048881818,0.62377929687,0.79052734375,0.001568617771170618,0.5553040167262626,0.41088867187,0.69262695312,0.00849534917054917,1.0063272491454542,0.92691476857,1.0803687272,0.0014060112170153607,947.0646609571493,947.04363369678,947.09166338571,0.00013139318426672907,8.814287973091691e-05,Null
0.34814936571326727,0.24597167968,0.42272949218,0.0019328242305386653,0.723694451961782,0.6318359375,0.78869628906,0.0019456501674021142,0.6253384127435642,0.5517578125,0.70043945312,0.0017585143093011419,1.0192748380104948,0.90634103843,1.10293137604,0.002676250163687301,947.0703628407531,947.05559360209,947.08264469806,3.744821694948097e-05,-3.291641502734986e-05,Null
0.3900257457353534,0.27502441406,0.50170898437,0.003444803640223702,0.7422775114385858,0.68237304687,0.88354492187,0.0023390971841388813,0.5806847774593938,0.51135253906,0.65844726562,0.0013876765524244473,1.0227105253151516,0.93958693917,1.11333391165,0.0014679434196467698,947.0727447097102,947.05923340085,947.08357979179,3.909488017063551e-05,3.0394106803001648e-05,Null
0.30982666015200006,0.23083496093,0.40161132812,0.003114491550620311,0.6835375976521999,0.59973144531,0.82995605468,0.004454881380427271,0.6973510742147999,0.62475585937,0.78405761718,0.002063116190264665,1.0280295682126,0.93569895676,1.12583141598,0.002228382391427243,947.070489361069,947.05936263096,947.0764534522,2.0625681683876607e-05,-3.274818028775193e-05,Null
0.2952587890582,0.18395996093,0.46142578125,0.005029514317666834,0.7022338867153999,0.58911132812,0.85607910156,0.00590338625698451,0.682504882809,0.56030273437,0.81604003906,0.003972197927602706,1.0264899380212,0.90484785263,1.19459126722,0.007270256451418279,947.0743376953936,947.06473528645,947.08249276263,2.2694056016956498e-05,-6.828420971964462e-05,Null
0.17324462890259998,0.01770019531,0.34741210937,0.010446484817291594,0.7194775390588001,0.62976074218,0.81103515625,0.002779100856440578,0.6961669921844,0.59497070312,0.86145019531,0.0067711370160140226,1.0242301667129998,0.93462879472,1.15346886617,0.003090336081158454,947.0718113637138,947.06208703768,947.07836680205,1.755944159600829e-05,5.3314556698895e-05,Null
0.2866552734334001,0.11437988281,0.35437011718,0.004844909990762878,0.8441699218714,0.69189453125,1.02905273437,0.01046823501573419,0.3285205078098001,-0.06762695312,0.7314453125,0.0970294665558501,1.0056715757412,0.92055770541,1.1000627088,0.002589589924177402,947.0906695085703,947.05749216774,947.14011379848,0.0006316459697714039,0.00027155813359758436,Null
0.2343592879760396,0.13317871093,0.36352539062,0.0043853824327634025,0.9975634282140592,0.91943359375,1.06372070312,0.0017512678864198721,0.0549449354089109,-0.09948730468,0.19519042968,0.007853760987261423,1.0320413597843565,0.95892958474,1.11598603793,0.0018367245658865911,947.0713327935049,947.05257964683,947.08860787381,6.294207735000846e-05,-0.00014775350126615793,Null
0.2594348144501,0.18676757812,0.32165527343,0.0017962477709968024,0.9813439941374,0.93566894531,1.04284667968,0.0011017620728865792,0.0465698242158,-0.06506347656,0.14453125,0.002171168875110655,1.0179150856423997,0.96703052972,1.09797149421,0.00139249662278175,947.0705097599275,947.04624045176,947.10744242329,0.00025267653423193697,0.0003289786981132966,Null
0.19778076171449996,-0.087890625,0.25463867187,0.007447042723851238,1.0013073730426,0.96313476562,1.05834960937,0.00046874094942960063,0.04500976562079999,-0.01867675781,0.22229003906,0.003230274349731957,1.0268278517855,0.991747646,1.08142607253,0.0004229537963521566,947.0879130135833,947.0624759774,947.14885142591,0.0006672820955906453,0.00044443155424169617,Null
-0.5199890136679999,-0.90319824218,-0.087890625,0.060778009281937946,0.5911572265606,-0.04309082031,1.10302734375,0.16280015824976343,0.4297387695284998,-0.21936035156,0.99743652343,0.15988366145540914,1.0871829913431,0.99612488043,1.18034895611,0.0022133383007815945,947.076312836331,946.96934210883,947.13897091805,0.00176650760362211,0.00024077701655629967,Null
-0.3256616210896999,-0.39318847656,-0.29724121093,0.00031699447315660485,-0.0329638671846,-0.06384277343,0.02136230468,0.0004939954448620275,0.9522070312461999,0.9033203125,0.98828125,0.00037312160840460867,1.0073473531827002,0.96154246632,1.03532045609,0.0002665846399889661,947.0802145216687,947.05143142864,947.10756761642,0.00016025403627776695,-0.00011189450536550857,Null
-0.2980249023396,-0.32165527343,-0.28088378906,9.3185895635328e-05,-0.0331567382782,-0.07019042968,0.01013183593,0.000563445952062095,0.9545483398396,0.91149902343,0.99877929687,0.0003282723463235077,1.0008848127969998,0.96251225339,1.0424209542,0.0002882742063673767,947.0841876508774,947.04920806854,947.10698572865,0.00015636474254708026,0.00012576950571622565,Null
-0.3063403320278,-0.32067871093,-0.28552246093,7.309318190192955e-05,-0.0005041503888999999,-0.01794433593,0.05078125,0.0002455779563053498,0.9643786621061,0.93920898437,0.9833984375,0.00012879982590732004,1.0120163590267002,0.98975723478,1.03212383845,0.00013812367243290187,947.0943082835947,947.08820908225,947.10182130379,1.3983586377897188e-05,0.00010436754149645797,Null
-0.285715332027,-0.3125,-0.24816894531,0.0002531545270743328,-0.0416687011678,-0.07153320312,-0.00463867187,0.0003574910112692286,0.9684106445271999,0.9423828125,0.98852539062,0.00011059599090125589,1.0108419229606,0.99103379945,1.03327341687,0.0001023676221186349,947.1039006081082,947.08130880326,947.12999208735,9.388226560594206e-05,3.0710554683609424e-05,Null
-0.2570751953089,-0.28430175781,-0.23022460937,0.00016215832547074904,-0.04322387694939999,-0.10949707031,-0.00317382812,0.0004330611876299697,0.979143066404,0.94482421875,1.06787109375,0.0005440805355903032,1.0135458375400999,0.9821803818,1.10247454526,0.0005351983008923211,947.103268388179,947.0705928366,947.11533938952,0.00011214784922363096,1.5863060794763626e-05,Null
-0.23504394530829995,-0.24963378906,-0.22302246093,4.406122247118796e-05,-0.03372558593329999,-0.04956054687,-0.01379394531,9.478585888386455e-05,0.9795520019499,0.96789550781,0.99487304687,3.369212602289426e-05,1.0079935368355,0.99790775202,1.02308905836,2.529233141718067e-05,947.1061199678181,947.09633752909,947.11520532557,2.019993515193522e-05,-6.0005414916312204e-05,Null
-0.2643005371061,-0.28649902343,-0.24401855468,0.00014179956280736152,-0.0331518554643,-0.06457519531,-0.01062011718,0.00022053874501882067,0.9764746093722999,0.94982910156,0.99755859375,0.00012319861036902375,1.0123397546229,0.98614927879,1.02959222917,0.00010644943488422872,947.0931467576353,947.08509004431,947.10065539534,1.8644900679897604e-05,-0.0001300661293140205,Null
-0.23855834960560002,-0.27038574218,-0.21618652343,0.0003241528931648126,-0.035841064449599995,-0.05798339843,-0.00463867187,0.0002417561065668396,0.9784582519495001,0.94714355468,1.01000976562,0.00028760910487889596,1.0080738083924,0.98071924938,1.03664504898,0.00020949356760360398,947.0848092803286,947.07835341723,947.08975777411,8.027881055202827e-06,-3.2339525823209176e-05,Null
-0.2587878417919,-0.27868652343,-0.23742675781,0.00013557422492898276,-0.024322509762199997,-0.04309082031,-0.00915527343,9.586756126628919e-05,0.9778002929651999,0.96667480468,0.99633789062,4.677008498741926e-05,1.0118734424966,0.99827476034,1.03042578271,4.415210796870257e-05,947.0842236884372,947.07964392115,947.08893496477,7.0687809007403285e-06,7.116313347111042e-06,Null
-0.26665893554309994,-0.28430175781,-0.25231933593,8.39415388404852e-05,-0.05621093749539999,-0.09094238281,-0.02758789062,0.0002981762934390309,0.9713562011678999,0.96643066406,0.9794921875,1.3240170899994357e-05,1.0090465068660002,1.00088436539,1.01785708683,1.6240758583794424e-05,947.0858616354291,947.0826033493,947.09188079627,8.377788411538437e-06,2.4610398782086562e-05,Null
-0.2729418945279,-0.31994628906,-0.21337890625,0.0010756133240656656,-0.057258300779100005,-0.15393066406,0.01928710937,0.0027964198889436653,0.9735656738246999,0.94738769531,0.99816894531,0.00014134470109925873,1.0146483962052,1.0002445503,1.03130617855,6.84729881002399e-05,947.0826953205507,947.07926213487,947.0928371077,1.1679479322997747e-05,-3.188056052541833e-05,Null
-0.25249145507470006,-0.34875488281,-0.18225097656,0.002520345104790736,-0.15583618163709997,-0.2392578125,-0.029296875,0.003519346586102097,0.9592297363239,0.92858886718,0.99096679687,0.0003089072412453487,1.0070737323538,0.96917479953,1.03076734229,0.0002486343308389998,947.0846575173999,947.07784108565,947.0919587337,2.0413959400958833e-05,4.5427314195321105e-05,Null
-0.14648925780989996,-0.53735351562,0.65405273437,0.09226355827073546,0.24401855468670008,-0.4072265625,1.2958984375,0.2728074716776399,0.6690954589822999,-0.47729492187,1.16577148437,0.26178819448229745,1.0523882813337,0.84151378748,1.80545968714,0.042184271127071356,947.0697897193147,947.03819874162,947.09346676815,0.0002875890312367737,-0.0004965101579417239,Null
0.8374621581999,0.47814941406,1.13146972656,0.03199257076837951,0.18433593749570004,0.03552246093,0.45727539062,0.006709962686027114,-0.4086572265580999,-0.55407714843,-0.26770019531,0.005030562203198889,0.9584785976484999,0.60567408125,1.25554251937,0.027209975394386313,947.0631249457714,947.0463302797,947.07641986992,6.331594117092352e-05,0.00010859104551853766,Null
-1.0519702148399,-1.61682128906,0.47814941406,0.10007922535498771,0.5165783691367,0.03796386718,0.89074707031,0.05456798537104698,-0.14493408202920002,-0.55102539062,0.17517089843,0.028175313514001238,1.2274640307593,0.30419133208,1.66399088781,0.06952200474210593,947.0742914121179,947.01705867478,947.16481017302,0.0010300569854666214,4.8788940119812505e-05,Null
0.24665039062279998,-1.15222167968,0.91564941406,0.28007851535277756,0.7338586425759,-0.05969238281,1.16772460937,0.09746864764790093,0.056838378904400015,-0.61938476562,0.32543945312,0.052435573536697956,0.9841346776226001,0.44324839879,1.27678951873,0.06038118107764247,947.0904383551162,947.04997851846,947.19764472392,0.0013763478479620033,0.0005913537420805827,Lift Down
0.2972070312456,0.08093261718,0.69885253906,0.02705350490553927,0.8534960937464,0.63635253906,1.09228515625,0.016938516202599212,-0.5174829101521999,-0.72778320312,-0.28588867187,0.012751541830114111,1.0653713182736002,0.89757229152,1.22447790994,0.005794187142282196,947.0746190486608,947.00361409692,947.19764472392,0.001330767633836191,-9.6151500523589e-05,Lift Down
0.2799072265584,0.12731933593,0.48364257812,0.0065879002966294795,0.7648657226531002,-0.24145507812,1.07153320312,0.10459906813351555,-0.5299475097618997,-1.04907226562,-0.26037597656,0.0501097883402664,1.0487130047708,0.91170404482,1.15461083804,0.004138197071692751,947.099209754607,947.03713697832,947.22401205687,0.002704970006179155,0.0014003322550432706,Lift Down
0.3572241210902999,0.14709472656,0.66955566406,0.030792069188615913,-0.2566186523411,-0.60571289062,0.33898925781,0.08491963677131677,-0.8180371093698998,-0.96313476562,-0.72631835937,0.004384247196989915,0.9895601365032999,0.86081552281,1.04850437985,0.002336007674246531,947.0632578868532,946.95737433045,947.21576697472,0.0057398170721584775,0.0008435037645858217,Lift Down
-0.02643920898600001,-1.15881347656,0.56884765625,0.37341698946457164,0.0782055664059,-0.53540039062,0.84655761718,0.28343568312056233,-0.5203454589798,-0.87048339843,0.01574707031,0.0992614049062719,1.0015414856251998,0.70501566052,1.44897818303,0.02327487713060379,947.0503053959604,946.96364043558,947.1018475858,0.001291494142540023,0.00036725014474763945,Lift Down
-0.9750512695269999,-1.04504394531,-0.90710449218,0.0017555641346082707,0.2739941406206,0.05004882812,0.35681152343,0.005869367002245916,-0.0546972656252,-0.3203125,0.13195800781,0.015651355993106894,1.0251705992284,0.96002980913,1.07260163398,0.0008669948544389323,947.1280943497381,947.08571747809,947.1575547595,0.0005586821384443408,0.0007443758279216115,Lift Down
-0.9024731445275,-1.02416992187,-0.42236328125,0.011583260761266131,0.3568359374963,0.15393066406,0.70446777343,0.020930550917147992,-0.28631225585500003,-0.51025390625,-0.13635253906,0.009017563665672976,1.0280023221224,0.83848707937,1.27006865057,0.008173391958509886,947.1318482614054,947.09368442639,947.19091864568,0.000779962213757069,-0.0004294969803829124,Lift Down
0.17745727538949999,-0.48718261718,0.71936035156,0.13807356774417232,0.7171582031214999,-0.02526855468,1.22326660156,0.12332043741636459,-0.1474340820302,-0.53833007812,0.49926757812,0.094812684461004,0.9100759656949999,0.4307079509,1.36924441239,0.09287893012911373,947.1047789182835,947.06060245812,947.13032693101,0.0002482172932121882,9.002776071711288e-05,Lift Down
0.48386962890269997,0.23828125,0.86511230468,0.035136498892950355,0.5710961914012,0.22583007812,0.82434082031,0.01745337343565018,-0.5897204589807999,-0.9306640625,-0.10168457031,0.08200860128712531,1.0160528205836001,0.58695232247,1.18330260117,0.009030355570709064,947.1359597852576,947.06060245812,947.2646786499,0.0033365932966508936,0.0016951109250131723,Lift Down
0.4585461425749,0.20141601562,0.55505371093,0.014801619057478961,-0.0018249511708999999,-0.11096191406,0.3828125,0.014529499252848846,-0.8830859374968,-1.08642578125,-0.771484375,0.007305709135692293,1.0118424665116001,0.92852994035,1.11912265649,0.0025797479347716853,947.1280141706535,946.98426394572,947.28629946394,0.0082072140725065,-0.0029116344003819214,Lift Down
0.5469677734345,0.515625,0.56396484375,0.000154557589301198,0.09848266601290004,-0.03332519531,0.16259765625,0.0028666350741990572,-0.7943786621051,-0.83776855468,-0.76416015625,0.0003664410399792414,0.9709739364887003,0.92852994035,1.02155878441,0.00047819344793583694,947.0583286183514,946.97139540122,947.15427633385,0.003066151098293926,0.0018093947483074412,Lift Down
0.2616931152306,0.07189941406,0.5546875,0.015582585965281347,-0.1458361816382,-0.35607910156,0.16296386718,0.023853597825244016,-0.9468432617148,-1.08251953125,-0.81262207031,0.002596880877878213,1.0132400138265,0.96348904474,1.0959252457,0.0012333829217291267,947.2779480901049,947.11815163851,947.51885621303,0.008833441547387333,0.0030811775979370857,Lift Down
0.15564453124600003,0.02844238281,0.31994628906,0.005111735854372524,0.056330566407999993,-0.28735351562,0.83251953125,0.1364513025776664,-0.9031701660119998,-1.13745117187,-0.37536621093,0.03226838384487203,1.0057930047441999,0.90194057358,1.14529314167,0.003624486113505513,947.4466681639009,947.37691268576,947.61340246867,0.0026584538750729623,0.0008555616286806329,Lift Down
0.22893798827890002,-0.07043457031,0.46008300781,0.017861319135456567,0.6261230468723002,-0.6962890625,1.07202148437,0.31081735786366027,-0.3651086425767999,-1.04260253906,0.11206054687,0.11017475448810575,1.0025757140479,0.82841589155,1.12862626401,0.007125078746199863,947.7256980746112,947.59099345079,947.94048606358,0.011457445747048817,0.003481099230796184,Lift Down
-0.031198730466300003,-0.12475585937,0.10803222656,0.002565475178326406,-0.7528808593714001,-0.84802246093,0.068359375,0.02725245495017498,-0.6148217773397999,-0.89013671875,-0.54260253906,0.008135937916001637,0.9911629606253,0.89927045108,1.03766717655,0.0009889716474447661,947.8702989411885,947.7785043788,947.97413715761,0.0038119450448448567,0.001969858179938065,Lift Down
-0.033995361325,-0.12683105468,0.11401367187,0.002605020546605163,-0.3751708984353,-0.67370605468,0.67553710937,0.1890349526571882,-0.8223986816358999,-1.09533691406,-0.66381835937,0.01224379108866242,1.0079272943509,0.89168532313,1.12598101572,0.00421815670229012,948.1141979047104,947.97413715761,948.21126273562,0.0038279851203947266,0.0019026059552053976,Lift Down
-0.4197692871051999,-0.89575195312,-0.04516601562,0.08089054816056969,0.05767456054670002,-0.7421875,1.05517578125,0.3866516732338617,0.03227539062519998,-0.76733398437,0.96350097656,0.48157514887037295,1.0454841485802,0.72999514561,1.4154135904,0.02743777959963561,948.324554863635,948.21126273562,948.57256739228,0.012080016720344283,0.0033842163703020327,Lift Down
-0.32727783202719996,-0.34680175781,-0.26647949218,0.00017298587044027448,-0.023494873043,-0.09265136718,-0.00061035156,0.00016119548015155054,0.9567004394497001,0.93408203125,0.97595214843,0.00010105013093894021,1.0115698980478998,0.9899977452,1.02806487356,9.670683675007127e-05,948.5745811388022,948.48586540108,948.63844693308,0.002793913161306015,0.001646199376503527,Lift Down
-0.33894165038729995,-0.3544921875,-0.32580566406,6.923768706256293e-05,-0.0105871582,-0.03125,0.00256347656,8.130279905329617e-05,1.0049731445288002,0.97021484375,1.02307128906,0.00019334320467140906,1.0607127550039,1.0257027941,1.07515041524,0.00019540174929392624,948.7542627396637,948.63844693308,948.83868189725,0.0036669278847454045,0.0020554899127833526,Lift Down
-0.35066772460479995,-0.36462402343,-0.33923339843,5.315682352706439e-05,0.032042236325,-0.00756835937,0.0703125,0.0005158434295659607,0.9534729003870999,0.92443847656,0.99682617187,0.0001736498165019009,1.01671619177,0.99099499083,1.05396198467,0.0001298370927705997,948.8475102750584,948.83202889836,948.87465691386,0.00013400569708970841,0.0001320713701765058,Lift Down
-0.3615136718725999,-0.37365722656,-0.34741210937,5.573470182236132e-05,0.0321215820277,0.0107421875,0.05395507812,0.00015703747366204392,0.9468127441370001,0.92443847656,0.96789550781,0.00010062838292454528,1.014094113324,0.99099499083,1.03739777199,0.00010272658478764361,948.8639692827055,948.85570771216,948.87674670644,2.513697386322094e-05,0.0001513336658282882,Lift Down
-0.34378540038809996,-0.38037109375,-0.2685546875,0.0008238259876182921,0.0337854003871,0.01147460937,0.05700683593,0.0001370165850798108,0.9565588378869001,0.92297363281,0.99279785156,0.0002736246510563412,1.0175890381921,0.99907263581,1.03437419355,7.003741322049572e-05,948.8670058384257,948.8568387177,948.88927324654,6.219071031991122e-05,1.0109829421313777e-05,Lift Down
-0.30697875976239997,-0.37963867187,-0.26721191406,0.0010492710919305988,0.0896972656207,0.03283691406,0.21472167968,0.0032095397360966077,0.9678234863242,0.90991210937,1.07690429687,0.0010269760167725302,1.0213709485727,0.97132760574,1.14326395171,0.0010082560328043566,948.8736021947543,948.86045545546,948.91174099577,0.0002395478456240196,0.00031500100138477145,Lift Down
-0.2952795410118,-0.51098632812,-0.17272949218,0.0060880669606085775,0.025944824218900004,-0.12255859375,0.25793457031,0.009659511699132265,0.9678344726527999,0.8408203125,1.11865234375,0.005556048016550174,1.0191140719867997,0.90300968087,1.23303113891,0.007135157965880559,948.8528921165652,948.8238712989,948.91174099577,0.0003347160671872206,-0.00032687713151658847,Null
-0.6653503417928,-1.21459960937,-0.17004394531,0.11286812911615428,0.5065832519503999,0.08874511718,0.97216796875,0.05135155394108948,0.2290759277358,-0.34228515625,1.11865234375,0.2514075029024886,1.0559600324804002,0.48701933492,1.47956319204,0.048699770758330076,948.8522699932064,948.80981777649,948.90628312534,0.000677600485840089,0.0007014352224875076,Null
-0.9631384277301,-1.12243652343,-0.7578125,0.008933560551682257,0.3610339355416999,0.16467285156,0.57641601562,0.008169335275817778,-0.20472656249659998,-0.36694335937,-0.04345703125,0.008178639074602671,1.0548688212863,0.8696853131,1.30106631297,0.012297564049549478,948.8781408981454,948.86383384792,948.93088336251,0.00020320256581011673,8.352194345593247e-06,Null
-0.7789880371055,-1.03393554687,-0.31237792968,0.027376413783397863,0.48522216796400003,0.203125,0.69360351562,0.012368430338739802,-0.2436901855442,-0.3974609375,0.31884765625,0.02508327446012968,0.9689503006614,0.51429604729,1.15356068766,0.0272353262764477,948.9073426239418,948.83577792432,949.06271497594,0.0016925995040465178,0.0005276231802164756,Null
0.06587280273379999,-0.58850097656,0.63537597656,0.13768394837742287,0.8379614257778999,0.49328613281,1.1005859375,0.026683167129042118,0.29220825194919997,0.04699707031,0.63073730468,0.024459489925746487,0.9809197268474997,0.72810587469,1.23985458326,0.01728097901374298,948.8516562799351,948.81510577901,948.96478081294,0.0016301845872604523,-0.00017493569184487707,Null
-0.7324011230427999,-1.40612792968,0.27404785156,0.20684575885580886,0.5906030273398,0.29089355468,0.96374511718,0.03169504307106001,0.1816320800759,-0.17687988281,0.62377929687,0.042852839511680466,1.0681692905128,0.66890050362,1.56501166651,0.052235317277327116,948.8831156853413,948.85015856365,948.93217155908,0.0003510110520693452,0.00044672861183742363,Null
0.3211230468719999,0.060546875,0.43566894531,0.011222783820658446,0.8398388671844,0.63977050781,1.12194824218,0.0136257259289237,0.4403271484344,0.251953125,0.74560546875,0.013915181978756923,1.0126986063672,0.76321991915,1.28152064628,0.01530799918033375,948.885708811797,948.8323687082,948.93217155908,0.000884297696959896,-0.0007271322579515895,Null
0.2147485351526,0.01342773437,0.4404296875,0.012111434906658025,0.6085083007767998,0.19909667968,0.95520019531,0.05183754469985807,0.7292834472627,0.3251953125,1.080078125,0.050775789640944785,1.0186279102213,0.72548804258,1.28395469638,0.024473064636884184,948.8907178692403,948.85324233873,948.93929834938,0.0006706278594516352,0.0002614374661954366,Lift Up
0.6864562988248,0.18225097656,0.98767089843,0.06851670729239384,0.44900878905919983,-0.22131347656,1.04211425781,0.15740437522067574,-0.0458947753901,-0.42724609375,0.4619140625,0.0876219484690026,0.9851371856579,0.70850615753,1.25323419594,0.014999797337023474,948.861909237137,948.80314891681,948.94260711234,0.001011139333236218,-0.0003726399774793494,Lift Up
0.9374096679652,0.86804199218,1.03820800781,0.0014963543234529032,0.14256958007429998,0.01586914062,0.21826171875,0.002087384238153496,-0.32577026366949996,-0.41918945312,-0.13244628906,0.0038192778810386407,1.0058965358358,0.95469220093,1.07439241566,0.0006973544665630548,948.8450241000733,948.80759876668,948.86733239429,0.0002876795032917462,-0.00036743426659790947,Lift Up
-0.24553588867079998,-1.29016113281,0.95458984375,0.7811091988468709,0.38769165038759995,0.08325195312,0.8955078125,0.05445601646809281,0.1031896972654,-0.45080566406,0.8310546875,0.16166149066133473,1.0616324984920997,0.38191967604,1.7768235378,0.08225422130511319,948.834602656672,948.77960472678,948.89090674447,0.000861145174429957,0.000515939678299912,Lift Up
-0.9454504394491998,-1.0078125,-0.90344238281,0.0005269723874832757,0.3872521972618999,0.24084472656,0.42834472656,0.001574649851446342,0.0044018554685,-0.05029296875,0.10192871093,0.0011998318119011775,1.023344850605,0.99570682715,1.04374233231,0.00013332571967866172,948.8987362774272,948.8901028525,948.90528100651,1.8217285505907665e-05,1.293346450099811e-05,Lift Up
-0.9453417968712,-0.96313476562,-0.93090820312,6.352805128492247e-05,0.37717285155919994,0.36242675781,0.38989257812,5.987437083023595e-05,-0.012822265622,-0.03234863281,0.00366210937,0.00010497459255586135,1.0179824053635997,1.00416264803,1.03105465165,3.313027748734939e-05,948.8988540125551,948.89361045064,948.90612501967,1.2053564423459564e-05,-3.5136228538114184e-05,Lift Up
-0.9557421874968,-0.96508789062,-0.94482421875,2.447532885283696e-05,0.3549414062467999,0.32946777343,0.37463378906,0.00014016209229738205,-0.0244140624976,-0.03698730468,-0.00646972656,5.717470188086923e-05,1.0199159222196,1.01072251305,1.02522768451,1.3821089696987742e-05,948.8995361077534,948.89379697782,948.90693556578,9.58921796311184e-06,1.4194499338925069e-05,Lift Up
-0.9559130859348,-0.96557617187,-0.93505859375,4.9435345810070415e-05,0.3442089843703998,0.24755859375,0.46472167968,0.0022551992685933054,-0.0346582031232,-0.08654785156,0.14392089843,0.003582128273887078,1.0192998179639998,0.99319477465,1.07285623318,0.0003097173547186528,948.9107250937101,948.88751154414,948.95303778733,0.0001641478764017182,1.9964759215979724e-05,Lift Up
-0.9763867187468,-1.01806640625,-0.94519042968,0.0005121183877306246,0.33636718749679984,0.314453125,0.35009765625,9.529291980931484e-05,-0.059731445308799994,-0.07202148437,-0.05029296875,3.342522515259628e-05,1.034457141554,1.003067542,1.07864227186,0.0005804094767661457,948.9150033761825,948.90787664825,948.91754363382,5.760056470367828e-06,2.666030443399417e-05,Lift Up
-0.9845458984344,-1.02075195312,-0.94030761718,0.0006853450428536934,0.3475097656211999,0.25866699218,0.42785644531,0.0013188232075331539,-0.0570263671844,-0.119140625,-0.03503417968,0.0003653315341777876,1.0464591565588,0.9985794841,1.08145418168,0.0006209174948170051,948.8649562898594,948.76520946939,948.91421087416,0.0013471833469942904,-0.0010574449063167307,Lift Up
-0.8937890624966,-0.99084472656,-0.62707519531,0.01172850098276321,0.43907592773139986,0.26708984375,0.8046875,0.02976473596796105,-0.08964965820100002,-0.24816894531,0.15734863281,0.008121517900766139,1.0190683743351001,0.82515475382,1.24340015575,0.007037445026844013,948.6778040825509,948.52492301042,948.79835158001,0.004012175534269388,-0.0014816784424492592,Lift Up
-0.6266601562459998,-0.67529296875,-0.58325195312,0.0007440718737382862,0.7970507812459999,0.75268554687,0.83666992187,0.0004964851128807263,-0.11428222655800001,-0.15515136718,-0.07080078125,0.0003411793949171402,1.0209115942968001,0.99156110619,1.08105226842,0.0003623861293421494,948.4504408560603,948.33283890078,948.56368210334,0.0057096449373724755,-0.00256071004722028,Lift Up
-0.6053613281215998,-0.68188476562,-0.52380371093,0.0031926286582332378,0.7978173828095998,0.72229003906,0.87133789062,0.0026138112039991936,-0.11088867187120002,-0.17687988281,-0.0546875,0.0009691040925308058,1.0108074050271998,0.97051259402,1.03346564954,0.000249888793299076,948.2194300598529,948.12030026479,948.33283890078,0.005625235014506149,-0.0025519766015729404,Lift Up
-0.5175488281207999,-0.59851074218,-0.36157226562,0.004177721196973689,0.7731933593723999,0.54907226562,0.91552734375,0.006328919921442748,-0.24376464843359996,-0.43798828125,-0.10998535156,0.012099412860280313,0.9706510476299997,0.78240379011,1.1323183034,0.0053762641079132065,948.058148963431,947.89649735595,948.20986440424,0.010672033054432584,-0.002628031172702504,Lift Up
-0.5375488281211999,-0.61059570312,-0.41394042968,0.0024434400327410775,0.8476171874971999,0.69384765625,0.96301269531,0.0061825558633623575,0.11041015624959999,-0.25756835937,0.42700195312,0.03820347679872638,1.031747115876,0.95995305194,1.11670494995,0.001477887481759036,947.9847317888291,947.89942485358,948.06647600863,0.0017935357084706389,1.2924213363821455e-05,Lift Up
-0.5721044921835999,-0.61303710937,-0.5439453125,0.00017305542720921424,0.7652294921831998,0.67944335937,0.81384277343,0.0011485589633558901,0.32387695312039994,0.24731445312,0.42016601562,0.0018761097783114883,1.0103032977775999,0.98645026328,1.03909336847,0.0002313130060396393,948.0042346057811,947.9718116214,948.01860746172,0.00015511703335506993,0.00025899853646640366,Lift Up
-0.5487158203092,-0.59069824218,-0.51086425781,0.0003914217996975032,0.6705859374959999,0.55883789062,0.82824707031,0.008929763273635271,0.4867773437467999,0.20385742187,0.67578125,0.023851063179219038,1.0100173517712,0.96787002035,1.05008963332,0.00043657404417090767,948.0164935872936,947.99656327008,948.04556624694,0.00020734571519403754,0.0001923209608026828,Lift Up
-0.5268212890591999,-0.63610839843,-0.38647460937,0.004117684556897755,0.7609521484335999,0.56591796875,0.95471191406,0.013468783937373321,0.37285156249639995,0.05895996093,0.74084472656,0.03887421675425008,1.0241249579175997,0.91572202519,1.13435354974,0.00269826205701854,948.0065362000569,947.88392036953,948.11364514194,0.004227016169028445,-0.0009272198202368438,Lift Up
-0.41952148437119985,-0.71569824218,-0.03637695312,0.05110829709740313,0.6891943359343997,0.43371582031,1.16540527343,0.04875952344939248,0.5930224609339999,0.29675292968,0.97863769531,0.047081826287005496,1.0585995363568004,0.67330510946,1.27474273886,0.027787797672040426,948.0023735244822,947.94557456347,948.11580938226,0.0025746312455071666,-0.0005266463551505138,Null
-0.7597766113240999,-0.84729003906,-0.66088867187,0.0033613819952334166,0.39121093749639996,0.15161132812,0.55590820312,0.010328295254886532,0.5609912109334,0.41882324218,0.73059082031,0.005887537147170319,1.0298725878001997,0.93562623963,1.16986303547,0.0037995258875312596,948.0057025186674,947.98141521748,948.03547921637,0.00019002849953042187,6.398153751830189e-05,Null
-0.7550488281215999,-0.84631347656,-0.71960449218,0.001041465190902118,0.4996142578091998,0.41723632812,0.54040527343,0.000773042958145116,0.4808203124963999,0.44616699218,0.52893066406,0.000608142361503775,1.0260587419863998,0.99545501724,1.09574367155,0.0005082771330339416,948.0125178561525,947.99431975083,948.03164599126,0.00013048037408542248,0.00027954239026094517,Null
-0.7356445312463998,-0.77233886718,-0.71862792968,0.00012785256508109416,0.5913183593703999,0.52514648437,0.70971679687,0.00311684839642464,0.3350244140583999,0.09057617187,0.48376464843,0.021001417371961505,1.0132370454707997,0.94550321562,1.03126739718,0.0004302861981614665,948.014627348251,947.95030267049,948.10246146604,0.0016674329403840603,-0.00024026100904334292,Null
-0.7922753906208,-0.98889160156,-0.55419921875,0.011892623034191608,0.5803515624959998,0.29028320312,0.86779785156,0.021560725876723575,0.3032080078087999,0.19104003906,0.46008300781,0.0036052758284711764,1.0443460817151997,0.96563605546,1.16660745575,0.0024976028036457786,948.0122296230236,947.97716396257,948.03470383877,0.00022129280418607152,0.00037588647154984656,Null
-0.7924462890583999,-1.08679199218,-0.56604003906,0.022889220979225786,0.5645605468707999,0.30322265625,0.88342285156,0.02289336055190217,0.3487939453096,0.10205078125,0.55041503906,0.019064752405280872,1.0547409228052005,0.80135681123,1.35600593871,0.020280196738685193,948.0119928025341,947.98939228219,948.02770232921,0.00015588096634513025,0.0002786165548191149,Null
-0.7406787109339998,-0.92736816406,-0.52648925781,0.011662945458362663,0.6474511718703999,0.29968261718,1.10510253906,0.04245435459450888,0.34898925780799983,0.14685058593,0.51635742187,0.010806371370930528,1.0603923831267998,0.75207393716,1.39042646083,0.029731215527111093,948.0249573868298,948.00084216531,948.05001356567,0.00014194791634683114,0.0002781166375584627,Null
-0.9922021484327999,-1.47094726562,-0.67492675781,0.04858713718354973,0.37894042968279995,0.22839355468,0.57653808593,0.007886616292489747,-0.08224609374880001,-0.38244628906,0.18139648437,0.022637903424710313,1.0818267157888,0.78747265291,1.55052705694,0.043229161494560894,948.035633625022,947.9870803878,948.1553338516,0.001652646966200186,-0.0002591167301235513,Stairs Down
-1.1358496093712,-1.8251953125,-0.50634765625,0.18310660102183948,0.4598486328096,0.09631347656,0.88879394531,0.05906464345513587,-0.0406640624992,-0.24670410156,0.2275390625,0.014721764843305831,1.2584564586231999,0.53706656545,1.90623914215,0.1756364516766924,948.0979306626317,948.02881121905,948.1544576207,0.0007082936009678794,0.0006404377144130221,Stairs Down
-0.5406835937472,-1.27478027343,0.79479980468,0.4194077620789422,0.7061474609339998,0.19750976562,1.70812988281,0.16228547635736784,-0.11693359374919998,-0.66137695312,0.23217773437,0.05842024740420432,1.1500432397243998,0.39370508846,1.89755530719,0.11693873558534905,948.1917753259695,948.09858368027,948.39266404857,0.00557628877963542,0.00040613319515882745,Stairs Down
-0.2291796875008,-1.46643066406,0.66381835937,0.4220716484599148,0.8121533203083999,0.24279785156,1.69689941406,0.16997672172488426,-0.0317041015632,-0.45458984375,0.41381835937,0.043156124749399435,1.0928422969388,0.41122517035,1.76472523643,0.14916127163029108,948.1337855541976,948.04347531592,948.18972472015,0.0020944909567151993,0.0004903422593556161,Stairs Down
-0.4765917968731999,-1.40991210937,0.55676269531,0.46344562886450635,0.526567382808,0.24304199218,1.08947753906,0.07055994703306626,-0.09317871093440001,-0.32556152343,0.1728515625,0.016529996851969254,0.9708853293284,0.45867477688,1.55643237742,0.11667385452156774,948.2402813291197,948.15985613956,948.5912449153,0.0068799222778511806,-0.0009042299684520439,Stairs Down
-0.9650488281212,-1.41723632812,-0.66162109375,0.05567313170201158,0.38586425780839995,0.26733398437,0.56579589843,0.006795869933083348,-0.15389160155880002,-0.3955078125,0.12353515625,0.01502927592283605,1.0601080837276,0.74010054654,1.47962442946,0.05736084519447845,948.3069724865869,948.27672167648,948.36064708616,0.0004194465371291533,0.00048415977918884735,Stairs Down
-0.9197119140591999,-1.337890625,-0.71936035156,0.031135861945967354,0.36046874999679995,0.25109863281,0.51928710937,0.006027140376474085,-0.11437499999680004,-0.33203125,0.0283203125,0.008244319973378135,1.0008236408364,0.77006119426,1.45298399292,0.03251985275584892,948.3427812329086,948.3218385167,948.37459978019,0.00020206298296823692,5.133083167021081e-05,Stairs Down
-0.9845996093711998,-1.42590332031,-0.62133789062,0.03233212374681581,0.3854785156212,0.18835449218,0.67041015625,0.015265849720340265,-0.1484374999964,-0.55871582031,0.07824707031,0.019574484439533694,1.0800995550052,0.68748804645,1.51738693132,0.04035298261658232,948.3733102761844,948.34509954027,948.42005190621,0.0002950257093226294,4.272614211584306e-05,Stairs Down
-0.9438964843724,-1.50988769531,-0.61596679687,0.06916695411776472,0.39700195312159986,0.24169921875,0.64111328125,0.009324678604117424,-0.1496777343716,-0.33447265625,0.02465820312,0.007791008226537086,1.0440423329032,0.71501955882,1.59713330372,0.06702017151993406,948.4176732338403,948.37557903004,948.47072128681,0.0007364911838461214,0.0006069317965415126,Stairs Down
-1.0230468749951998,-1.47094726562,-0.64575195312,0.03915689569488009,0.33017089843439995,0.17932128906,0.56787109375,0.011182326596185599,-0.13724121093400002,-0.37915039062,0.04040527343,0.01095596891429541,1.0909289520696002,0.71510227927,1.57852607767,0.04548398123363464,948.4736663391694,948.44390495933,948.51796556352,0.0005506815558002694,0.00014398192440647894,Stairs Down
-0.9972460937468,-1.205078125,-0.80944824218,0.006710858152469595,0.3534326171836,0.13525390625,0.64038085937,0.01852098224107537,-0.16437011718480002,-0.44689941406,0.07043457031,0.01572922277893451,1.0869019380732,0.93181317408,1.2693289845,0.005684395312129529,948.4913076668497,948.43723926502,948.56723686384,0.0014230719749991597,-6.613399806656017e-05,Stairs Down
-0.9404101562459999,-1.14770507812,-0.75732421875,0.011689404863174309,0.37909667968319993,0.21655273437,0.58215332031,0.008151962395967046,-0.1663085937468,-0.31030273437,-0.05541992187,0.0053276546073231295,1.0334441458336,0.80993611868,1.24949708,0.012782456528188277,948.4758267118086,948.45512441544,948.5143793431,0.00030799667616685644,-0.00019149484745532868,Stairs Down
-0.9453173828092,-1.115234375,-0.76904296875,0.010678020968584908,0.37337890624519987,0.236328125,0.50183105468,0.0059577702511761045,-0.10023437499680002,-0.26281738281,0.02124023437,0.005474624392866182,1.0275324374356,0.85595638712,1.17328572237,0.009242518460152976,948.4836237316305,948.46027778984,948.49744316434,9.578389936544289e-05,8.640900135619118e-05,Stairs Down
-0.9750634765592,-1.17504882812,-0.79699707031,0.011337379638447135,0.41865722655839993,0.2490234375,0.59228515625,0.009007098554442771,0.11155273437200001,-0.09252929687,0.24499511718,0.004163535773028976,1.073775642696,0.91472068141,1.25415447784,0.00983381029659263,948.483110107189,948.46352293201,948.51613085033,0.00019035863880647878,-0.00013840655835225597,Stairs Down
-0.2764111328116001,-1.29418945312,1.22143554687,0.7292151497780753,0.4570361328088,0.22497558593,0.81286621093,0.02104281473629923,-0.2014355468724,-0.87670898437,0.23864746093,0.06559141679096266,1.0320514765872004,0.44928981384,1.51094403487,0.06911318964196149,948.4989688471733,948.3727787207,948.74806567828,0.008570569556900061,-0.000545073066022984,Stairs Down
-0.6261718749979999,-1.50146484375,0.77600097656,0.6069083707450006,0.5141894531212,0.08728027343,1.00317382812,0.06166286574486788,-0.10034179687400002,-0.71606445312,0.40808105468,0.10195197240076102,1.1205132672512002,0.23202541742,1.70351493816,0.17557422389443914,948.4473687741903,948.35348329022,948.55304242946,0.002790371743593609,0.0008639235848453131,Stairs Down
0.37055664062279986,-1.00561523437,1.1533203125,0.38598184512885253,0.20311523437560003,-0.34313964843,1.1328125,0.2422192444917409,-0.283002929686,-0.78796386718,0.22387695312,0.08141855263796259,0.9439867170156003,0.45060137394,1.40525191173,0.07077899443613002,948.5719544961477,948.49037490061,948.69418524427,0.002866741129704734,0.0006456639824901836,Stairs Down
-0.9105712890587998,-1.3134765625,-0.271484375,0.04751418094410537,0.4516162109331999,0.20776367187,0.84362792968,0.029096521367798063,-0.14085449218360002,-0.41345214843,-0.02197265625,0.00977124989623721,1.0425817697908,0.70344905803,1.53218592048,0.05199863474105428,948.49204799795,948.32658791638,948.59184051733,0.005940858802872201,0.0025256483060192686,Stairs Down
-0.9642236328079999,-1.29321289062,-0.75451660156,0.036325672563951125,0.352719726558,0.23950195312,0.48669433593,0.004233071442869677,-0.1261132812476,-0.40771484375,0.06860351562,0.014706192979729889,1.0429849663523998,0.82211654833,1.35717920562,0.0373107341964916,948.6292756438869,948.57166680051,948.68232022605,0.0010873380254833424,0.0008721522084761343,Stairs Down
-0.9581054687459999,-1.26879882812,-0.73498535156,0.032397435169139024,0.34304687499599995,0.24670410156,0.46520996093,0.00315728847428372,-0.16583007812160006,-0.34582519531,0.01525878906,0.009238646632458034,1.0367710078043997,0.79011075103,1.33170736408,0.032927450955160385,948.6794585310412,948.63171991779,948.73528888967,0.0008594927365756634,0.0008064321983986166,Stairs Down
-0.9663671874956,-1.41345214843,-0.62145996093,0.05890769081851915,0.3593505859335999,0.24267578125,0.60729980468,0.008196234702938223,-0.1490332031216,-0.29602050781,0.04248046875,0.009445804923241295,1.0488267067443997,0.71402450685,1.46381906401,0.0615717703787926,948.7224749639118,948.68733507388,948.76674478297,0.0005244753530996504,0.0004959733704725894,Stairs Down
-1.0224804687456,-1.66650390625,-0.53967285156,0.10039991402891892,0.33486328124759995,-0.18823242187,0.57385253906,0.032265914810551515,-0.12994140624759998,-0.30151367187,0.16467285156,0.012446318154078371,1.1042209014716,0.58025119909,1.75766383072,0.09984012265648223,948.8226111586378,948.76674478297,948.93302692999,0.001490358947357918,0.0008017473405805612,Stairs Down
-0.3634765624996001,-2.23254394531,1.13488769531,1.1311542301417055,0.4899023437468,-0.18566894531,1.31457519531,0.20007913825392007,-0.255698242186,-0.97497558593,0.32971191406,0.12648905734607563,1.1898740174172,0.28524138864,2.53401029163,0.4695415485988077,948.8601246407611,948.75695595153,948.92160970176,0.0012241382269706901,-0.0005222694648929274,Stairs Down
-1.3247265624963998,-2.39892578125,-0.09020996093,0.39497036726909807,0.5088623046852,-0.443359375,0.98681640625,0.14691413532561046,0.17244628905959997,-0.03088378906,0.41735839843,0.013654928881527155,1.5122326270440007,0.64050166175,2.54902077016,0.3098136888739152,948.9037748313677,948.79047057141,949.10797210176,0.0059377882094562755,0.0014777769710591622,Null
0.3787170410118999,0.15246582031,0.55810546875,0.012101176825116747,0.7760681152307999,0.56176757812,1.19970703125,0.031652143319253104,0.49589355468349994,0.04516601562,0.72802734375,0.04052309000117681,1.0330571497066998,0.8743061823,1.22844170619,0.007924551204005622,948.9244574805906,948.89939932498,948.96477942592,0.0002858941739072738,-0.0004247991212483736,Null
0.6390673828092,0.52294921875,0.70324707031,0.002602539014339265,0.6449218749971999,0.57885742187,0.68884277343,0.0008890833517670501,0.4556396484336,0.33776855468,0.56762695312,0.0051959319548064,1.0197412515312,0.96239318533,1.07396701984,0.0006740328780385876,948.9093014866105,948.88960885227,948.94583903788,0.00020905949971825556,0.00037831251097613825,Null
0.48669433593399986,0.3330078125,0.60668945312,0.005793116309517589,0.6319287109331999,0.50573730468,0.70776367187,0.0036946442150425558,0.6131396484343999,0.55029296875,0.681640625,0.0012793260150446369,1.0105090585444,0.93177010778,1.09803142448,0.0016932920119714732,948.8983470544961,948.89084661393,948.9112187754,2.1481065186854886e-05,-1.0901622600371733e-05,Null
0.4608154296844,0.38305664062,0.50427246093,0.0013863582803500833,0.6699999999951999,0.61926269531,0.76245117187,0.0012277664319450292,0.594858398434,0.55334472656,0.62683105468,0.00029028174850358565,1.0088309195255998,0.9777841556,1.0456139385,0.0002453662902630659,948.8974021793886,948.88300924096,948.90542928081,1.8529160337990143e-05,5.850870476953991e-05,Null
0.4812109374964,0.458984375,0.51867675781,0.00039063911244441193,0.6677441406219998,0.64440917968,0.68701171875,0.00014385632792830155,0.581245117184,0.55517578125,0.60534667968,0.00019779961515675807,1.0079568340724,0.9934907674,1.0197753687,4.048757881779309e-05,948.8966680229435,948.89032259599,948.90339177239,1.51786609655253e-05,9.084567406322348e-05,Null
0.46894042968399985,0.37390136718,0.52270507812,0.0012576882044271968,0.6402734374964,0.54272460937,0.76782226562,0.0018721497660549907,0.6300292968708,0.58728027343,0.70629882812,0.0010489237428460483,1.015036486086,0.97902147843,1.08369492798,0.0006363861464209997,948.9070258053682,948.89501705402,948.92549380315,6.875743770770166e-05,6.69379965726415e-05,Null
0.38859374999599994,0.2255859375,0.51953125,0.006084573244892587,0.7272265624959999,0.61499023437,0.89270019531,0.005885191734495826,0.6123925781219999,0.4287109375,0.75061035156,0.007373463649843861,1.0318474716539998,0.84888314087,1.25325981304,0.00942306773896415,948.9038793694791,948.89285672715,948.91312915602,3.6505749265736664e-05,-9.249316961647456e-05,Null
0.32118652343439996,0.18054199218,0.47082519531,0.005769412541644766,0.7706152343720001,0.60583496093,0.93603515625,0.011785334192154216,0.5690673828067999,0.46813964843,0.69616699218,0.004225732100064822,1.0137703310180002,0.81722290771,1.23417271996,0.014826968133632365,948.9036591123993,948.89645940655,948.90894838831,1.7074852324104703e-05,-7.510646328301194e-05,Null
0.354433593746,0.20385742187,0.53295898437,0.008792567879284414,0.7489892578087998,0.57006835937,1.01477050781,0.015169672917880869,0.5847558593711999,0.45666503906,0.75109863281,0.006135796922553122,1.0174481796364,0.81192691472,1.30102072335,0.02337753015844875,948.9062913139263,948.89769716639,948.91561563762,2.3335425750353076e-05,0.00010021535711437358,Null
0.36956108940494936,0.23669433593,0.55163574218,0.009366222857854517,0.7710145892486866,0.56787109375,0.97619628906,0.01275661355489517,0.5761176215236362,0.41162109375,0.71704101562,0.006979705187238954,1.034910288930202,0.80608473459,1.25384142223,0.020931105173019982,948.9030093364246,948.89232762828,948.91352212568,2.5822034826670367e-05,7.806631224409146e-05,Null
0.3781351523787129,0.22607421875,0.47436523437,0.00463382152622699,0.7676639367996038,0.65795898437,0.91589355468,0.005202884538328239,0.5585236502126731,0.43701171875,0.66271972656,0.004646309419394102,1.0262995547390097,0.924983095,1.19011726692,0.005344540654847422,948.9060775543826,948.89131252757,948.93881673689,8.239607743841826e-05,0.00014808242886702624,Null
0.2538330078088,0.16247558593,0.35339355468,0.0026278158631773997,0.8228417968720001,0.60498046875,1.03955078125,0.012764098090224234,0.48955078124640006,0.36291503906,0.60229492187,0.005203182047055228,0.9928846143904001,0.76997721766,1.25232264381,0.01588795302834587,948.9146576417738,948.89886257592,948.94206139369,0.00019330327796633363,0.0002151905951661277,Stairs Down
0.32749511718399993,0.24487304687,0.47204589843,0.0036024345050627462,0.8334667968712001,0.50476074218,1.22338867187,0.04574739966761772,0.5708154296844,0.40075683593,0.80700683593,0.01450665107861636,1.0662470104824002,0.73789104867,1.41891124498,0.05463175865511188,948.96415282276,948.9310228886,949.00560519577,0.0004592233457611455,0.0005873080826489784,Stairs Down
0.2546337890584,0.076171875,0.39111328125,0.005538123400337516,0.7869824218716,0.58874511718,0.9814453125,0.016325986120618387,0.6012988281211998,0.33129882812,0.75146484375,0.012620105502545253,1.0307192571020003,0.74354681717,1.24872457882,0.017673904524741865,949.0259943999563,948.98233966868,949.07244307171,0.0007738090597320208,0.0003626140894525378,Stairs Down
0.11854003906119999,-0.13024902343,0.28076171875,0.015761799185397555,0.7322460937468,0.53881835937,1.11560058593,0.01915841642049972,0.6274560546835999,0.37390136718,0.89929199218,0.014546900470044285,0.9841418900556002,0.75493816059,1.31567536278,0.024620574122962435,949.0326308656602,948.99489090723,949.0667386235,0.0005252678079391828,0.0005402997406082695,Stairs Down
-0.9758837890576001,-1.47387695312,-0.29943847656,0.06976330169547837,0.4067138671836,0.20642089843,0.81652832031,0.028114546429332053,-0.04370605468679999,-0.232421875,0.3515625,0.019243552804597,1.0879988970648002,0.74030573357,1.53022419376,0.05240822790879746,949.1091891969211,949.06059091333,949.16671950895,0.0008880107095557037,0.0008502750338519812,Stairs Down
-0.921757812496,-1.39392089843,-0.77258300781,0.02784195148563101,0.30722656249600006,0.2109375,0.44323730468,0.0034123538718867146,-0.22094726562199996,-0.50415039062,0.01574707031,0.01668133759705426,1.003734991788,0.80432636527,1.4794990917,0.03314714401401267,949.1795605603229,949.15368338015,949.2125329122,0.0003791583065351642,0.0005204246358131581,Stairs Down
-0.9661767578093999,-1.39416503906,-0.71752929687,0.03417005553376875,0.2980590820270999,0.17907714843,0.45922851562,0.005218430450532976,-0.16237548827740003,-0.31652832031,-0.00915527343,0.006003037359904324,1.0312262734859,0.74781646367,1.46369623632,0.040251495809007526,949.2392953845575,949.20969838372,949.27135426367,0.0004408348987465987,0.0005481584321612743,Stairs Down
-0.9575610351520999,-1.45458984375,-0.69653320312,0.044682363133592876,0.32216186523060003,0.17395019531,0.57446289062,0.011453121411268927,-0.1311145019514,-0.35461425781,0.00939941406,0.011207861459041547,1.0258854302065996,0.7430312731,1.52893370972,0.052657992634425145,949.2907508008706,949.24698293866,949.34115575454,0.0007426774885796422,0.00084042570742888,Stairs Down
-0.9847387695276,-1.61096191406,-0.65539550781,0.051005722892716085,0.2963977050747,0.1904296875,0.42492675781,0.005024723360903784,-0.1498144531219,-0.49194335937,-0.00354003906,0.012089468035978344,1.0457363687980004,0.73661634637,1.68190521834,0.054424824513829184,949.3532641966033,949.31645386039,949.39934219493,0.0004792026539959953,0.000515814420947372,Stairs Down
-0.962329101558,-1.56030273437,-0.62390136718,0.06285627201378025,0.3240185546839999,0.16418457031,0.46618652343,0.0076913940546208094,-0.11665039062120001,-0.35485839843,-0.01818847656,0.005197803179379875,1.0295322300624,0.65698720759,1.60440724496,0.06032731205710204,949.3806271208795,949.35363309212,949.42098232212,0.00045482789779217956,0.0005840043759275573,Stairs Down
-0.9391259765595998,-1.49462890625,-0.44873046875,0.10000086760253563,0.37131835937199986,0.18127441406,0.4931640625,0.009124119691307884,-0.08322753905880001,-0.21899414062,0.02795410156,0.004149936666295243,1.0235441986464,0.5659989833,1.58905153899,0.09218302550508377,949.4424335515018,949.41385594696,949.48049978254,0.00046100242182382523,0.0006637582703926737,Stairs Down
-0.7363916015591999,-1.26428222656,-0.06640625,0.136353291790997,0.6702587890587999,0.27355957031,1.22644042968,0.07571939540624532,0.11487304687439998,-0.1064453125,0.63293457031,0.03870552414516971,1.1119514395967998,0.95246486785,1.37992027323,0.01671684571892685,949.4762656409716,949.44044846688,949.52466091652,0.0004315643790258367,-8.794381825054305e-05,Stairs Down
-0.6232958984331999,-0.98010253906,-0.3876953125,0.022871056566394782,0.7854541015583999,0.52075195312,0.98559570312,0.015464103679503561,0.04701660156200001,-0.32629394531,0.33093261718,0.03137977036433963,1.0293595180067998,0.81272973884,1.3503861407,0.01725580553066122,949.4623132067517,949.27617832978,949.64415020007,0.010264092469856939,-0.0014658580694383604,Stairs Down
-0.8394360351521999,-1.36877441406,-0.33178710937,0.102181826643523,0.5033642578088999,0.19323730468,1.02758789062,0.07914823965633351,-0.05423217773169999,-0.21520996093,0.1162109375,0.005599898778528145,1.0585574652571,0.75226328014,1.4579552694,0.026445161537809576,949.4632363300442,949.42870387855,949.50802824608,0.00037419955624177185,0.0005881678031298764,Stairs Down
-0.9944128417937997,-1.14184570312,-0.83361816406,0.007496621829888306,0.30912841796470003,0.2080078125,0.45874023437,0.0037951586161464068,-0.1777624511689,-0.28662109375,-0.09716796875,0.0027126275093399157,1.0593163465470001,0.90027948715,1.21079285896,0.007808090480646074,949.489540055235,949.46669467542,949.51722845378,0.00018634317344301665,-0.00012148078724183984,Stairs Down
-0.9681677246059999,-1.19274902343,-0.82336425781,0.007955352421577586,0.3007971191369,0.20983886718,0.42614746093,0.004107785542526363,-0.1649719238253,-0.30383300781,-0.07678222656,0.003912165723264129,1.030700999727,0.88411672851,1.25841651061,0.00860038920538615,949.4903397718372,949.47493251634,949.50924692896,0.00014612856717195,9.444914310814345e-05,Stairs Down
-0.9791296386677999,-1.18432617187,-0.87707519531,0.005065330187144508,0.33742431640179993,0.21240234375,0.48059082031,0.0063567626294094865,-0.1397668456992,-0.29736328125,-0.03942871093,0.004530317992627509,1.0510281001376,0.96290548905,1.23755239221,0.003250110299066403,949.4870507193322,949.47714954159,949.51282738102,0.00010723319900046306,2.997342412182287e-05,Stairs Down
-0.968842773435,-1.39880371093,-0.65380859375,0.036335668515437555,0.286365966793,0.17346191406,0.63098144531,0.014405035639967038,-0.15118164062160003,-0.38793945312,0.04357910156,0.009000285851821296,1.0302839899387,0.67661979776,1.47389811357,0.04159207597478471,949.5044281094346,949.48262838445,949.53895733994,0.0003741564157249769,0.00034973164791073455,Stairs Down
-0.9655444335900999,-1.41394042968,-0.69104003906,0.05079456068607312,0.2796350097616,0.18383789062,0.42517089843,0.003955074589328458,-0.19082275390260006,-0.37048339843,-0.03198242187,0.00569534168702386,1.0273874922806,0.74656117362,1.48561713298,0.051717760835960615,949.5563272642721,949.52906752754,949.59899919653,0.00017971073152936592,0.0002301786362336878,Stairs Down
-0.9708691406217999,-1.40209960937,-0.70166015625,0.030455060535156116,0.26828369140229996,0.18395996093,0.39526367187,0.0028705026706159604,-0.217687988278,-0.50073242187,0.00390625,0.013088439901617035,1.0362599950205003,0.74439757709,1.46392731037,0.03178637802028411,949.6190274958312,949.55772213857,949.64510403846,0.0003394768179203548,0.00034027547018865436,Stairs Down
-1.0057177734342,-1.51245117187,-0.65673828125,0.07360967323021425,0.2888916015598999,0.1572265625,0.47082519531,0.008338608524905727,-0.20028198241820003,-0.34790039062,0.00170898437,0.009268511212867439,1.0728007979715002,0.69926248978,1.55362730922,0.0751944875191448,949.6700148970983,949.62290626925,949.72885486989,0.0008460625026645459,0.0008161269525058207,Stairs Down
-0.9522216796843997,-1.48803710937,-0.63513183593,0.07378174439840797,0.2709973144502,0.18103027343,0.37377929687,0.002925411467339454,-0.16130981444960002,-0.26318359375,-0.04748535156,0.0032597137144115855,1.0072428719162998,0.68210647098,1.51959423042,0.07153083413475542,949.7504433968465,949.68783460391,949.81652463672,0.0008409366240337252,0.0007055874785423232,Stairs Down
-0.9616821289020998,-1.35583496093,-0.67749023437,0.04855883527885253,0.30741699218440005,0.1953125,0.43310546875,0.0045447998336522735,-0.1755529785129,-0.37866210937,-0.00537109375,0.007149848569189912,1.0285675681608997,0.75025192639,1.44815516451,0.05238007977008149,949.8099609401703,949.76701430409,949.84007903054,0.00040993006259416593,0.0006155015650911399,Stairs Down
-0.9571435546826998,-1.3798828125,-0.73388671875,0.03858946720769917,0.2914733886684,0.19860839843,0.38879394531,0.002898076981951646,-0.17729980468340004,-0.310546875,-0.02783203125,0.00570409837394556,1.01955434755,0.77508967634,1.44596563994,0.04014585842829167,949.8779747004882,949.84007903054,949.91214695793,0.00036182206396781366,0.0005241525187259902,Stairs Down
-1.0036254882773,-1.36450195312,-0.8046875,0.032488669861329346,0.2745568847617,0.16052246093,0.35363769531,0.00200392232248776,-0.2351232910119,-0.61047363281,-0.03405761718,0.024255815375748085,1.0776579644694002,0.84623107112,1.44785358671,0.03509373815037058,949.9309799829907,949.90679241554,949.96866025002,0.00032469148053309774,0.00021480078444987205,Stairs Down
-0.9675781249955999,-1.10314941406,-0.84484863281,0.0029404584806634847,0.2558032226527,0.14099121093,0.35107421875,0.0029683111352724638,-0.20391845702780004,-0.31018066406,-0.10693359375,0.0034311448383895124,1.0240921591184,0.87120271865,1.16445064474,0.0037446654038568805,949.9568132109168,949.94221291053,949.97281090223,5.295234986150235e-05,-1.0492728040987223e-05,Stairs Down
-0.9981054687467001,-1.44421386718,-0.67883300781,0.05340464743675197,0.290917968747,0.12963867187,0.40979003906,0.006305108166584572,-0.1768762206992,-0.34729003906,-0.02880859375,0.009278010074207043,1.0604719457381,0.72720986925,1.49322035629,0.056394069753590514,949.9829968748131,949.94308134861,950.03919275932,0.0006602596420736382,0.0003955773601031596,Stairs Down
-1.0119519042935,-1.37512207031,-0.73547363281,0.04447938489661495,0.29182128905910004,0.19030761718,0.41320800781,0.004816429181629254,-0.16803466796619998,-0.3828125,0.05700683593,0.012353975790628573,1.0737968904528998,0.77662389577,1.44057348018,0.04589444546450301,950.0429082245246,949.99061474785,950.07551587145,0.0004887677478974804,0.0005898434639963638,Null
-0.9796569824177999,-1.11657714843,-0.84802246093,0.005964066456968605,0.33050048827759987,0.21240234375,0.48620605468,0.0060262232776934896,-0.15648071288709997,-0.24853515625,-0.03210449218,0.003344816660314443,1.0488188786414003,0.90969611885,1.21322758611,0.008692226862553398,950.0721412632773,950.05114741589,950.10815929111,0.00030249096357059233,-0.00010088727238756815,Null
-0.9723535156211999,-1.16284179687,-0.82653808593,0.00894257771864023,0.3428186035114999,0.19409179687,0.53674316406,0.007375515366686094,-0.15481567382490002,-0.30590820312,-0.03210449218,0.005035226807150591,1.0479885092984,0.8966341413,1.26665206137,0.009922947664210315,950.0806402959355,950.06157498286,950.10551737224,0.00012455716650460643,8.12018565469861e-06,Null
-1.0210607910115999,-1.16052246093,-0.87524414062,0.00689318548986507,0.24892700194919995,0.17065429687,0.42407226562,0.004116935048179734,-0.12319824218389998,-0.28576660156,-0.00549316406,0.00700747217810609,1.0626329081154,0.908882117,1.21816368549,0.00844072474608094,950.0768637022109,950.04054764633,950.11519847469,0.000391888352145406,-0.0001982177448301627,Null
-0.9648950195268998,-1.09033203125,-0.84765625,0.002985915505555079,0.31869873046560004,0.23791503906,0.48498535156,0.0034948556049857198,-0.1762121581996,-0.28564453125,-0.08605957031,0.003403219446648316,1.0343566484059001,0.91754209464,1.16569251946,0.0035691704617775554,950.0604958534828,950.04545100662,950.08108367241,0.00010504377670206741,-0.0002461832090200841,Null
-0.9661145019488998,-1.00695800781,-0.90185546875,0.0007607925103222544,0.2902209472631,0.22521972656,0.36267089843,0.0016190372015647463,-0.10683959960639998,-0.15966796875,-0.04699707031,0.0013898613642848547,1.0160132005237004,0.9477290642,1.0427481743,0.0004740400768194412,950.0453327969911,950.03200196364,950.0535471298,3.80406404219116e-05,5.955846910222241e-05,Null
-0.9873181152307999,-1.11206054687,-0.93603515625,0.0007314311419203053,0.2699719238237,0.21789550781,0.32434082031,0.0008065056003195581,-0.0645349121061,-0.10668945312,-0.01489257812,0.0005960467653325531,1.0262647768771997,0.97770146136,1.14436912039,0.0007473804149106655,950.0489699251087,950.03975235098,950.05540858558,1.43219979045403e-05,-1.2245796984630967e-05,Null
-0.9690344238248,-1.11206054687,-0.89135742187,0.0022233727769245732,0.2681994628867,0.05578613281,0.55346679687,0.01158614685280439,-0.06649658203049999,-0.302734375,0.25756835937,0.03413051264939891,1.0300575909567,0.95634872076,1.14436912039,0.0018408617580994767,950.0542062819986,950.00451059284,950.08798440579,0.0005600079953361,-1.4637384193238618e-05,Null
-0.9765942382773,-1.07861328125,-0.89038085937,0.002499897257213138,0.2579736328093,0.12231445312,0.3798828125,0.0043996683516114455,-0.11789184570060002,-0.28674316406,0.01831054687,0.008924160297090235,1.0237229746408003,0.93788080428,1.10965728526,0.0018605541237560396,950.0453304551178,950.03379085029,950.0598468065,5.51910843606186e-05,9.90636476542974e-05,Null
-0.9568762206990999,-1.0224609375,-0.89367675781,0.0010774680023985426,0.31764160155879995,0.18249511718,0.40881347656,0.004449202942348644,-0.1583398437463,-0.23681640625,0.00964355468,0.0024325586568477854,1.023989297159,0.94864500625,1.06286649834,0.0009144964741577085,950.0520410577146,950.03534159939,950.09516268803,0.00026024325385881364,-0.0001581901090512068,Null
-0.9871093749963998,-1.06884765625,-0.77416992187,0.002999936691401377,0.27731811523000005,0.20446777343,0.3583984375,0.0019451239178917975,-0.0323803710932,-0.44104003906,0.06262207031,0.014112728599005628,1.0342998154910998,0.89500858447,1.10530496873,0.0014442895587639195,950.0618935051323,950.04344611098,950.16078552557,0.0005683693370511694,0.0005656782568974953,Null
-0.9493261718711998,-1.19799804687,-0.75915527343,0.014292111685793593,0.36658447265259997,0.1162109375,0.75207519531,0.03653174874148147,-0.146959228512,-0.38806152343,0.00073242187,0.00999108615990516,1.0550248526645998,0.89500858447,1.24168722407,0.004374473148793784,950.0763576619378,950.04355869641,950.12055898664,0.00046988607443332613,-7.108732408268395e-05,Null
-0.9531201171843999,-1.05004882812,-0.79296875,0.006554564418087783,0.3462402343723,0.2216796875,0.58959960937,0.014721984213107749,-0.10248168944900002,-0.20288085937,0.0,0.004682596119822279,1.0309840307877998,0.95864720059,1.11816023113,0.001610339309129521,950.0815844583733,950.06326884667,950.09714581468,0.00013098861793450252,0.00029671455714046826,Null
-0.9499157714793001,-1.02478027343,-0.85925292968,0.0019672092449077015,0.3360705566368,0.24194335937,0.552734375,0.0057297364315142445,-0.12952148437230002,-0.22729492187,-0.08068847656,0.0015899183533168249,1.0192419736071001,0.93954629892,1.11098189902,0.0024232338249996323,950.0917153540687,950.06534444989,950.15282762891,0.0004901501648208784,-0.00029841185021016784,Null
-0.993244628902,-1.11706542968,-0.81140136718,0.006716820392996009,0.28926635741849993,0.16284179687,0.41833496093,0.007509287576311695,-0.0886462402323,-0.30163574218,0.10949707031,0.011111688641990967,1.0466455213751003,0.8762540771,1.1891621514,0.007763278299048459,950.0928590492725,950.05549415433,950.14207705444,0.0004469087325175746,-0.00016099062145330403,Null
-0.9911071777299998,-1.17358398437,-0.78979492187,0.009973504740682189,0.3348071289029,0.20910644531,0.49401855468,0.007491425618918005,-0.1448876953083,-0.36950683593,0.0166015625,0.009520445712601312,1.0635135289096997,0.83501583164,1.2503643816,0.011147668387390385,950.0917752858782,950.06254925883,950.13831864037,0.0003732650387800576,-0.0002353783314665396,Lift Up
-0.9921472167931,-1.1220703125,-0.90405273437,0.003318391982628686,0.2516516113233,0.08032226562,0.56652832031,0.008086558380134315,-0.02859375000039999,-0.33752441406,0.26354980468,0.02719554428992171,1.0412075557183997,0.9700337948,1.22286567478,0.002629849931861571,950.0887690029786,950.04685403935,950.13956778505,0.0006925003659038644,-0.00016378365578879054,Lift Up
-0.6576660156206999,-1.08056640625,-0.41918945312,0.02806245618423103,0.7470568847618,0.31420898437,1.07092285156,0.03327577430040313,0.06260742187290001,-0.345703125,0.34216308593,0.048174908448575374,1.0418319770173996,0.8699004977,1.31720340488,0.017719601673121678,950.095730309053,949.97968484808,950.18411043319,0.002211686473279285,0.00010850231243912786,Lift Up
-0.5214978027314,-0.69738769531,-0.3251953125,0.00969093101655505,0.8752685546838,0.66455078125,1.08129882812,0.011158022013591121,-0.07561401366949999,-0.359375,0.31787109375,0.03124828960324854,1.0408464708528002,0.88175199326,1.28412167958,0.012108459046343195,950.0656889106897,949.85619238272,950.49052285122,0.030687416128208935,-0.0016114844373966925,Lift Up
-0.6173449706992998,-0.77026367187,-0.419921875,0.010953720559440166,0.7816394042931998,0.59716796875,0.96655273437,0.008554023833899776,-0.1383837890603,-0.50024414062,0.14721679687,0.02547060044076556,1.0228131465667003,0.7345295297,1.20146590565,0.009703911982377151,950.1751491173429,949.83875067482,950.66159552935,0.04107833133363763,0.0030188983626726197,Lift Up
-0.7101013183559999,-0.78430175781,-0.50695800781,0.002103233390094513,0.7328540039020999,0.65246582031,0.849609375,0.0022447474737579474,-0.1740917968716,-0.48962402343,-0.10363769531,0.006811714449151714,1.0396623746604003,0.96044247755,1.15005577667,0.0017950224060563574,949.9654427511213,949.71123411437,950.06414370608,0.00883328319436581,0.002969919813493648,Lift Up
-0.7310766601521999,-0.7822265625,-0.68920898437,0.0007770735748084621,0.6949877929650998,0.65795898437,0.72863769531,0.0004888803730003227,-0.20026977538660007,-0.22326660156,-0.17456054687,0.0001589781994036562,1.028983562313,1.00528602925,1.07666719395,0.00019455519409746275,950.067888177735,950.05881839304,950.07768644314,3.322031477560242e-05,-7.315276905525454e-05,Lift Up
-0.6877441406217,-0.73303222656,-0.57873535156,0.0013860891563666816,0.7095056152298999,0.6435546875,0.81591796875,0.0016429676716971423,-0.2585559081993,-0.29443359375,-0.1357421875,0.0015872786426928437,1.0235388417442999,0.9804259667,1.0509580513,0.00018160629057076486,950.0574092636049,950.02061564849,950.09953618786,0.0003256847418564075,-0.0002967263340744063,Lift Up
-0.7214343261680999,-0.75024414062,-0.68395996093,0.00026775384640702283,0.7319152831997999,0.68725585937,0.7666015625,0.00022615548787349154,-0.28881591796430006,-0.3017578125,-0.26147460937,7.847884087873328e-05,1.0676060880083,1.01500556836,1.10207304384,0.00036970542172966666,950.0295442644981,949.98818465127,950.05041975984,0.0003181968524795572,-0.000572101980281629,Lift Up
-0.6449340820274,-0.68859863281,-0.59191894531,0.0006753692422620227,0.7047070312472999,0.61584472656,0.80017089843,0.0029371567204898703,-0.37770507812119986,-0.517578125,-0.26147460937,0.004901095689012441,1.0309158706154,0.98301265691,1.09332914429,0.0008626759977281462,949.9334172965927,949.75088926659,950.07845279108,0.006888983329642826,-0.0020455580236856913,Lift Up
-0.6226696777309,-0.65991210937,-0.58825683593,0.0003212257151321033,0.691848144528,0.60803222656,0.75390625,0.0016402508213768918,-0.4194384765591,-0.49584960937,-0.35913085937,0.0012628791067462435,1.0223367324777,0.98656363366,1.0694304751,0.00032296544167199236,949.7037440070901,949.58032454613,949.93009332528,0.006933737916819297,0.0009322011553638227,Lift Up
-0.6452832031208,-0.671875,-0.63000488281,0.0001175351576334813,0.6025366210898,0.57409667968,0.62292480468,0.00015003331384548822,-0.4817810058558,-0.53784179687,-0.4267578125,0.000858320243110494,1.0062290413911004,0.97243035232,1.02533017661,0.0001732077570389595,949.4965673028776,949.25887803443,949.93009332528,0.04343735229703214,-0.0058510834548240135,Lift Up
-0.6916491699182,-0.75866699218,-0.61218261718,0.0006988718338073569,0.6550097656211998,0.59851074218,0.74694824218,0.0005524467699397767,-0.3708715820271999,-0.45593261718,-0.17272949218,0.002491461622516169,1.0236465961315,0.97518727172,1.11895434175,0.0008233296140933137,949.2403830522427,949.13454469628,949.29444544872,0.0020634769443872002,0.0004311920085209427,Lift Up
-0.5819934081997,-0.61218261718,-0.55004882812,0.00023638620973431455,0.740961914059,0.62915039062,0.90808105468,0.0067415122794351615,-0.34624633788910003,-0.5146484375,0.06030273437,0.04273591781267415,1.0275202168329,0.96112823144,1.08276524764,0.0010568625390719297,949.138538103551,948.84568215998,949.44219457405,0.02597147715727532,-0.0033757920963503668,Lift Up
-0.5824291992151999,-0.60266113281,-0.55126953125,0.0002179316258167886,0.7300476074178,0.65905761718,0.79821777343,0.0010790741730062434,-0.4169262695274,-0.45581054687,-0.38098144531,0.0007344133384498819,1.0234079329849002,0.96947275395,1.06792427143,0.0006748515845019381,948.8443641151518,948.73317919203,949.0167897402,0.004500608188982455,-0.0006597660414578601,Lift Up
-0.5638537597627998,-0.62670898437,-0.53063964843,0.00043186217094428193,0.6620275878864998,0.56701660156,0.74096679687,0.0025349656905687577,-0.5151770019506999,-0.56652832031,-0.43432617187,0.0012080157812054992,1.0124414671158002,0.95367840819,1.0434881767,0.0007215189212129104,948.7441859121761,948.44796727218,949.04994395117,0.045970427033993656,-0.006135342239427096,Lift Up
-0.5763110351530001,-0.62341308593,-0.5205078125,0.000651598283705313,0.649897460934,0.50500488281,0.72277832031,0.002983447855089853,-0.4984643554653999,-0.54919433593,-0.43286132812,0.0004823325800145238,1.0031404548960998,0.93772169511,1.04901754277,0.0007608740613853714,948.5246917808347,948.35934762057,948.90461576478,0.028353747699493562,-0.0031741144331545916,Lift Up
-0.5165795898401,-0.64770507812,-0.419921875,0.006161119715130252,0.7299999999955,0.65734863281,0.80261230468,0.001314205569382514,-0.5198205566363999,-0.61254882812,-0.38195800781,0.005008953284461031,1.0401245604607001,0.99689787775,1.09023948375,0.00047294772438364474,948.5802312383623,948.32242024526,948.96902342857,0.03218240126273775,-0.00015207299651101593,Lift Up
-0.4874938964810998,-0.55407714843,-0.41149902343,0.0019791151463317553,0.6534448242152999,0.57653808593,0.72009277343,0.0015535884373050711,-0.6284729003870999,-0.66284179687,-0.59753417968,0.0003870669564282987,1.0311567359436,1.01067006319,1.07087727424,0.00021715421612762407,948.5886968623328,948.42473106417,948.67012989409,0.006000420522609334,0.00010651145971211836,Lift Up
-0.5182434081998999,-0.55407714843,-0.48852539062,0.00034780826684882837,0.6578027343712999,0.57421875,0.6962890625,0.0008807652165353767,-0.5868237304652999,-0.62060546875,-0.53442382812,0.0002699363773882217,1.0232533775573998,0.99722492838,1.0431220767,7.960424982268625e-05,948.3637356883124,948.17892367787,948.44782899989,0.005507744144126777,0.0012579226954090878,Lift Up
-0.5745373535124999,-0.625,-0.4892578125,0.0014418947259466125,0.7442614746060999,0.65710449218,0.78759765625,0.0011189232255002823,-0.35952514648069994,-0.53442382812,-0.27807617187,0.007674679869097388,1.0115528305021,0.97558551746,1.03204586645,0.00017238188049713418,948.4662589253578,948.42723270281,948.49923282275,0.000548319859259839,0.0004932555476831163,Lift Up
-0.624510498043,-0.65747070312,-0.60974121093,0.00010419900218571412,0.7477697753868,0.73962402343,0.76708984375,3.098865200729564e-05,-0.29765014648079996,-0.322265625,-0.25720214843,0.0003713813018002962,1.0189297445913004,1.01032663547,1.04822206657,5.281586255460052e-05,948.4977254876526,948.47560768265,948.53834147482,0.00026135181831123176,0.0002467078604640764,Lift Up
-0.7022705078100999,-0.77429199218,-0.6220703125,0.001864286986162566,0.7124121093708999,0.65222167968,0.80261230468,0.0010722724115281176,-0.21796997069960003,-0.29309082031,-0.17224121093,0.0015806781207602753,1.0258908534962001,1.00059387334,1.09730976378,0.0002482926280918589,948.4856160897745,948.47190538246,948.50780031656,8.261238683384427e-05,5.171755936499918e-05,Lift Up
-0.49224121093389983,-0.71301269531,-0.22900390625,0.016652056159462428,0.7956420898399997,0.61376953125,0.98547363281,0.009118023394347445,-0.3977807617154999,-0.55163574218,-0.23254394531,0.009156639160559267,1.0293565448956001,0.82620651316,1.21618199005,0.008666499259297567,948.4815108274997,948.44462763423,948.52260308491,0.00046634640302711946,-0.0002886264287757872,Lift Up
-0.3778442382772998,-0.47839355468,-0.19641113281,0.005564329449564684,0.8284069824185,0.65869140625,1.06567382812,0.01365309312336322,-0.4957678222621,-0.75158691406,-0.3037109375,0.021506898046647033,1.0460528764650001,0.8641113933,1.26661966821,0.021111704608767504,948.4810728453854,948.3908095865,948.55286011532,0.0018734620716290822,-0.00098145025031894,Null
-0.4784252929653999,-0.703125,-0.38220214843,0.008995718311960544,0.8066052246054,0.65832519531,1.02819824218,0.009972577834087946,-0.45305175780789997,-0.68041992187,-0.28747558593,0.007890649215156661,1.0481209062854,0.81728533821,1.41934761807,0.012920774019816457,948.4943314505294,948.43472691893,948.6199738858,0.0017119564949647358,0.000872196603368788,Null
-0.4905065917932999,-0.63806152343,-0.36889648437,0.006334897501133027,0.7330664062448998,0.64245605468,0.91833496093,0.003972036694079164,-0.5180224609335999,-0.6689453125,-0.34411621093,0.009470268789077025,1.0311606745631,0.9403316411,1.14437350855,0.002643875536797054,948.5532343160485,948.20447921916,948.76389023464,0.023438978163149476,-0.0021670586104055377,Null
-0.4991894531208,-0.56958007812,-0.40356445312,0.0037006138310703503,0.7785620117146002,0.69421386718,0.86242675781,0.0014753702855384789,-0.4243395996053,-0.64685058593,-0.30493164062,0.010154581339145163,1.0248731739694998,0.99595338168,1.06136824834,0.00022752431200783097,948.3915216554923,948.20447921916,948.53804684921,0.009084005978288805,0.0023956200920202454,Null
-0.5826220703084999,-0.65002441406,-0.51879882812,0.0011237428405002933,0.7840490722615001,0.69311523437,0.95483398437,0.00296024549342797,-0.3275012207005,-0.52563476562,-0.18408203125,0.008383786104633013,1.0347829718427004,0.94474615518,1.15664802608,0.0030361332995820205,948.4712052971133,948.4239711099,948.51216897035,0.0009135779208380469,0.0006606607094365956,Null
-0.46138305663679996,-0.60693359375,-0.38659667968,0.0033757182008186614,0.8076892089812,0.52978515625,0.95483398437,0.008293270190089191,-0.42762695312079996,-0.6171875,-0.306640625,0.006728686852787348,1.0309966667141002,0.90255761192,1.16910092394,0.0033945111221606846,948.4776630195748,948.41340451772,948.56233630464,0.0018698976544603062,-0.0007148781368998306,Null
-0.49021728515229995,-0.68957519531,-0.357421875,0.007501315293742969,0.8043981933555999,0.59057617187,0.98083496093,0.009680336971172484,-0.41930908202649986,-0.55334472656,-0.28686523437,0.00832424861610344,1.0391562899619002,0.8899972527,1.2384433941,0.00868140738995065,948.5065066019687,948.40077312706,948.64325082176,0.005567396538567181,-0.0015138722888455322,Lift Up
-0.5256433105438998,-0.68029785156,-0.37915039062,0.00596294778022271,0.8472741699176001,0.65551757812,1.09594726562,0.015501876869319833,-0.3443676757761,-0.51403808593,-0.15075683593,0.009379079191327421,1.0636558732814003,0.87422286161,1.27312221017,0.012055710189141335,948.465247166646,948.36679562453,948.61590810787,0.0048860243653088865,-0.00113650582637404,Lift Up
-0.5222424316368999,-0.60974121093,-0.42578125,0.0028075504467676717,0.8284069824172999,0.69311523437,1.01721191406,0.008215848452968038,-0.3590124511677999,-0.4892578125,-0.15075683593,0.0053778135581399175,1.0495428861090002,0.9669897099,1.17986188319,0.002608238958979222,948.5216808996331,948.42875442983,948.73876196289,0.0048088628348334035,-0.0006929284707582772,Lift Up
-0.5413623046841999,-0.62731933593,-0.5048828125,0.0008543984816950319,0.7674877929648999,0.70983886718,0.81298828125,0.0006076481667889622,-0.4160009765583999,-0.44873046875,-0.37023925781,0.0003749560466991406,1.0281162576084,0.97272856569,1.06494270754,0.00048173045148647026,948.4403156937083,948.3703850811,948.62443749841,0.004241172179184632,-0.0006445160295234167,Lift Up
-0.6060510253871999,-0.64440917968,-0.52917480468,0.0006176088359030019,0.7221301269488001,0.68688964843,0.79016113281,0.0006118388775061297,-0.4007397460897999,-0.48913574218,-0.34619140625,0.0007604706829574639,1.025128132537,0.98219810955,1.07493296375,0.0004489301138473399,948.499668449701,948.43587108985,948.71851735769,0.004346217200925414,0.001862684606681942,Lift Up
-0.5463732910128999,-0.62158203125,-0.4716796875,0.0012346069303843293,0.7155017089805,0.60217285156,0.79675292968,0.002973021851300588,-0.47328124999659993,-0.55322265625,-0.39978027343,0.0021258837285359723,1.0192832172919,0.91960252697,1.11126441974,0.001811626888030046,948.5030150744226,948.21118544238,948.9858264123,0.0530654899063313,-0.0007499864280447266,Lift Up
-0.6101696777297999,-0.71533203125,-0.5576171875,0.0017709333171092466,0.6991857910125,0.64294433593,0.77624511718,0.0009194708397012182,-0.4466809081991,-0.50122070312,-0.39086914062,0.0011137369590797912,1.0312983768148998,0.98277449299,1.11126441974,0.0008903004172530586,948.4507230726292,948.27576634385,948.73217608585,0.01863090088986159,-0.00021171234789541804,Lift Up
-0.5915295410119998,-0.66540527343,-0.54858398437,0.0010207992897158804,0.6934973144497999,0.66076660156,0.71313476562,0.0001586418726913493,-0.458945312497,-0.49353027343,-0.41491699218,0.0005360272436104552,1.0213035977984,0.99691782503,1.05713708887,0.00011494722125082525,948.4443521541812,948.39933028891,948.46582882128,0.0003877085434138511,0.000538162793200829,Lift Up
-0.5722802734343999,-0.59326171875,-0.55981445312,7.392941099053821e-05,0.7108776855433999,0.70043945312,0.73193359375,4.241246618351339e-05,-0.46370361327759985,-0.47570800781,-0.45178222656,2.9775897654744836e-05,1.0236968221355,1.01374015504,1.05397317502,6.293846544944343e-05,948.4689629022605,948.46151193524,948.47683965151,2.0620860011264195e-05,8.30933007169938e-05,Lift Up
-0.6112158203093999,-0.62243652343,-0.59326171875,4.7714625938085195e-05,0.7340100097628999,0.7001953125,0.7548828125,0.00021477344510061533,-0.4770935058555,-0.48571777343,-0.46496582031,4.372884982100131e-05,1.067631569175,1.03738607964,1.08856292031,0.00018229920333839397,948.4524513718741,948.38142150074,948.47683031213,0.000608690410246474,-0.0007425571609540712,Lift Up
-0.5988500976514,-0.61682128906,-0.54333496093,0.0002633190456052704,0.6943041992151998,0.67736816406,0.71435546875,0.00011484418853413022,-0.45213378905799984,-0.49353027343,-0.43237304687,0.00027060125812502714,1.022464283142,0.97378194541,1.0466979361,0.00031695986320522243,948.3299627259723,948.24198679731,948.73926131777,0.008703275902693808,0.0004003373432550271,Lift Up
-0.6099462890593998,-0.66687011718,-0.55383300781,0.0008174984382268259,0.6166357421844001,0.56518554687,0.68237304687,0.0011510170107564505,-0.5138574218713998,-0.57971191406,-0.44763183593,0.0017282332073893778,1.009811551705,0.97580239278,1.03837090615,0.00026664172101505503,948.074026269996,947.83088945779,948.73926131777,0.07841305907252005,-0.007815992317377802,Lift Up
-0.6288452148399999,-0.71325683593,-0.57678222656,0.0012172311544321602,0.6625341796841999,0.63208007812,0.70434570312,0.0003358831550221784,-0.4613183593709999,-0.50146484375,-0.30895996093,0.0018284475201995121,1.0247326663986003,0.99969507575,1.0995490564,0.00048806141155734726,947.8882142465095,947.70808925363,948.06874479101,0.004590556349437756,-0.0009819691785114978,Lift Up
-0.6673706054654,-0.68041992187,-0.65637207031,4.39546625982968e-05,0.7098437499969998,0.68774414062,0.74536132812,0.0002331697338778582,-0.3361425781218,-0.39123535156,-0.30139160156,0.00022542864386117668,1.0308395327976,1.01263504805,1.0644436687,0.00012211354223075018,947.6548574703578,947.59318110555,947.70808925363,0.0015018863351114185,-0.0011787416101184584,Lift Up
-0.5769836425744999,-0.65673828125,-0.53039550781,0.0006184798825383172,0.6416540527316,0.58251953125,0.74072265625,0.0008397840656120752,-0.5303955078086,-0.61267089843,-0.39123535156,0.0029311992904066677,1.0144944143632002,0.93422483717,1.0644436687,0.0011071653750368247,947.6243140946832,947.4833939531,947.87213827465,0.010342344408623702,-0.00016585780833941517,Lift Up
-0.16254272460820002,-0.79833984375,0.75427246093,0.29758461748758525,0.6074450683546,0.36791992187,0.92260742187,0.013749442827454815,-0.5237646484328998,-0.75903320312,-0.26245117187,0.01899194503086805,0.9919822042621999,0.74098213091,1.25387509625,0.012861724306494234,947.1064435747791,946.95537971009,947.53462988959,0.014398111376156417,-0.001495640532757994,Lift Up
0.7061047363246999,0.66333007812,0.74841308593,0.00042214390455211316,0.5700988769489999,0.44775390625,0.62866210937,0.0019031685936472457,-0.42502197265219993,-0.48486328125,-0.39404296875,0.0005097755218036188,1.0031856643584003,0.9269867786,1.03915905324,0.0006204039077934443,947.1390853628767,947.11495576627,947.20612182161,0.00019850331066865567,0.00033031926490872883,Lift Up
0.7890527343703999,0.58532714843,1.03735351562,0.014384261189278066,0.4626000976517999,0.05554199218,0.71411132812,0.032961788737586574,-0.36541748046479994,-0.59350585937,-0.1669921875,0.012238819340196825,1.0096123468044,0.84216121922,1.2013346802,0.009903972475600377,947.1424997304837,947.09963179912,947.20612182161,0.000947621313665067,-0.0009004633751661423,Lift Up
0.640495605465,0.52551269531,0.79333496093,0.005832899345286232,0.7023681640592,0.45568847656,0.95874023437,0.018314284507381297,-0.02203124999940001,-0.42492675781,0.71447753906,0.08884213021168057,1.0051131851098,0.83033760054,1.19054576254,0.005704990427463414,947.1294906165418,947.10016802665,947.22139899482,0.0011372857770924776,0.0007263260010376417,Lift Up
0.7482226562457999,0.56188964843,0.89965820312,0.008204645677110324,0.5318334960902,0.3720703125,0.70495605468,0.007355348202812261,0.3193432617162,-0.15112304687,0.72827148437,0.05205084242517665,1.0016926109335997,0.83798645823,1.17258067182,0.008293707911993544,947.114468959515,947.08691194444,947.15947452087,0.0004264610292516372,-0.0004933590386719489,Lift Up
0.6681518554652,0.51635742187,0.78967285156,0.007450453711260009,0.6838842773395999,0.4951171875,0.89135742187,0.013155003322507103,0.1203027343734,-0.1259765625,0.39428710937,0.023890768782449306,0.9840334508213999,0.8300577408,1.11406121621,0.004370490783547985,947.1141364278642,947.07723304813,947.16468227089,0.000745035068804064,-0.0002999458820631746,Lift Up
0.6602514648412,0.56420898437,0.84130859375,0.005988861147784782,0.7279003906213998,0.52770996093,0.84436035156,0.009473739224406025,-0.0755102539044,-0.22241210937,0.31494140625,0.025712948910411586,1.0052372617254002,0.88998186581,1.0749996676,0.0017521367335771435,947.1751440206791,947.09463042065,947.24967229469,0.002983919695326775,0.0015789704785258059,Lift Up
0.5795483398406001,0.50708007812,0.69482421875,0.001837510418379669,0.803339843746,0.72045898437,0.90905761718,0.0023170889988659766,-0.2036352539024,-0.265625,-0.13415527343,0.0017486694425697784,1.0137688405432002,0.97614035065,1.16680831418,0.0008237106170748439,947.1159556518277,947.07666461058,947.1914345225,0.0005238906272631737,-0.0006153475821758828,Lift Up
0.59333740234,0.42980957031,0.75891113281,0.008256371508922769,0.8107836914024,0.70092773437,1.00231933593,0.006747781273055195,-0.1471728515588,-0.34387207031,0.01452636718,0.007752850055505204,1.0205494033576,0.88023969586,1.22621734889,0.012209761224411083,947.095000270542,946.96836360078,947.20166445632,0.003301562485480495,-0.0008748917145185741,Null
0.5370373535109999,0.33532714843,0.71569824218,0.009727052093434484,0.8265063476531,0.64270019531,1.00073242187,0.006879052615983959,-0.18813232421579998,-0.30603027343,0.26391601562,0.018526298042115228,1.0157834085508,0.8542606585,1.23985478156,0.00998058467796818,947.0988726182711,946.95449247243,947.4088512072,0.013730608755828775,-0.002829242060244718,Null
0.6117041015586,0.5283203125,0.77087402343,0.004182024339163662,0.8071069335901998,0.64270019531,0.93090820312,0.0045907230628661555,0.0666625976566,-0.09313964843,0.38464355468,0.02762082203949661,1.0303183806173997,0.901978299,1.19240479445,0.004566747826793299,947.1117357033564,946.84598079067,947.4418688091,0.029268541011387397,-0.002858267714281169,Null
0.5437988281217998,0.41528320312,0.62390136718,0.004830055164550018,0.7906225585901998,0.60583496093,0.93237304687,0.0072818948102921135,0.17843017578220002,-0.09826660156,0.69201660156,0.08346418855617878,1.0226962705897997,0.97278493772,1.12049284059,0.0013648873907606946,947.1118219073577,947.05306520183,947.16926769537,0.000929965143565832,0.00047413322984898084,Null
0.4693603515579998,0.40661621093,0.58422851562,0.002365740862716866,0.7889794921831998,0.58984375,0.955078125,0.016234009217781654,0.28117187499759994,-0.189453125,0.69067382812,0.07245312481124584,1.0055981665185998,0.93771138192,1.06420193429,0.0007677531611192415,947.2287401459275,947.09734935947,947.43054661122,0.010213806627677706,0.0031401644264317926,Null
0.49649414062099995,0.39526367187,0.6630859375,0.006340415212896549,0.8418847656207998,0.75134277343,1.00512695312,0.0036708568322286637,-0.2224780273404,-0.33959960937,-0.03588867187,0.007575165268212612,1.0085415034634,0.85603106755,1.18185675039,0.0050782541799819884,947.0695041928874,946.90442433217,947.34209722767,0.010404022991519917,-0.00027463381948865563,Null
0.3704394531223999,0.1552734375,0.568359375,0.015554134147175063,0.9384057617156,0.73657226562,1.13879394531,0.014615036074753243,-0.09307128905939999,-0.19494628906,0.11145019531,0.005642065592260844,1.0212716265393997,0.80925091009,1.24148888405,0.019141833513400094,947.140452171669,947.03865321514,947.24284564902,0.003647530997594113,0.0010812416068885938,Null
-0.5868188476549999,-1.25256347656,0.43957519531,0.3523608020360826,0.5414868164027999,0.14404296875,1.05444335937,0.05788770950761384,-0.1143212890594,-0.54370117187,0.357421875,0.053172183903381035,1.0400475226184,0.76383531387,1.42666938502,0.02800134204110296,947.1350261594189,947.03787293643,947.19123881864,0.0016942752151641188,0.0007791717271667291,Null
-0.6716650390586,-1.10522460937,0.56164550781,0.1990586645896801,0.6021850585892,-0.04565429687,1.33386230468,0.12688107035876503,-0.1514575195294,-0.49169921875,0.02722167968,0.013730490935898223,1.0661640447898002,0.66139033611,1.46885748733,0.036634245383996324,947.1848620485098,947.14158584118,947.27498574478,0.00109156014826139,0.0008449335024258843,Null
0.05557373046819997,-1.61267089843,0.92211914062,0.5299323236103205,0.1921386718752,-0.56225585937,0.92041015625,0.2822897211434286,-0.2195581054662,-0.72436523437,0.21630859375,0.09204380011742348,0.9439156265669999,0.37507459772,1.86155096123,0.09339186542701718,947.1273194168616,946.98089940403,947.26402979878,0.005010265048622812,-0.00010048235845121125,Stairs Down
-0.965966796871,-1.80688476562,-0.12707519531,0.1524698758371418,0.48809814452739997,0.20715332031,0.93383789062,0.03559564355051628,-0.08696533202960001,-0.36901855468,0.09619140625,0.013193870487203718,1.1049486771274,0.26742387766,1.92782770721,0.15881801738869442,947.2319922011925,947.18857526695,947.28820533821,0.0007838037262634384,0.0007883007844993884,Stairs Down
-0.9076464843713998,-1.37255859375,-0.44653320312,0.06456679536870942,0.44385009765279987,0.2958984375,0.59289550781,0.006154146152324214,-0.142868652341,-0.38891601562,0.03466796875,0.010961879316963906,1.0284943207988002,0.55572698468,1.46975716086,0.06495144072008868,947.2721299611807,947.24053389503,947.32909167943,0.0006592002189158263,0.00047759689117481775,Stairs Down
-1.0541699218716003,-1.67907714843,-0.44653320312,0.10746794611517417,0.45640869140299983,0.11560058593,0.9326171875,0.04668176851497165,-0.1172265624968,-0.28979492187,0.08569335937,0.008502644384537149,1.1742265089055999,0.55572698468,1.77222848844,0.11671022821033454,947.3438324940714,947.30106777721,947.38364964145,0.0006731135557874483,0.0007072961516128417,Stairs Down
-1.0848876953096,-1.7607421875,-0.72265625,0.05710786641269883,0.47578124999679994,0.15075683593,0.91882324218,0.05241938432038024,-0.15565917968360002,-0.3759765625,-0.00073242187,0.011621040142105512,1.2143287344846003,0.75187966124,1.85877667345,0.07365800209238837,947.430741647822,947.35674879505,947.50267136081,0.0010192156388730137,0.0009691250142866053,Stairs Down
-0.5840039062463999,-1.42883300781,0.06237792968,0.15944480917564788,0.44547607421540003,0.14575195312,0.90100097656,0.05061660849085114,-0.5769750976541999,-1.06127929687,0.14526367187,0.13416775012757573,1.0816440938748002,0.71162953074,1.5031978871,0.04367948366290266,947.5152473660569,947.41742350864,947.64804754336,0.004111104142043114,-0.00030520624406920173,Stairs Down
-0.37095214843559987,-0.73693847656,0.1494140625,0.055288930949977444,0.3954663085914,-0.12487792968,0.97241210937,0.10014323610705758,-0.8159960937474,-1.4287109375,-0.38720703125,0.07585665478830027,1.0710410802611998,0.74243695935,1.53477108712,0.04211682898151391,947.5261890193235,947.45264871642,947.66599526804,0.0038877227963863017,-0.0002623928016187876,Stairs Down
-0.9422119140585999,-1.34912109375,-0.31372070312,0.051325055686352955,0.40487548827779996,0.26281738281,0.68298339843,0.006932894274475865,-0.24655761718299998,-0.48974609375,-0.12097167968,0.007183913028733081,1.0712060389226001,0.75254427969,1.4682330226,0.03008401730241604,947.5679855534804,947.49280873699,947.6164058157,0.0010556815143764513,0.0009772019522834923,Stairs Down
-0.9793115234336,-1.17712402343,-0.81420898437,0.010051760553197125,0.3331469726531999,0.1083984375,0.60559082031,0.015152732537207272,-0.2306567382772,-0.36511230468,-0.10095214843,0.004539908309172795,1.0682185118078,0.88629565458,1.29629989879,0.011713802673461539,947.5988390094492,947.57942146366,947.62159994725,0.00016903013605842565,5.9507714713875754e-05,Stairs Down
-0.9994458007782001,-1.19470214843,-0.8173828125,0.011763089359448605,0.28129882812139995,0.14990234375,0.45837402343,0.009768489635090194,-0.2506249999952,-0.44860839843,-0.10900878906,0.009473212824802523,1.0770897826165997,0.86764882678,1.26516368488,0.011521387981554816,947.6304450657669,947.5809945231,947.75654182208,0.0028493038124389573,0.001353515601539512,Stairs Down
-0.7924707031212,-1.14074707031,-0.43359375,0.051674197924517946,0.41655761718399986,0.00146484375,0.74963378906,0.04608123420466173,-0.36700683593459993,-1.01208496093,0.18249511718,0.08212220321885963,1.0449216830537997,0.7309837158,1.29924808682,0.02266829964035612,947.6059804461681,947.53896418059,947.75654182208,0.0017935580782029322,0.0006756116334189708,Stairs Down
-0.19338378906159995,-0.87707519531,0.37719726562,0.13931610036199732,-0.0715307617183,-0.76501464843,0.34899902343,0.06972319338443139,-0.9149951171840999,-1.11791992187,-0.44226074218,0.02263363940557392,1.0439830999113,0.80340719682,1.40206798615,0.019379288014508556,947.639298810079,947.42827870399,947.79250314361,0.008333765088752087,-0.0003465670109567503,Stairs Down
-0.20886718749820005,-0.93395996093,0.40002441406,0.12857389567821262,0.317937011716,-0.2421875,0.73315429687,0.03562530737316715,-0.901643066402,-1.27734375,-0.64318847656,0.024349960299627077,1.0532373050839998,0.83038364846,1.54519535638,0.03537829850718397,947.6435005520348,947.54997654424,947.81695565356,0.006638616724468302,0.001751446957532715,Stairs Down
-0.3766113281223999,-0.8720703125,0.2607421875,0.10538957154998926,0.25913818359100005,-0.1845703125,0.6376953125,0.03537721706744539,-0.8707934570276001,-1.18713378906,-0.50183105468,0.030727321578150543,1.0506749479464002,0.67472012952,1.29752335944,0.03346591749538016,947.7505387606326,947.65564697369,947.82744744163,0.002835563011375028,0.0010436693524769087,Stairs Down
-0.4412329101537999,-1.23876953125,0.26245117187,0.15676457959504222,0.42727783202739994,0.140625,0.67260742187,0.013668039717935648,-0.8320434570274,-1.14587402343,-0.43505859375,0.03794280763187674,1.0989418061559997,0.68021412978,1.65576431962,0.06885628331890234,947.8259664532686,947.73782716388,947.88629031447,0.0016532800188758122,0.0005055199724989098,Stairs Down
-0.07866210937399996,-0.84448242187,0.67663574218,0.1787031124306089,0.010830078126,-0.33630371093,0.48010253906,0.0408079257144202,-0.8855004882776001,-1.14587402343,-0.63525390625,0.01754795149707338,1.0021679263302001,0.76908514966,1.46598711786,0.020973717134330175,947.90423544027,947.78930412214,948.12597907785,0.009350459997995398,0.002587210688447604,Stairs Down
0.0170581054678,-0.70336914062,0.67663574218,0.14828341645751925,0.24530273437359995,-0.33361816406,0.91577148437,0.0850584996095593,-0.8772216796842,-1.21057128906,-0.6083984375,0.02661852643973489,1.0240913576856001,0.63719246215,1.35758521654,0.03896971207840752,947.9011555806655,947.70311024335,948.15503018793,0.01051204485335783,0.0013279417793243815,Stairs Down
0.4618676757779999,-0.15209960937,0.91796875,0.05986523440947875,0.25880615234219995,-0.76306152343,0.64733886718,0.08973703481149284,-0.8072314453099999,-1.06408691406,-0.45861816406,0.02672035908466398,1.0353409175008002,0.5327188857,1.3095605325,0.034902593219499393,947.9991378627716,947.92404089427,948.06394142406,0.0011668445298692912,0.0003060370584555758,Stairs Down
-0.11323486328199998,-1.07885742187,1.08862304687,0.5781523662864086,0.49060546874659994,0.27172851562,0.91918945312,0.027263274072133307,-0.4429614257761999,-1.01098632812,-0.20422363281,0.03956470333593809,1.0326394070691998,0.6344709211,1.23718320736,0.022138464826516213,947.9786519612255,947.86444186945,948.09614670727,0.00392149521831862,0.0002941395236693106,Stairs Down
-0.9532446289018001,-1.1748046875,-0.74304199218,0.01662522704340123,0.2698583984330001,0.13037109375,0.47631835937,0.009863018652416736,-0.26950195312139996,-0.47680664062,-0.10876464843,0.008813302661454627,1.0342731561435996,0.81047327098,1.28735199929,0.01955328467380919,948.0267402969877,947.99379632916,948.09007436049,0.0006387885042005307,-0.00021964520742633783,Stairs Down
-0.8732641601532001,-1.16296386718,-0.53051757812,0.03466633912888184,0.6629589843721999,0.13403320312,1.8095703125,0.0928130498801833,0.07732910156179999,-0.62243652343,0.50122070312,0.0734555445762095,1.1548706848297998,0.79863426075,2.14134836504,0.07402422614578712,948.0502050465395,948.00125307443,948.1011399144,0.0007179843004989831,0.00017417282333693023,Stairs Down
-0.9436987304644,-1.15222167968,-0.76953125,0.010415298944646259,0.5077001953092,0.2314453125,1.8095703125,0.06758745441520554,-0.10958740234219999,-0.62243652343,0.11645507812,0.01790773616250145,1.1039559795457998,0.91920182218,2.14134836504,0.036938142225101084,948.0216689056998,947.98772220362,948.05013459191,0.0002750922447879927,0.0003981236380740067,Stairs Down
-0.462724609374,-1.27221679687,0.716796875,0.5136512534491531,0.45538818358919997,0.00305175781,0.8193359375,0.03477633915176828,0.1182788085932,-0.24304199218,0.79711914062,0.1120981106886348,0.9998678168394,0.19291701916,1.49177677933,0.09057286216686457,948.0447444403873,948.00515215966,948.1824292289,0.0011823765570382417,0.00017700765626592896,Stairs Down
0.5307641601523999,0.30908203125,0.81811523437,0.022626260007161683,0.7666577148399999,0.3984375,1.11437988281,0.03678994901837948,0.3626831054652,-0.10693359375,0.82104492187,0.06732888670189195,1.047516785493,0.71392162444,1.40526076596,0.029494857878905528,948.0612389165402,948.01735571864,948.16659117928,0.001647961180406535,0.0006953561905964408,Stairs Down
0.38655029296720017,-0.35900878906,0.85070800781,0.14585981940166673,0.6470874023399997,0.25085449218,0.91394042968,0.023735837147788038,0.007338867186599964,-0.79809570312,0.70532226562,0.2609365146774609,0.9907220620062,0.7920708482,1.23708570991,0.013023979396505556,948.0916707194957,948.03237239938,948.16186615171,0.0013291068600451842,0.0010590310142110642,Stairs Down
-0.4935449218707999,-1.07238769531,-0.07385253906,0.08114849235068736,0.0442993164054,-0.37084960937,0.45532226562,0.06539282669147509,-0.8196069335905999,-1.23681640625,-0.21569824218,0.052987621462896664,1.0226320854327997,0.4477396789,1.53609855502,0.06975940795296783,948.1381463646935,948.05298513076,948.25351386315,0.0041098902329913724,0.0008653426726735723,Stairs Down
-0.24418212890479998,-1.04760742187,0.38366699218,0.11849288362784843,0.2872021484332,0.08081054687,0.52270507812,0.011461387114109196,-0.9891601562457999,-1.63220214843,-0.51281738281,0.058622270520863426,1.1057326567902002,0.6005009909,2.00867761535,0.08544835192668955,948.2020467438759,948.10698302557,948.370783861,0.003730524608310281,0.000671586047028336,Stairs Down
-0.5128808593726,-1.18334960937,0.2001953125,0.14510435662976032,0.303381347652,0.05334472656,0.56030273437,0.015155071110316774,-0.7585888671836,-1.0087890625,-0.49938964843,0.023943026716010306,1.0442504833944,0.75754111631,1.37645136571,0.022672166941060983,948.3007940917811,948.20751340347,948.370783861,0.002826145160945003,-0.00030855418890294255,Stairs Down
-0.2975195312485999,-1.0927734375,0.42761230468,0.18577572856059155,0.23406982421739997,-0.21862792968,0.61206054687,0.06323068144755013,-0.7760498046841999,-1.08459472656,-0.49938964843,0.02410284858788884,0.9943817887034,0.70526385832,1.37106867166,0.027417048222056817,948.3760711814936,948.28187545984,948.45250420345,0.0029778561483292535,0.0011423462792914535,Stairs Down
-0.4112866210915999,-1.13586425781,0.67932128906,0.3175442651096054,0.180895996092,-0.16662597656,0.75415039062,0.04686492997531465,-0.6258056640579999,-1.03930664062,-0.42529296875,0.02825512368295818,0.9782026245768001,0.66894319631,1.2479247808,0.02562633950567743,948.3971085934231,948.3363066994,948.48102084094,0.0020389418395464604,-0.0003334719487139793,Stairs Down
-1.0468872070276,-1.61767578125,-0.77294921875,0.045287369628057406,0.2629980468716,0.1279296875,0.46789550781,0.007409257262655346,-0.2282324218718,-0.66650390625,0.16198730468,0.03766965290479614,1.1222245152608,0.83977824998,1.74146269787,0.0477834238740259,948.4614766586808,948.39727132816,948.51732758538,0.0012662102044503918,0.0010354084766607357,Stairs Down
-0.9708935546833999,-1.22717285156,-0.70178222656,0.018126694337369683,0.30308837890339996,0.16271972656,0.5458984375,0.010272388657043795,-0.146276855465,-0.25805664062,-0.076171875,0.002568685195608524,1.0323707481842002,0.74069442141,1.31013471486,0.020972229491979525,948.5056238278389,948.45013185417,948.56879766821,0.0012952123064839292,-0.0004591589251864633,Stairs Down
-0.978144531246,-1.17932128906,-0.75561523437,0.014885544752850224,0.32683593749699996,0.13806152343,0.51208496093,0.010810638413236876,-0.20468994140219998,-0.44763183593,-0.07836914062,0.009036505276613668,1.0622251983112,0.85355295933,1.24752258129,0.011666076554783958,948.4713144712232,948.45036892978,948.50862315847,0.00023300661519528259,-0.00014963806513652061,Stairs Down
-0.9554565429654,-1.19348144531,-0.78540039062,0.015753514989518845,0.297514648434,0.17077636718,0.47302246093,0.006220208009034384,-0.16252929687120002,-0.38610839843,-0.02124023437,0.010654855352496837,1.0212701522720002,0.84020713219,1.26818937543,0.017310618701092892,948.4713233858283,948.45036892978,948.49897251778,0.00011171141126883529,8.03308917479349e-05,Stairs Down
-0.9675048828081998,-1.11291503906,-0.8388671875,0.006161132244156835,0.37008056640339987,0.22729492187,0.66967773437,0.01506250630130943,-0.14043212890380002,-0.279296875,0.005859375,0.007416327246365535,1.0548050971808,0.93908571604,1.24108997779,0.008571999811026963,948.4643778367323,948.45268430867,948.47652086217,4.7895264886885776e-05,-6.950741336686524e-05,Stairs Down
-0.2254052734366001,-1.11364746093,0.58740234375,0.44436635045852135,0.41414306640200005,0.20373535156,0.74792480468,0.025487183687701174,0.422324218749,-0.31384277343,1.00903320312,0.18518207135589598,1.0112500351263998,0.74866805417,1.3169832182,0.026806442816887852,948.4927939148246,948.37431984533,948.60515293777,0.003188107579777283,-0.0003794532072616187,Stairs Down
0.37065917968399986,0.14721679687,0.6591796875,0.020342608991232285,0.6011718749959999,0.08715820312,1.28552246093,0.09187636772767609,0.4906103515599999,-0.49853515625,1.11022949218,0.18789232008168488,0.9800473105480001,0.42669333313,1.48723456855,0.07688062702142957,948.4888772836035,948.41093212237,948.6070708745,0.004187056393047781,0.001143087124634059,Stairs Down
0.4862329101521999,0.27197265625,0.67565917968,0.013932958570275523,0.5189013671837999,0.36486816406,0.88977050781,0.02273623170268943,0.6511889648399998,0.05993652343,0.92041015625,0.034355145036958995,0.9971862309588001,0.73272463835,1.12014345439,0.00571904288514547,948.5198505476219,948.47178778298,948.59347079076,0.0011253430003848948,-0.00018252572625950545,Stairs Down
0.0933984374966,-0.08984375,0.27197265625,0.007424353734204523,0.8714477539019998,0.47119140625,1.41333007812,0.06269277000020558,0.1479003906242,-0.68688964843,0.95886230468,0.252248600272486,1.0317193599885999,0.73272463835,1.43225615775,0.04516788934128791,948.5447709655107,948.47178778298,948.66127061697,0.002213679214446042,0.0006415375847694494,Stairs Down
-0.6072131347617999,-1.50036621093,-0.06799316406,0.16400814637273659,0.6388146972612,0.158203125,1.0703125,0.05079452559685175,-0.2926696777309,-0.54284667968,-0.01721191406,0.024856066274687685,1.0147001570493002,0.68753247834,1.57078124874,0.06131291501913917,948.6278212614146,948.57838438212,948.68279674349,0.0009033875571462155,0.00021200808478173368,Stairs Down
-0.9896337890587,-1.4208984375,-0.59167480468,0.0731945425216416,0.4078552246058999,0.158203125,0.70617675781,0.020057533839616982,-0.20777343749700003,-0.40930175781,-0.03686523437,0.011096344355416886,1.1038090759556998,0.64332024062,1.50358546415,0.07454664885011605,948.7280453907792,948.68279674349,948.78492245752,0.0008207444558043252,0.0008675857226969913,Stairs Down
-0.9146557617145998,-1.47546386718,-0.56555175781,0.0535398005292813,0.3556127929651998,0.21875,0.57116699218,0.011481723815435097,-0.1984228515586,-0.39733886718,-0.07653808593,0.006089887378134659,1.0064775689392,0.64317463374,1.61464863204,0.06043479778728764,948.8075513126856,948.76705156786,948.85514929567,0.0007443169233364368,0.0008087363999952326,Stairs Down
-0.936508789058,-1.37097167968,-0.70434570312,0.01710565983640016,0.3608398437455999,0.22583007812,0.66174316406,0.0070713981234494985,-0.13339111327720002,-0.21569824218,-0.02368164062,0.0036158482293909082,1.0160265203478003,0.74397248899,1.52913404257,0.020456950505112637,948.8433124742556,948.82501293762,948.8766755085,0.00012690170675718707,1.7115937896327908e-05,Stairs Down
-0.9303735351519999,-1.37097167968,-0.72692871093,0.03010792256004779,0.39209960937119986,0.265625,0.66613769531,0.009088598622122853,-0.08072021484199998,-0.20239257812,0.06591796875,0.007802886679572388,1.020910537086,0.81025177512,1.52913404257,0.030428142136180083,948.8843493413739,948.83410176977,948.93162227463,0.000684287910601248,0.0007005796379326429,Stairs Down
-0.9891772460903999,-1.35803222656,-0.75256347656,0.01619942357436785,0.3827441406207999,0.22143554687,0.76525878906,0.015301764709794342,-0.11126708984060002,-0.33935546875,0.06323242187,0.012388490215472869,1.076442761219,0.82941504529,1.45887604276,0.022289727452601767,948.9357769826196,948.89858982453,949.04314181621,0.0015062055007065028,-0.000686357019726144,Stairs Down
-0.9588281249962001,-1.26916503906,-0.74536132812,0.01986838111989625,0.3873461914026,0.18774414062,0.67626953125,0.01949936152125893,-0.15153320312080001,-0.36022949218,0.00390625,0.009036750961892352,1.0574910355018,0.80753046421,1.35461618836,0.0222059751793099,948.918465869996,948.89567003784,948.9375065634,0.000148387987754334,-0.00020691047373512877,Stairs Down
-0.9595654296830999,-1.07922363281,-0.77416992187,0.0057321302577651,0.3946435546833,0.22229003906,0.69653320312,0.014711029204372457,-0.10572998046620002,-0.29162597656,0.02111816406,0.007888174725022441,1.0539201988738,0.87838557609,1.23812759962,0.00895113366351436,948.9139768158437,948.89009532969,948.94961077078,0.00020803192866794475,4.455552598752553e-05,Stairs Down
-0.9396691894491,-1.13391113281,-0.75939941406,0.012187087732687866,0.38730834960539995,0.23400878906,0.57458496093,0.011549186241485451,-0.0956042480435,-0.28344726562,0.01245117187,0.0065082124069236165,1.0263283608995002,0.80874393745,1.25992351991,0.018907325907782525,948.9118121456179,948.87585971537,948.94868446419,0.0002620138667351674,-0.0002555674609206013,Stairs Down
-0.9526647949171999,-1.13012695312,-0.75659179687,0.011883219340668053,0.3743725585899,0.21520996093,0.6298828125,0.013705517613726624,-0.1407946777313,-0.29125976562,-0.00561523437,0.00532840445033732,1.0401182341162,0.82453997169,1.25220262061,0.0164749438649751,948.9230464628167,948.88232227096,948.97594672541,0.000638410091708499,-0.0004419669254002841,Stairs Down
-0.9353015136683002,-1.04833984375,-0.77551269531,0.0053410531580652815,0.3966052246056999,0.22473144531,0.63745117187,0.013996949248311857,-0.0925280761683,-0.22045898437,-0.02722167968,0.002948240949415601,1.0264252490378998,0.86911597913,1.2194508347,0.009253191510692682,948.9197945998127,948.89418752327,948.93951263896,0.00014918594585113258,0.0002178075736021295,Stairs Down
