avg_accX,min_accX,max_accX,var_accX,avg_accY,min_accY,max_accY,var_accY,avg_accZ,min_accZ,max_accZ,var_accZ,avg_magnitude,min_magnitude,max_magnitude,var_magnitude,avg_pressure,min_pressure,max_pressure,var_pressure,slope_pressure,Label
0.38267981487402164,0.357421875,0.47375488281,0.00071487114066086,0.5614796514059783,0.51770019531,0.60363769531,0.0008698716862843592,-0.7682654339286955,-0.81384277343,-0.69958496093,0.0011320814055724496,1.0269238163984784,1.01092871819,1.04050404358,5.033257146689734e-05,974.1203386061101,974.11289057216,974.12746991869,1.369533030957322e-05,-3.573316543064217e-05,Null
0.5401574707000001,0.46899414062,0.63720703125,0.0030522850592786524,0.4877624511687999,0.36572265625,0.6005859375,0.004896816092036669,-0.7209448242155,-0.78393554687,-0.65576171875,0.0008683481541478932,1.0283640462368,0.96802294273,1.0756785929,0.0006468734412197004,974.1165221131977,974.10371286186,974.13800548158,7.324049125547777e-05,-6.93601317723057e-05,Null
0.5332678222608999,0.42504882812,0.65808105468,0.006526241836868508,0.476407470699,0.33874511718,0.58898925781,0.006466265235190165,-0.7274731445277999,-0.82275390625,-0.6123046875,0.0024491378213541484,1.0269052850774998,0.96802294273,1.10306128542,0.0012208066282632308,974.11896549645,974.11078390226,974.12685695826,1.4954413062864718e-05,4.649211675346366e-05,Null
0.5179833984330999,0.47839355468,0.55895996093,0.00024900077566535907,0.49618164062109993,0.41687011718,0.54760742187,0.0014387050301339088,-0.7370751953090999,-0.76196289062,-0.71179199218,0.00021436156648827335,1.0295399730831998,1.01324848013,1.03974706284,4.306872792744327e-05,974.118316337802,974.11185475218,974.12685695826,1.4407978032321086e-05,8.707216221121649e-05,Null
0.5297265624959998,0.41711425781,0.73071289062,0.008341442599468262,0.5060156249947999,0.27111816406,0.69323730468,0.017643366823323483,-0.7287988281204,-0.98400878906,-0.66381835937,0.005757704792650028,1.04651020551,0.96001959589,1.26885809437,0.004092176224565519,974.1306287829652,974.11035402745,974.20058314734,0.0003046172717187974,0.0002164728116288201,Null
0.29618652343440005,-0.31591796875,0.86022949218,0.11361519842252182,0.5993359374971999,0.31494140625,0.9599609375,0.03234413811605083,-0.6619775390579998,-0.90270996093,-0.44360351562,0.016350410104887036,1.0141056891795999,0.77913939526,1.25922315879,0.01759655071832584,974.1502040542614,974.06861137969,974.22414036593,0.0015221527714935404,-0.0004157158119896162,Null
-0.20872070312320004,-0.55249023437,0.18127441406,0.07063970382587069,0.7014257812455998,0.27490234375,1.12524414062,0.10459305170783671,-0.4992724609335999,-0.88891601562,-0.07312011718,0.07664404189928734,1.0100001973516002,0.74810563695,1.18811817141,0.014235433905759277,974.0775334850915,973.98383262847,974.2962538498,0.006784955669260022,-0.0016168266020099406,Null
0.0880517578112,-0.171875,0.31652832031,0.018829790894945478,0.930932617184,0.73913574218,1.13354492187,0.007164498772419284,0.06084960937440002,-0.52795410156,0.62927246093,0.20994690827309256,1.0505751238439998,0.92117002978,1.28179289783,0.00804547461818624,974.0812653442108,974.04653131918,974.10654290158,0.0003648396777280553,-0.0002983068811476977,Null
0.1466259765604,-0.09643554687,0.46667480468,0.01873768661890496,0.5754785156215998,0.27819824218,1.11010742187,0.08147687709686081,-0.6184374999975999,-1.00134277343,0.39514160156,0.1795266267978731,1.0025207100184002,0.74081830668,1.11483114004,0.007106712059595765,974.2037525949443,974.0303858854,974.34210563863,0.009152877522548423,-0.000816521285156708,Lift down
0.7980078124955999,0.51989746093,1.00036621093,0.00974154775784928,0.5294238281203999,0.31237792968,0.72973632812,0.013992982055356042,-0.339262695308,-0.63317871093,-0.25061035156,0.00668113674758552,1.0298792389968,0.96420796099,1.11910896189,0.0016823212086857103,974.0608633289571,973.9784665346,974.11628868704,0.0014955560057630243,0.0011815467582720926,Lift down
0.8236328124968,0.73864746093,1.03723144531,0.005105455716419354,0.5044921874967998,0.33410644531,0.63330078125,0.004930573280397075,-0.31590820312120005,-0.41040039062,-0.08361816406,0.00824449991940003,1.0239966504704001,0.94462366464,1.16010334395,0.002232276079637797,974.1442291125974,974.11628868704,974.15386513887,5.4138632320233916e-05,-0.00013998199348893423,Lift down
0.7776123046832,0.70385742187,0.85534667968,0.002162183173990308,0.6192431640583999,0.48132324218,0.71032714843,0.003814445216284585,-0.19592773437160005,-0.2724609375,-0.08190917968,0.003336817905190217,1.0170456925,0.941292,1.0832444561,0.0013828696217368498,974.1479416095078,974.13554968627,974.16141377148,5.76306552770637e-05,0.00014953348975428328,Lift down
0.7255761718712,0.70275878906,0.73547363281,4.5447542200717125e-05,0.6766894531208,0.634765625,0.689453125,0.00010818794520674222,-0.19783203124640003,-0.29406738281,-0.15979003906,0.0017153757750485825,1.0125796625332002,1.00065653081,1.02860610337,4.005850157704424e-05,974.155224076916,974.14852607504,974.16453545925,1.9110548660722932e-05,5.7457577518902975e-05,Lift down
0.7314465455299999,0.72497558593,0.73767089843,7.426706790193466e-06,0.6780845564990908,0.67272949218,0.68591308593,1.447561032365266e-05,-0.16537814669737372,-0.17907714843,-0.15270996093,6.655574925076091e-05,1.0110543268144443,1.00505795449,1.02075112102,1.9556456230131697e-05,974.159151823397,974.15291474288,974.16455865485,1.0388455420229904e-05,4.634579236364184e-05,Lift down
0.7330975773322224,0.72839355468,0.74133300781,1.9145046306843604e-05,0.6777491713980807,0.66369628906,0.68762207031,3.3445891285717074e-05,-0.15144733467111113,-0.16369628906,-0.13757324218,5.7200133080406776e-05,1.0098565673488893,1.00277164926,1.02189633029,2.128231210505055e-05,974.1597716324131,974.15575329515,974.16468274635,8.343266564229653e-06,-2.7302655803114068e-05,Lift down
0.7304144965240403,0.72424316406,0.7353515625,9.730829944163214e-06,0.6820635554734342,0.67321777343,0.69311523437,2.658467911017537e-05,-0.14332164417282828,-0.1572265625,-0.12939453125,5.416392395530459e-05,1.0096209916460608,1.00314625869,1.0172208133,1.2266762103211448e-05,974.1572875802683,974.15033364888,974.16303158456,7.921151081159133e-06,4.711058120260168e-05,Lift down
0.7266782780245361,0.70971679687,0.73864746093,4.760032244509202e-05,0.6891913659754639,0.66284179687,0.72143554687,0.0001645119208202065,-0.1494996375601031,-0.17163085937,-0.13195800781,0.00010079709345570554,1.0127315622720618,0.99614304065,1.0357631128,8.150684272228775e-05,974.1495331333293,974.13610595808,974.15814888879,3.8131790215507075e-05,-0.00014985895041089755,Lift down
0.7268638610794792,0.71423339843,0.73559570312,2.3134743895287664e-05,0.6904614766401043,0.67456054687,0.70129394531,4.423644818453087e-05,-0.13437525431010416,-0.16333007812,-0.109375,0.00020832031016370156,1.0116184180009375,1.00452415212,1.02346635006,2.610019483068163e-05,974.1517167478161,974.14482139349,974.1564631351,6.238506225614338e-06,-2.1175841132316565e-05,Lift down
0.6955718994106249,0.67504882812,0.73168945312,0.0003374360893958082,0.6621475219683334,0.63696289062,0.681640625,0.00016656276819523503,-0.12064488728479167,-0.13842773437,-0.1044921875,8.320102403054477e-05,0.9680666206758334,0.93683378866,1.00884711217,0.0004905336696580257,974.155226301668,974.14704041844,974.1721124185,3.209489283706191e-05,0.00014998630689158377,Lift down
0.7149225870724999,0.67504882812,0.76257324218,0.00048058000964715003,0.6725311279270834,0.55883789062,0.75964355468,0.0021078879111908265,-0.19235738118166665,-0.5400390625,-0.08850097656,0.014250038145951464,1.0078823373348957,0.95195505379,1.0697179173,0.0012632434704503447,974.2380327426869,974.1721124185,974.33336661272,0.002231829211453025,0.0016545399437615127,Lift down
0.8023045316627658,0.66320800781,0.8837890625,0.004325346513720942,0.5852414394904255,0.44311523437,0.81762695312,0.008748945955807944,-0.36190990691138286,-0.53503417968,-0.27416992187,0.0039568785139110114,1.0632985204076597,0.9129771285,1.19695727934,0.0034619589075283144,974.4514107395821,974.33336661272,974.54258542324,0.002924325167250022,0.0018468230228877735,Lift down
0.8271068816455318,0.75231933593,0.9375,0.0018084954681586655,0.4704849567775531,0.40551757812,0.55187988281,0.0022059246008843156,-0.3917496052160637,-0.46606445312,-0.27587890625,0.0044992998315254865,1.0325918205227662,0.9646115429,1.118193327,0.0011188243957654493,974.5608826727198,974.54258542324,974.58522416546,9.857317390500069e-05,0.0003091809891764793,Lift down
0.8744234125618086,0.77514648437,0.91625976562,0.0014809986609935998,0.4328678212234041,0.36401367187,0.5322265625,0.0024245991395832308,-0.2746608003619148,-0.37670898437,-0.19592285156,0.0020063218181016543,1.0161250762992553,0.94710446589,1.06412699191,0.0007765274485799446,974.5898252167902,974.57668520272,974.60006907081,4.6303351989811925e-05,0.00021330050256077883,Lift down
0.8941492880517204,0.87854003906,0.90563964843,5.456261849625038e-05,0.38720178090978474,0.37780761718,0.40930175781,4.3290436919572076e-05,-0.2742696782550538,-0.28894042968,-0.24926757812,7.413196376274027e-05,1.0123081442855915,0.99811323807,1.03207233182,5.4972710830457106e-05,974.5997569215691,974.59507546331,974.60428400724,4.80396689803824e-06,2.3201612157857125e-07,Lift down
0.8910031525947825,0.845703125,0.94030761718,0.000386469003833203,0.4211293096088043,0.22717285156,0.50805664062,0.0033669607510047436,-0.25495711616434785,-0.30224609375,-0.20666503906,0.0007265979630237992,1.019800092575,0.93434295758,1.09008055681,0.0006862061421492615,974.5963752677426,974.58498810562,974.60341135925,2.233516461237078e-05,-0.00013884754395462615,Lift down
0.9516427176295603,0.82092285156,1.09326171875,0.005803559081976907,0.30752731155153845,0.11633300781,0.44934082031,0.0054167011828638745,-0.10179188486912086,-0.25036621093,0.03076171875,0.006295946516872764,1.0118107294797805,0.88182643238,1.10867161682,0.004167057739527449,974.5869830909639,974.56277708095,974.61044772116,0.00013630676168293623,2.5150520913527416e-05,Lift down
0.929970542149011,0.73962402343,1.10046386718,0.010860972232084596,0.3850835443802197,0.10656738281,0.55017089843,0.014170203897456792,-0.11773346282285714,-0.26049804687,0.02990722656,0.006254211843207785,1.023655186695055,0.85733418461,1.18710853373,0.010179224552192844,974.5789914960396,974.56233783882,974.61039342651,0.00014944043478468913,-3.5069028296726716e-05,Null
0.8458104395563737,0.68725585937,0.97570800781,0.005599936126070226,0.5110252296501098,0.25720214843,0.63940429687,0.009478033873579834,-0.2159410413769231,-0.55407714843,-0.0146484375,0.02278557403044903,1.0273825427510987,0.873315501,1.2035400554,0.0055532944949206724,974.5846166461426,974.57194986436,974.61039342651,9.192962576273325e-05,-0.00020207680560740558,Null
0.8813815646661111,0.80847167968,0.98815917968,0.0018576420518294848,0.42505696614199995,0.21203613281,0.53442382812,0.00979968764813919,-0.2750583224792222,-0.4423828125,-0.14501953125,0.006527713519773129,1.024701475971111,0.9490775957,1.10323181553,0.001146579867767565,974.5797507100737,974.57194986436,974.5862432793,5.5382650607375335e-06,3.090126292555057e-05,Null
0.8982224897865909,0.87341308593,0.96618652343,0.0006391882192219223,0.4307639382067046,0.2421875,0.47692871093,0.0023679485078952353,-0.17205394397738638,-0.208984375,-0.1044921875,0.00046253202594170666,1.0126731663052273,1.00083716189,1.03458329664,8.522402673847378e-05,974.5796873232717,974.5724897412,974.58392848425,1.1289695401537679e-05,-5.9328298028353696e-05,Null
0.910183681528427,0.65478515625,1.05627441406,0.008447487839334413,0.4166671238546067,0.2421875,0.58337402343,0.010000932942554507,-0.19044751799157303,-0.45751953125,0.033203125,0.017886793258172797,1.032732252082135,0.80278219187,1.23270171263,0.007794713093251401,974.5854209698598,974.57169291115,974.60272457156,8.284404490658618e-05,1.7875642611618375e-05,Null
-0.08630648526125001,-0.8125,1.14050292968,0.5821364189560462,0.24406849254022725,-0.49719238281,0.853515625,0.13808398775414651,-0.3842856667213636,-0.77600097656,0.00415039062,0.06230390852721034,0.975576629190341,0.60164724719,1.34477291428,0.03699635932505073,974.571658527973,974.5498243305,974.59701897833,0.00014721912705595465,-6.873975725947929e-06,Null
0.26619746767195407,-0.85534667968,1.29663085937,0.6289022735707405,0.11496778466045979,-0.48095703125,0.75988769531,0.1278107712173139,-0.3096067932797702,-0.69396972656,0.07238769531,0.06588276254334277,0.9781995533354021,0.62984777545,1.3137779996,0.03662231283981074,974.5370107188411,974.42987868463,974.69582421071,0.006195717948131229,-0.002226108636328545,Stairs up
0.9537984913754022,0.55078125,1.22277832031,0.030434345042282544,0.26830212822908056,0.12915039062,0.64562988281,0.01621888744034213,-0.11993478358068967,-0.29077148437,-0.00378417968,0.007229208902337353,1.008777164875402,0.58933435637,1.28724917982,0.03210267737138117,974.5018119614344,974.47136038021,974.52730052135,0.0001915385403521622,-0.0003441353394999842,Stairs up
0.9491233387172412,0.61047363281,1.22216796875,0.03134959569704811,0.2582600911414943,0.06726074218,0.60046386718,0.01115944831398827,-0.10747659617206896,-0.24267578125,0.02673339843,0.006013854907756509,0.9949324300827587,0.63806712832,1.2785567494,0.03363361281681065,974.4576494609938,974.40247444213,974.48847013891,0.0004518587841158084,-0.0006499966879637258,Stairs up
0.9326889935635294,0.68933105468,1.13842773437,0.020691996633482902,0.3324893726982353,0.22644042968,0.45837402343,0.004887988846155652,-0.10928308823164705,-0.23376464843,0.00842285156,0.004068907494311964,1.001040612276706,0.74465926311,1.21472071058,0.019852063775636107,974.380654017603,974.34089488025,974.44495948254,0.0006872517057027603,-0.000967662399007504,Stairs up
0.9760344749233721,0.7041015625,1.31335449218,0.032541925921464696,0.3355712890588372,0.20080566406,0.57385253906,0.01116105423260069,-0.15316559547302327,-0.30029296875,-0.025390625,0.006338387175134481,1.049090861400349,0.75403428843,1.43347530239,0.03802104660200165,974.3076265641914,974.26390390248,974.3608220481,0.0007240356997063963,-0.0009446138190984218,Stairs up
0.9384636374051761,0.52624511718,1.33178710937,0.06142348761482951,0.28799115348929405,0.14733886718,0.65295410156,0.01676758072810772,-0.14549057904035295,-0.35791015625,0.02282714843,0.007375292888958526,1.00183540651,0.56686075325,1.4769500244,0.0664881416597664,974.2203150319804,974.17338907948,974.3037171069,0.0009988817843974403,-0.0011094604810297705,Stairs up
0.781324114114643,-0.39855957031,1.25366210937,0.17659652018261207,0.4684288388171427,0.14111328125,0.90148925781,0.05160547802950263,-0.10798281714821427,-0.35534667968,0.24633789062,0.02352104241449843,1.0133262078924996,0.62731387256,1.44316983043,0.06421402396139204,974.1484937320076,974.11178273181,974.18879853993,0.0003221123776529402,-0.0006177923540672258,Stairs up
-0.7152797153992856,-0.97961425781,-0.39855957031,0.029294558061668842,0.4741210937460712,0.14831542968,0.74890136718,0.029090126236116946,-0.34564790271273815,-0.93640136718,0.15197753906,0.09409204355318945,0.9969517079173807,0.81025643717,1.17602917918,0.012789431372376222,974.1080248712649,974.07418944989,974.17008550539,0.0009371331361497072,-0.0010419109550812036,Stairs up
-0.8334277925008334,-1.12194824218,-0.60791015625,0.022460540500895916,0.5583728608594047,0.24035644531,0.78112792968,0.013855627672992296,-0.10721987769750002,-0.50891113281,0.24047851562,0.06284788340304255,1.0480496220716666,0.87253350647,1.30915769125,0.01766404227783804,974.0953314644869,974.02578160235,974.18831912326,0.0012703913953953068,0.0010945710240952186,Stairs up
-0.815990034351807,-1.02709960937,-0.66027832031,0.015048059034724247,0.515133777292771,0.21020507812,0.73120117187,0.019326982329391753,-0.14516660391445782,-0.5400390625,0.06823730468,0.03439402244347199,1.0059153719604823,0.83880468453,1.25302723648,0.008452510360405405,974.0608767726338,974.00841846733,974.15396140083,0.002671958927616539,-0.001550980557961961,Stairs up
-0.9014363116493976,-1.09875488281,-0.66711425781,0.01467077477405968,0.18377612010385544,-0.09228515625,0.5263671875,0.03296416357193083,-0.2050487104640964,-0.51794433593,0.134765625,0.04954192681646806,0.9883632363989155,0.80657220693,1.19641574111,0.007642308442944803,974.1012218367706,974.0556372156,974.17056897006,0.0011892884832558825,0.0012137205100155339,Null
0.5703556712040243,-0.69250488281,0.87145996093,0.2610255613611408,0.5565081340468292,0.00744628906,1.00830078125,0.05608533679775978,-0.3571390291503658,-0.64953613281,-0.16137695312,0.015567139297996281,1.0320885697545121,0.73322064394,1.42248598532,0.0262899627854534,974.0803535044416,974.05469943599,974.09967328736,0.00023855652094937515,0.00025930159086858857,Null
0.859837661550247,0.787109375,0.98303222656,0.002313135831023353,0.5386465567092592,0.42114257812,0.63793945312,0.003120586565869596,-0.11466772761938271,-0.38781738281,0.00830078125,0.011797631646863708,1.0282542508882715,0.95272617125,1.12227219109,0.00235043961566626,974.0943091159381,974.08333507174,974.10650038991,3.5320581592356964e-05,5.426220038630976e-05,Null
0.9006046248048146,0.7626953125,1.04614257812,0.006572113756292542,0.38409499179802464,0.23376464843,0.58642578125,0.006977347330629937,-0.159835250285679,-0.28125,-0.05749511718,0.004329938234692031,0.997142203275432,0.85467831573,1.14743053639,0.007625190776924083,974.0796950304577,974.06651852278,974.10151775598,6.920773981133065e-05,-0.00012316317129064394,Null
0.8640814887116048,0.71716308593,0.939453125,0.003447056934329865,0.36684088059111103,0.16857910156,0.54296875,0.011384473166115228,-0.3838041329054321,-0.50830078125,-0.17651367187,0.010337951177075234,1.0259437540780245,0.94546751059,1.11952462523,0.0018158976784114988,974.0855318735183,974.0725130227,974.11117938692,0.00010823359408521248,-0.0001311605295344008,Null
0.8498825073198748,0.72302246093,0.94921875,0.004138379626663683,0.331164550777125,0.15100097656,0.53942871093,0.014599526833695768,-0.45397186278775,-0.56433105468,-0.36120605468,0.0033826916065282627,1.029080020845375,0.9829712653,1.11552896299,0.0009104703119800844,974.0751892653377,974.05305117739,974.10263245444,0.0001706605812948954,-0.0002874688721584788,Null
0.8245695089959492,0.78955078125,0.85461425781,0.00028292466701225385,0.3477628683711393,0.2919921875,0.42492675781,0.001410466496421111,-0.4815210269940504,-0.54235839843,-0.40747070312,0.0010647259093859779,1.0173083075792406,0.95003697957,1.05830366657,0.0005301089912277461,974.0797416420224,974.07082502122,974.09338016245,1.4900768804415962e-05,-2.3792449851937346e-05,Null
0.803485107419375,0.77795410156,0.83813476562,0.00024825187420917364,0.4123947143505001,0.35131835937,0.45031738281,0.0009240104215797879,-0.45639038085600003,-0.48681640625,-0.41711425781,0.0002789095610276196,1.012508561257625,0.98232839909,1.03645375824,0.00021199351454857478,974.0861973155058,974.07811676242,974.09741120477,2.929143012117482e-05,0.0001453036426286794,Null
0.8414152121207594,0.79052734375,0.90649414062,0.0016644231658207713,0.3896808865673418,0.2431640625,0.46398925781,0.0035821140991287026,-0.40169785897620247,-0.49658203125,-0.30578613281,0.0036061494595032014,1.0147434900016452,0.97407826876,1.0332846366,0.0002311249805446802,974.0837211055116,974.06904244351,974.0900605412,2.1447998771199988e-05,-8.87018888601081e-06,Null
0.8886374449080767,0.63256835937,1.15600585937,0.024622507256881112,0.3973028720915385,0.28198242187,0.59460449218,0.006278359312786808,-0.3628414838701282,-0.58959960937,-0.15307617187,0.017282623106721583,1.0483682942270514,0.76353359677,1.33857701647,0.02802904206629272,974.0924179733242,974.07420144523,974.11349415334,0.000135146417873387,1.540883625402476e-05,Null
0.8374414688484615,0.626953125,1.07360839843,0.02114134658971681,0.4185775365544872,0.29699707031,0.55725097656,0.005483615512009112,-0.40556452824141015,-0.65051269531,-0.21691894531,0.02000212562189181,1.028792062363974,0.77104268045,1.30523269934,0.028985763741672874,974.0911223732433,974.07321416827,974.11629958365,0.00017473990342704377,-0.00019532238786262304,Null
0.8632029997960253,0.62414550781,1.12365722656,0.019636649967128675,0.40331718248871784,0.18566894531,0.65185546875,0.014313200454740821,-0.28657414362589745,-0.64758300781,-0.11987304687,0.019928446540313175,1.0112180758928209,0.73870001123,1.24492590538,0.02080114220698114,974.0824746698789,974.0581736093,974.11665811749,0.0002877871175314066,-5.4560432795136934e-05,Null
0.8543827998135063,0.64880371093,1.02416992187,0.011406590509088498,0.5238163935632466,0.32360839843,0.69104003906,0.0076356203087386615,-0.17670549664870128,-0.53759765625,0.08337402343,0.0193273211104185,1.0302186922789611,0.83744207793,1.25283970736,0.012258286250481082,974.0993183916272,974.07585110568,974.13570504196,0.0002846698634343733,0.0005268609672281333,Lift down
0.7142725235341024,0.12902832031,0.88024902343,0.052702632621189065,0.6157492613133331,0.37707519531,1.06970214843,0.030861382224122973,-0.0980428059874359,-0.2578125,0.11975097656,0.010068378438771943,0.9930318752017948,0.86166149616,1.15010993525,0.005332824859754486,974.1285404115356,974.11636968793,974.13644777986,3.387615724220587e-05,0.00013892741294064753,Lift down
0.2234425730476624,0.12487792968,0.33630371093,0.003173009931007899,0.957462459411818,0.8779296875,1.09924316406,0.0019521417525259002,0.26157607040948055,0.14929199218,0.37255859375,0.004783123889511374,1.0217109930287012,0.96913942077,1.12438809124,0.0009819816462818987,974.1299887040383,974.10619176726,974.16602374144,0.00021382068535351657,0.0005882695072029623,Lift down
0.2338064093302632,0.19799804687,0.26110839843,0.00031057260537838914,0.9757433439518421,0.95556640625,1.00158691406,0.00022990060482358716,0.1797437165868421,0.12231445312,0.25915527343,0.0019968300822902157,1.020417419879342,0.9905054297,1.05215797143,0.000304527838253257,974.159396698604,974.14926072302,974.1683673514,2.8181446737282373e-05,-6.580456378371475e-05,Lift down
0.23480224609039466,0.22155761718,0.26257324218,0.00010512530802037352,0.97213584498,0.95324707031,0.99353027343,9.474013980291171e-05,0.20585070157934213,0.16662597656,0.2490234375,0.0007354888869280792,1.0214803875282896,1.00475970404,1.03853676337,5.631310228822207e-05,974.1400406338283,974.12175237554,974.15314026916,8.130727577457969e-05,-0.0003659348288759095,Lift down
0.2144775390596,0.17797851562,0.23266601562,0.00014935071403628786,0.9924169921843999,0.97253417968,1.04345703125,0.00018195323044920093,0.12997070312040002,0.11315917968,0.18981933593,0.00023039634163446674,1.0238317236116001,1.00989153167,1.06572512298,0.00010874744679209478,974.1107885250256,974.09080549403,974.13104870771,0.00013248972772264626,-0.00045532598800482083,Lift down
0.19683368389051287,0.15710449218,0.22033691406,0.0003222872267662788,0.9818788186056406,0.96081542968,1.01818847656,0.0001616685605278594,0.19047976762525642,0.12268066406,0.23693847656,0.0008112298343005465,1.0199116713614105,0.99424261982,1.04221079999,0.00017303713752918638,974.080535147367,974.07320003536,974.11063116398,6.006116101878836e-05,-0.00016674231105667296,Lift down
0.21005764254883116,0.17321777343,0.24169921875,0.000653066265617625,0.9819779829510389,0.94653320312,0.99780273437,0.00018017735495843039,0.19209111200883117,0.13232421875,0.26916503906,0.0025235905285836556,1.0239714912159736,0.99708427098,1.03978023263,0.000100901999470016,974.0790346393761,974.06845589147,974.08817408215,3.0358723013560365e-05,-3.394632906851104e-05,Lift down
0.22229473407038464,0.20190429687,0.23596191406,9.343238709701142e-05,0.9776439177646151,0.94152832031,0.99499511718,0.0002254966498820893,0.14853766025320514,0.13061523437,0.17126464843,0.00013059909604078417,1.0136763418278203,0.98341692364,1.03000713359,0.0001722627164470534,974.0719470164416,974.06599662466,974.07955977618,1.6404512116736764e-05,-5.99922723003083e-05,Lift down
0.22465852018623375,0.2001953125,0.24157714843,0.00018539917300315324,0.9176691228645452,0.90466308593,0.93725585937,7.156578547397746e-05,0.2862485414940259,0.21020507812,0.30773925781,0.0006392484025971373,0.9875943160741556,0.972228182,1.00138765406,6.923753518645345e-05,974.1021018559512,974.07204730152,974.14488231703,0.000459493166286759,0.0009428572740520703,Lift down
0.24192569129947375,0.22680664062,0.26025390625,9.024727502406889e-05,0.9398000616744736,0.91198730468,0.96228027343,0.000248667817378346,0.2503180252843421,0.22741699218,0.29870605468,0.0002872503117220632,1.0023260165975,0.96866597303,1.03328211289,0.0003767498882575653,974.2362912583998,974.15252698783,974.33018376076,0.003023990111184709,0.002478887806143645,Lift down
0.24841147974539468,0.22998046875,0.26342773437,0.00012084026868047956,0.9394499126193419,0.92919921875,0.95458984375,3.378708111017359e-05,0.2990995708219737,0.29187011718,0.31323242187,2.8857627989299426e-05,1.0168059501801316,1.01023816796,1.02679244359,2.1974375841895597e-05,974.4662134638174,974.33018376076,974.5737667393,0.0055675016791134286,0.0033602562687385824,Lift down
0.24711726261653844,0.20983886718,0.2685546875,0.0002369687706913916,0.9488677978485577,0.93090820312,0.96923828125,0.0001039214757706581,0.28974327673788464,0.25183105468,0.31567382812,0.00026792886545695915,1.0226603113858657,0.99730773699,1.04078434849,0.0001383889536447991,974.7102247431724,974.5737667393,974.81972077038,0.004997662075821681,0.0023312143499821755,Lift down
0.23791249592687502,0.20739746093,0.271484375,0.00029055601021217814,0.9518419901488541,0.90844726562,0.97692871093,0.00022304089279429027,0.2821680704725,0.25964355468,0.30822753906,0.00022709902312110405,1.0211181997776044,0.97885559176,1.05739417855,0.00027784658676019593,974.9452664425089,974.82844556154,975.07535545152,0.005562655047536602,0.002668878681534471,Lift down
0.2735651827370115,0.19494628906,0.34155273437,0.0022443213809057007,0.9343009159452872,0.88403320312,0.98205566406,0.0007595773831170673,0.3004290701286207,0.17614746093,0.41589355468,0.004723042397020488,1.0224584603509195,0.99163088617,1.05257427293,0.00023324044757497514,975.2004904361813,975.07535545152,975.32620729215,0.0055589169427189755,0.0029327912262265983,Lift down
0.205473847439011,0.166015625,0.26672363281,0.0006998533476080311,0.9963392320531869,0.96557617187,1.02893066406,0.00041446834620005043,0.2375313895057143,0.1708984375,0.28588867187,0.0012849922217811553,1.0455248338565934,0.99565904893,1.0842765002,0.0005897790157626468,975.4631309886769,975.32620729215,975.58013040123,0.005803653626728029,0.002867807621298975,Lift down
0.2431102079470589,0.20556640625,0.26501464843,0.00017322247969056535,0.9775929170450979,0.92810058593,1.01831054687,0.0008261494629118508,0.2853261910193137,0.20739746093,0.30908203125,0.0007137671428262678,1.0474873806446077,1.0059672844,1.08037071334,0.0006746653094064148,975.6524829719368,975.58013040123,975.70391009564,0.0013006474481954222,0.0011937052064978856,Lift down
0.25889369419307695,0.22778320312,0.2890625,0.000331298699497764,0.9364966088565935,0.91613769531,0.9619140625,8.514947434147263e-05,0.310719919724945,0.28344726562,0.34338378906,0.0002615180498730606,1.0203790626672529,0.99261511951,1.04276151419,9.686072505496944e-05,975.7092617365581,975.70157751832,975.71649475988,1.6534013355751832e-05,7.436966818754931e-05,Lift down
0.26596292634926827,0.23193359375,0.32568359375,0.0006471862390843704,0.9335684427360975,0.90661621093,0.95654296875,0.00011365749873865689,0.3050760408689024,0.26647949218,0.32849121093,0.00022047026951475338,1.0179477061252438,0.99723240714,1.04300496042,0.00011087264180019442,975.7064859244252,975.69912279143,975.71236964136,1.4078227118591566e-05,-0.00011348673003202134,Lift down
0.28236607142558445,0.12426757812,0.73620605468,0.019076073528111526,0.8773018973170129,0.5556640625,0.96545410156,0.007658667750299495,0.34290819043831167,0.12561035156,0.59362792968,0.01521171966032643,1.001538745481948,0.78924955851,1.14052590501,0.0053667859232406695,975.7108087109341,975.70081349784,975.73595285938,6.776659009925282e-05,0.0002862769754414374,Lift down
0.8913998811106522,0.775390625,0.96569824218,0.00262652924903484,0.49150947902217385,0.302734375,0.93505859375,0.015742993081221564,-0.03451936141152174,-0.15417480468,0.13366699218,0.004033368637613544,1.0270932782002173,0.91589763019,1.2685718961,0.004656293369540263,975.7220448392128,975.68843965131,975.78421014068,0.0004940822215835442,-0.00021769549278141516,Null
0.9384378867531684,0.78259277343,1.14086914062,0.009366643110307403,0.3825127629909901,0.00561523437,0.62683105468,0.02113561556473829,-0.0774941019479208,-0.30029296875,0.06713867187,0.009911684116212826,1.030989334580198,0.88094162821,1.21006070049,0.01016243184584809,975.7131741047414,975.68656156466,975.7302132302,0.0001888804197615405,-9.137345041155049e-05,Null
0.9471703833236261,0.76452636718,1.14526367187,0.007530955408138902,0.3828835958930768,0.11145019531,0.61877441406,0.01484649878943504,-0.1333155369992308,-0.28723144531,0.02514648437,0.006723115455873498,1.0408612194142857,0.88337917201,1.19978883718,0.006969912997254836,975.7112084101658,975.68681442651,975.74556429129,0.00015448296036052285,-2.0035306768388317e-05,Null
0.8673319002435365,0.83361816406,0.93981933593,0.0007287900859965454,0.4740585699274389,0.16149902343,0.59350585937,0.007586893197882797,-0.20492181544890248,-0.26000976562,-0.17553710937,0.0003582674317848396,1.0135127431935365,0.98423258947,1.06815970889,0.0003535045965214866,975.7168449855182,975.68468609542,975.73652502628,0.00021560896554581702,4.0700975415513714e-05,Null
0.8718519944369232,0.85974121093,0.88635253906,4.7181321904794285e-05,0.4921628511825962,0.47106933593,0.51391601562,0.00017431996973670932,-0.15874892014403846,-0.20837402343,-0.12939453125,0.00044153209934533725,1.0139907712522116,1.00204248011,1.02299605014,3.106451996155624e-05,975.7193473015479,975.71350854236,975.72322233645,1.236845322289284e-05,-3.6888107721063816e-05,Null
0.8869834498313683,0.87048339843,0.9033203125,0.00011846982821925333,0.4706311677603157,0.4384765625,0.50158691406,0.00034110802753234025,-0.12724994859852634,-0.1435546875,-0.10192871093,0.0001468492481982997,1.0124042863125267,0.99936134836,1.02896805637,6.416590832006419e-05,975.714537844241,975.70359582317,975.72989512759,4.6529382566020876e-05,-0.00017304305548212988,Null
0.8961023667234118,0.72888183593,1.16125488281,0.011075951793505404,0.45578182444470583,0.23852539062,0.65222167968,0.011290000537574828,-0.16487821690729412,-0.31518554687,-0.07055664062,0.005176070265746788,1.0247334780261175,0.7987701283,1.31553565648,0.015239940790516961,975.7175104498384,975.68901041781,975.73777198975,0.0002688555002340622,-0.00040402675730786695,Null
0.9366439626156959,0.67456054687,1.203125,0.024561185291786032,0.29579645470417726,0.02868652343,0.65344238281,0.02028852144498498,-0.06296819372746834,-0.22216796875,0.02416992187,0.004500304823511396,0.9961141578877216,0.74699400468,1.28610399774,0.025568006719569915,975.6910563978905,975.65760160446,975.71975010514,0.0003149174041826246,-0.00033378046913212783,Null
0.9584770698012987,0.69604492187,1.1484375,0.014555789163678135,0.32175990512974023,0.06262207031,0.65344238281,0.0207645080257169,-0.10394524908363637,-0.20544433593,0.00012207031,0.0034282362814669854,1.025726251908052,0.73097930242,1.23968951053,0.019395192214698292,975.6755176768422,975.65034810311,975.71707870171,0.00031242146509012837,-0.0007015084297659098,Stairs up
0.8814648920901978,0.52136230468,1.21606445312,0.041148883974916096,0.44372800316792077,0.18444824218,0.66162109375,0.01795695661929162,-0.19451481280673275,-0.33666992187,0.00158691406,0.008485710788841326,1.0213944392287129,0.666696441,1.35994334233,0.035740503169761045,975.6217859569899,975.59247337165,975.66624068717,0.0004747710898504935,-0.0005381774763952492,Stairs up
0.9721339904113402,0.63012695312,1.31433105468,0.03817068715362413,0.37692795585999994,0.26147460937,0.54272460937,0.00729318364775487,-0.14395991059484536,-0.28161621093,-0.08032226562,0.0032825415786404237,1.0552610673053608,0.69830869344,1.42112574905,0.04295441598685914,975.5456078138405,975.49315973371,975.59247337165,0.0009139903683180456,-0.0009439266322910472,Stairs up
0.9055245139342047,0.63354492187,1.15942382812,0.025744666778582437,0.3896304043823864,0.23510742187,0.66821289062,0.014790280981798395,-0.12015186656170455,-0.22387695312,-0.04174804687,0.00248226247609868,0.9994141879347729,0.69524924386,1.29969980918,0.030266565897620966,975.4549171506372,975.41155518369,975.49663361746,0.0006838923293963047,-0.0009636553358527261,Stairs up
0.9173944646613638,0.62536621093,1.24206542968,0.03364115616329597,0.42585754394227276,0.25817871093,0.74389648437,0.015621252892981182,-0.11446311256670455,-0.22131347656,-0.04223632812,0.0027908893650370513,1.0220294295502272,0.68868394257,1.35690257066,0.043480784288048496,975.3702020688241,975.33664585136,975.427508203,0.0007576684603955144,-0.0009828218806456719,Stairs up
0.90909282977375,0.57775878906,1.220703125,0.036970077982582845,0.3700620211048077,0.23303222656,0.59350585937,0.012608788800494456,-0.15265714204807693,-0.22424316406,-0.07067871093,0.0017057430872737956,0.99811814652875,0.6662472297,1.3502564542,0.041652030109038674,975.2983547853936,975.24794636631,975.32941356204,0.0005678452076946966,-0.0007253842940095807,Stairs up
0.9365698772886953,0.55737304687,1.27954101562,0.04169283065223074,0.3857873004368477,0.15051269531,0.66931152343,0.017749493828412205,-0.10868371051032612,-0.26965332031,0.02893066406,0.006021976561666256,1.0264311600424998,0.64222792384,1.43412731853,0.049537381197273765,975.2206602799707,975.16768487333,975.26283268217,0.0007222858911856732,-0.000814607018823731,Stairs up
0.8480106951207229,0.58312988281,1.2353515625,0.03477842546586073,0.4485083890210843,0.3212890625,0.71459960937,0.012636235626790279,-0.11453136765421688,-0.24523925781,-0.01049804687,0.004127607691094485,0.9714650089824096,0.6687833381,1.31022979038,0.04107119584042452,975.1481395175725,975.10336408612,975.19628123088,0.0005797051178419595,-0.0008355221805458868,Stairs up
0.9182801857942307,0.64477539062,1.22290039062,0.028958338672148972,0.4408287635173076,0.21057128906,0.73071289062,0.019599180590291386,-0.16104986728371795,-0.26672363281,-0.04736328125,0.004408653484413539,1.0402429263992308,0.74900367243,1.34523512034,0.034124829256925115,975.0995218280787,975.06423830896,975.12879369385,0.0002157960243273676,-0.00024164590622915763,Stairs up
0.8545782627160258,0.59753417968,1.142578125,0.028450607908582736,0.5230869390991023,0.29809570312,0.8603515625,0.02979402432165491,-0.18986472105038463,-0.41394042968,-0.05126953125,0.007374895125423043,1.0265347311560258,0.70221350186,1.4295772291,0.05163930472487048,975.0909229544292,975.0720783185,975.17692112153,0.0004693739824360673,0.0003396152960873346,Stairs up
0.9462738037078846,0.64196777343,1.21545410156,0.033463766472814994,0.34913165752288466,-0.06604003906,0.80822753906,0.04504461256876405,-0.17311683067576927,-0.29150390625,-0.05639648437,0.0034420714338387567,1.0441218369716347,0.71566439774,1.4295772291,0.03864005687652291,975.0807388207462,975.04398408597,975.14191225913,0.0006056791107941234,-0.00012202495619491078,Stairs up
0.9595769246379167,0.70300292968,1.34008789062,0.03212689003815731,0.28112157185427084,0.12426757812,0.49035644531,0.010864730373794616,-0.12173334757125,-0.22326660156,-0.00610351562,0.00443207048878319,1.015111299019375,0.75721884608,1.35220357541,0.031442491040319646,975.0609426937987,975.03306966058,975.08663680056,0.00021172919909386782,-0.0003569015009614857,Stairs up
0.9550128315733721,0.51550292968,1.28894042968,0.05236154538703987,0.3233656772302326,0.11572265625,0.60620117187,0.014493177040103727,-0.13967398709686044,-0.43347167968,0.02526855468,0.01207592421274291,1.0308115987517439,0.58851500397,1.43169011112,0.05217062381363655,975.0019594081186,974.96294564865,975.04505688468,0.0005747931576368148,-0.000889252665486833,Stairs up
0.9488619290821976,0.61572265625,1.25280761718,0.037605391684666645,0.33450753347890116,0.17016601562,0.61474609375,0.017438708505866523,-0.10680615770648351,-0.34558105468,0.01672363281,0.009381874042101059,1.0221450488381318,0.66070984872,1.38190298827,0.043052404718406545,974.9273175406261,974.90126461471,974.99319910891,0.0006794301909954499,-0.0008206728485174406,Stairs up
0.8840834673674509,0.79541015625,1.09606933593,0.0070715928291932946,0.4168820848609803,0.14624023437,0.61157226562,0.01331505164941148,-0.11296889360892161,-0.23950195312,0.0400390625,0.004746784837219694,0.9922548465588236,0.87226648463,1.22773491048,0.008557460172169464,974.8699847416623,974.83483272543,974.89381376956,0.00023724010475451702,-0.000429239382964387,Stairs up
0.9618939410163736,0.77807617187,1.18969726562,0.015744518658596253,0.2958112444162637,0.03955078125,0.54333496093,0.017356703773084504,-0.08102651742505494,-0.24548339843,0.10375976562,0.007636202400133804,1.0193556269194504,0.79993461885,1.24767709307,0.020741336074627033,974.813054360611,974.77434876172,974.85885308534,0.0005165033690383026,-0.0007956028203911507,Stairs up
0.9720994902784146,0.72119140625,1.26586914062,0.021021143557600014,0.21300078601121952,-0.10595703125,0.59814453125,0.03244826072877847,-0.10908471083951218,-0.29248046875,0.06945800781,0.008728088655538214,1.020868185782561,0.77366611685,1.2756161337,0.021778959229587655,974.7392962695569,974.71024244435,974.79579515961,0.0005068311158069846,-0.000701164572698116,Stairs up
0.95640055338141,0.6337890625,1.18688964843,0.023442566942961904,0.247885679585641,-0.02221679687,0.52294921875,0.01764469274180972,-0.12403439252487179,-0.26550292968,0.01037597656,0.005195974601387362,1.0070231116373078,0.67155311325,1.24986949477,0.023428537157406136,974.6773575416761,974.61138985593,974.73162335924,0.0009950252172399995,-0.0010100535315546878,Stairs up
0.9759246227753923,0.68530273437,1.31689453125,0.029408234448886843,0.2558593749961765,0.09057617187,0.453125,0.009130961824142775,-0.09416767194784316,-0.33508300781,0.08935546875,0.009794301749256298,1.0215399104481375,0.72946527474,1.34770155015,0.031383977161303894,974.6338272846568,974.57581565946,974.700653899,0.0008622724835154679,-0.0009128930898778218,Stairs up
0.883610361626495,0.58801269531,1.21240234375,0.04009276040572219,0.36258532336969074,0.20922851562,0.67529296875,0.01648020594239154,-0.14914097736474227,-0.29809570312,-0.04138183593,0.005002762741582748,0.9747204364861856,0.67414018343,1.35947387708,0.04581170307948922,974.575069208834,974.54020725305,974.62575893261,0.00041931206060238967,-0.0005579467728029554,Stairs up
0.9106431281379308,0.61657714843,1.25244140625,0.03692458587133556,0.3194692326658621,-0.15893554687,0.66723632812,0.04464589843563265,-0.20085056348425281,-0.37060546875,-0.05517578125,0.00686123208778202,1.009572869225977,0.72001357547,1.34010404165,0.040313703812365334,974.53350192675,974.5074490764,974.58653440708,0.0003434448877240188,-0.0003167944374186465,Stairs up
0.36941324869722225,-0.93041992187,1.24328613281,0.5728281116991422,0.5340562608468887,0.18957519531,0.99353027343,0.042591522414321174,0.019665527344777778,-0.22521972656,0.73791503906,0.044108018127384394,1.0041886852863335,0.4322993228,1.55266099192,0.06661377565312737,974.5329793799219,974.50879742488,974.54944794372,0.0001574337635730232,0.00027312163462446754,Stairs up
-0.8098023669515841,-1.048828125,-0.57202148437,0.018155522794908563,0.5798545308596039,0.18957519531,0.96044921875,0.038295750340627877,0.2321620223512871,0.03186035156,0.39343261718,0.008554058570697945,1.0440558600780196,0.82707069869,1.26605269775,0.0185811696247686,974.5066304804359,974.49391186137,974.54092529024,7.821961325644322e-05,-0.0001518326802676255,Stairs up
-0.46979925605359546,-0.9580078125,0.06701660156,0.0546282569518111,0.7265282105826966,0.39904785156,1.21569824218,0.04088992862154311,0.2142443710486517,-0.55346679687,0.81494140625,0.21103079299727423,1.033516705828989,0.77395831981,1.30622908607,0.029737184758619507,974.5031017853086,974.47629926187,974.57134337996,0.00041945949327341323,0.00019924659031530492,Stairs up
0.7169581283725925,0.06701660156,1.08349609375,0.11264932596183627,0.60574303144,0.25524902343,1.1318359375,0.059679694671864236,-0.11598789544469137,-0.40368652343,0.12426757812,0.020119598056417304,1.0319169238341976,0.63019862574,1.24121748039,0.019872278764175307,974.4569231538053,974.43732238281,974.49777509407,0.000291598920057955,-0.00028236842401630803,Stairs up
0.9531426680676315,0.69897460937,1.35876464843,0.023630895894065234,0.33817813270565794,0.07958984375,0.62243652343,0.02291980652153057,-0.03479967619065789,-0.22644042968,0.21203613281,0.011153405809940144,1.0300874718918422,0.80584933838,1.37293597298,0.020186670577470204,974.4364002192189,974.4161914218,974.49044601621,0.00027208477864297737,-0.0006118489182350803,Stairs up
0.9888700597384705,0.73718261718,1.36535644531,0.03484621366443673,0.2761058134157648,0.05786132812,0.50927734375,0.012802308923318564,0.05262235753494119,-0.05065917968,0.25134277343,0.005313086797262177,1.0375250306031767,0.75945367758,1.40605888657,0.03313772585851126,974.3842527005336,974.34476323876,974.42730586319,0.0005371164169453212,-0.0008131492182503155,Stairs up
0.9553564453087999,0.6962890625,1.26696777343,0.02424365434956475,0.2753344726537,0.03137207031,0.5283203125,0.013733084280025485,0.07385131835759999,-0.0458984375,0.201171875,0.003717035504983866,1.0042411725322,0.71684094535,1.28961990904,0.02404971547659628,974.326201910584,974.29217117197,974.35558707738,0.0003688737728108676,-0.00047783445114265785,Stairs up
0.9374533663937078,0.69543457031,1.18054199218,0.023964031347248546,0.30692591291865173,-0.033203125,0.54833984375,0.028909037039689313,0.013999681793146068,-0.08044433593,0.17028808593,0.003444111006577512,1.001664378461573,0.73231315314,1.22178559183,0.02586177806782669,974.2804885925758,974.24119774088,974.3262799985,0.00035078983827470996,-0.0004990320804415329,Stairs up
0.9465629763682928,0.70129394531,1.17590332031,0.023685101580079547,0.2934555425830488,0.05078125,0.57116699218,0.020456854757701114,0.018295660251341463,-0.07006835937,0.17321777343,0.005219956382273381,1.0019994147312197,0.73948150032,1.28383425283,0.02752513835994903,974.194123757223,974.13110162468,974.24791990313,0.0013638112768834657,-0.0011725466886581316,Stairs up
0.9240917968714001,0.52709960937,1.21325683593,0.04468961879452579,0.4116320800752999,0.134765625,0.68615722656,0.025956106334965572,0.0276513671864,-0.23059082031,0.19738769531,0.008422530503865794,1.0251198473454999,0.57198772257,1.35660249967,0.052078876921361095,974.1188945080413,974.06356007153,974.18892684489,0.001144814265628492,-0.00024833692843922604,Stairs up
0.9434567715221275,0.67993164062,1.54943847656,0.051786540201652215,0.3603450693948936,0.11767578125,0.66369628906,0.023302394333250053,-0.010666867520531914,-0.30651855468,0.11779785156,0.011983235390068408,1.0252193892480856,0.73797932258,1.67541418968,0.055737052351203666,974.0870368416558,974.01419415021,974.31616411091,0.003736169768677092,-0.0005488946405671773,Stairs up
0.9087143841872941,0.67150878906,1.2294921875,0.025981608421494336,0.39949592141129403,0.11376953125,0.712890625,0.024206214855319406,0.036524873618,-0.08813476562,0.12780761718,0.002882548774098613,1.0013141004311767,0.71307498168,1.38458106528,0.036943607332226895,974.0749800395124,974.04926679426,974.11686078614,0.00026642684505564276,-0.00023603018443189242,Stairs up
1.022697151478052,0.68798828125,1.43383789062,0.033795536088707244,0.27468515370987007,-0.01843261718,0.69604492187,0.026887632758548285,0.09929230925064933,-0.11279296875,0.3955078125,0.010509728310781931,1.0804536907049351,0.77016844727,1.51433630358,0.03455729230945668,974.0718075384368,974.04463414991,974.09366815418,0.0001764430618775001,-0.0003705626668348268,Stairs up
0.9433369252829885,0.62133789062,1.3076171875,0.03633883787072544,0.32133255881505746,0.07055664062,0.65051269531,0.022548882412784545,0.05573562095747127,-0.10681152343,0.16064453125,0.004325674561084378,1.0094778664755173,0.65254043994,1.37762489976,0.04014834381304138,974.0399515311962,973.99043210788,974.06107676697,0.0003696478637084666,-0.0004994815933159792,Stairs up
0.969210205075,0.58850097656,1.3076171875,0.046133344780211104,0.2586145019494,0.07543945312,0.60375976562,0.021827263138308444,-0.0086511230461,-0.22668457031,0.22265625,0.009446764128783064,1.0155094953633,0.60107949918,1.39839155771,0.052220694264018534,973.9784089561766,973.94631321189,974.07617567335,0.0012007673918893384,-0.0008726450274893118,Stairs up
0.9690343683380682,0.61108398437,1.32727050781,0.040256874904496164,0.25820784134999997,0.00610351562,0.51220703125,0.019992309395687267,0.027561534535454544,-0.14562988281,0.27600097656,0.01032727012934392,1.0125208006906818,0.61948592127,1.35448436005,0.04664507463889335,973.9281881985432,973.86836908129,974.01791895852,0.0013423104984704886,-0.0009937004370728028,Stairs up
0.9541611089898782,0.69653320312,1.29479980468,0.02306427567229113,0.3235562952504878,0.13317871093,0.55822753906,0.011162669581485554,-0.02539657964975609,-0.18505859375,0.09790039062,0.006486094255882176,1.016797374602561,0.77210527375,1.33449226976,0.022369521435182185,973.8345559758274,973.79459922621,973.89544740351,0.0005216569242784936,-0.000651231863738873,Stairs up
0.8958703613246999,0.52563476562,1.2177734375,0.04245039623667547,0.3031555175739,0.17443847656,0.54760742187,0.007453119024830796,-0.0066931152335,-0.11047363281,0.11804199218,0.005310581505177506,0.9544676477710002,0.56509301105,1.23658880465,0.038570944528886326,973.7626106487686,973.71415532858,973.82355852981,0.0003736918568732642,-0.0004969913505310171,Stairs up
0.9348144531218084,0.55236816406,1.19030761718,0.02948684878216231,0.3444798246302127,0.16040039062,0.61047363281,0.014160646539599808,-0.053200579702978715,-0.21691894531,0.19750976562,0.012835898694582787,1.010118652347234,0.57728585351,1.33796672743,0.03124997458622527,973.6974901373301,973.67740765361,973.73051419105,0.00019284016833785513,-0.00039278070636114483,Stairs up
0.9210786365295237,0.55236816406,1.31726074218,0.04936771883869623,0.3560500371988095,0.16040039062,0.56945800781,0.012148667394281476,0.015622093564166667,-0.11657714843,0.13647460937,0.003846274433075809,0.9925806779047617,0.57728585351,1.38209436379,0.05542954055061975,973.6548329702289,973.56757942247,973.71394904436,0.001292533113298922,-0.0008504205954445275,Stairs up
0.9283796037916883,0.66003417968,1.16003417968,0.027050840955766715,0.3256455458555845,0.07275390625,0.61840820312,0.018803759334668227,0.04835094104987013,-0.12390136718,0.21398925781,0.007890644505042663,0.9955274403153244,0.69569070581,1.29792062132,0.03266815571953941,973.6107861341135,973.58233505994,973.68160876401,0.0006015589382225536,-0.00011455068198989738,Stairs up
-0.21471858929835444,-0.98083496093,1.02490234375,0.3527830269725255,0.49635179736544294,0.01770019531,1.37927246093,0.13608805758301792,-0.42599294155227846,-1.03369140625,0.66723632812,0.2442869756864431,1.0633169127169622,0.56365350493,1.74027053076,0.06803509087011521,973.6938216100872,973.41131114328,974.34114245963,0.08290851172181617,-0.006306232873314753,Stairs up
-0.6619327878461164,-0.96057128906,-0.4228515625,0.024963708405183097,0.6772295016653398,0.07702636718,1.12878417968,0.06783272239801015,-0.20756101144844655,-0.68823242187,-0.01574707031,0.032790505288048374,1.0242177267813593,0.77428676718,1.28992241007,0.015371316704261439,973.5485001448588,973.40465742678,973.62014714756,0.0036446276192227635,0.0006621686334707018,Stairs up
-0.4111182171316303,-0.68395996093,-0.21655273437,0.012994828080843169,0.8331285559584781,0.41040039062,1.15698242187,0.04527420771457178,0.31819882599934785,-0.23449707031,0.88586425781,0.09840129657340557,1.033290945057174,0.54021976476,1.33766077113,0.05221666132057264,973.5983008517393,973.28962550957,973.80837371657,0.02031291177550897,0.0007648456947079277,Stairs up
-0.5295939617798795,-0.74560546875,-0.13684082031,0.015326989566903848,0.5775028826209637,0.02014160156,0.96044921875,0.05276055038564201,0.6508818476998796,0.12976074218,1.05224609375,0.05809370263947177,1.05556345076253,0.57886887711,1.35936895456,0.048659571423473956,973.5073242709125,973.24040326608,974.06550120236,0.06677576335434984,0.0004004394171898498,Stairs up
0.3500805926570968,-0.45581054687,1.009765625,0.20886631328803884,0.6217461042468816,0.09851074218,0.99072265625,0.04518263511552119,0.22858912970376347,-0.51770019531,1.13098144531,0.31464256771546717,1.030498099198172,0.40688236244,1.3539713468,0.0627020666191241,973.3750229355298,973.29239821374,973.4769565965,0.002733803641924187,0.0013136404173226565,Stairs up
0.962275290972653,0.75854492187,1.23095703125,0.01925617607548009,0.33114063496091833,0.13684082031,0.63732910156,0.013697845484131539,0.0678349709,-0.2578125,0.29467773437,0.016236598100705064,1.0340130276031634,0.8222303768,1.31728203163,0.019416676436878024,973.3672764350965,973.35514001961,973.38385832428,8.153860072203131e-05,-8.469628346428937e-05,Stairs up
0.9342939004088505,0.70678710937,1.1826171875,0.012307211569692415,0.2469328080063219,0.05285644531,0.48229980468,0.013198790094543373,0.16407372485287358,0.02453613281,0.32751464843,0.005373257063145225,0.9884056472609195,0.74782474297,1.24901543227,0.0145468981051601,973.3493019671885,973.29904329122,973.38040145612,0.0005178983182140704,-0.0007186894099000414,Stairs up
0.9594867412821793,0.57275390625,1.20202636718,0.03103886989069645,0.22208658853846158,0.02673339843,0.63000488281,0.023129819920558504,0.13394243288974358,0.03735351562,0.33178710937,0.006186151440962536,1.00623718396,0.60286089495,1.32399602721,0.0353994649794884,973.2895595130843,973.27072527308,973.31740065994,0.00020365149296534878,-0.0003115585893429216,Stairs up
0.9497937654152632,0.6083984375,1.26733398437,0.03683963013301856,0.23956620065407894,0.00952148437,0.46411132812,0.010634169766838663,0.1351045307331579,-0.00463867187,0.27453613281,0.004546445051186287,0.9973918390434211,0.67601586828,1.30136414947,0.03475599876876899,973.228791141439,973.20315216208,973.25029354504,0.00022553237466834002,-0.000544222911429671,Stairs up
0.9191350653597028,0.56652832031,1.31701660156,0.04838044508551611,0.32734060759247524,-0.05151367187,0.5576171875,0.02251751910022918,0.06250362584752474,-0.03479003906,0.19213867187,0.002551586763531512,0.9877674543206935,0.64666811127,1.41085761531,0.05343468514039845,973.174817393575,973.13189191978,973.2587002734,0.0010003722609459509,-0.0005240218395553807,Stairs up
0.9432963709635483,0.71020507812,1.22961425781,0.024082736027413683,0.35105584256956995,0.08142089843,0.63977050781,0.018857441825189926,0.03430044522881721,-0.08276367187,0.14477539062,0.0046689806726833635,1.0175719610739786,0.74956800019,1.32780197366,0.026150492836930533,973.1482897691883,973.12868537462,973.17211020592,0.00013242518880128305,-0.00020045662444328262,Stairs up
0.9631089154374117,0.69763183593,1.28601074218,0.032341085762563546,0.31167710247776476,0.01318359375,0.61975097656,0.02273056342202896,-0.011213235294,-0.1552734375,0.10339355468,0.003996141663603621,1.0218618056410587,0.72484180804,1.37138090903,0.03948296717916243,973.150542655994,973.11518281611,973.22957548464,0.0009561826637608217,-0.00040449152238810645,Stairs up
0.9533913352243182,0.6884765625,1.18273925781,0.021589899044350734,0.4091644287073864,0.15197753906,0.96166992187,0.03077864571988051,-0.03008617054125,-0.11657714843,0.10534667968,0.0030758373861592913,1.0480914991417045,0.74520714493,1.50404824911,0.03398042847042434,973.1288031878556,973.11059908056,973.14711935808,0.00012562668805326388,0.00010261784356431393,Stairs up
0.9359069207662626,0.48901367187,1.18200683593,0.034769091488707944,0.3361483487176767,0.06616210937,0.67724609375,0.029356863674637954,0.0004685527135353534,-0.330078125,0.12280273437,0.01188639861737846,1.013132467248687,0.49955510671,1.30125678022,0.038109799731406935,973.1110606432917,973.05388758256,973.16246374064,0.0005647100420884777,-0.0005537051222462039,Stairs up
0.9767476628301124,0.65478515625,1.20422363281,0.03092395111630938,0.26578135972213485,0.08435058593,0.51098632812,0.01678214052493824,0.06252605995247192,-0.06188964843,0.2392578125,0.005040710443516127,1.0233331981560674,0.68123079894,1.29642840244,0.033909549304114946,973.0604053866548,973.04178051528,973.10266249468,0.0002523808954597129,-0.00042196131616359085,Stairs up
0.9423255449419753,0.61975097656,1.29223632812,0.034532841699673675,0.3333966290467901,0.13903808593,0.59497070312,0.01562863406224781,0.03137056327061728,-0.06555175781,0.17626953125,0.0038657350440489736,1.0082521782471605,0.63530820692,1.34517875941,0.03736389304366046,972.9843239623794,972.95850664696,973.02178322746,0.00034270031892931225,-0.0005727759392899724,Stairs up
0.9314494885857892,0.59680175781,1.41259765625,0.04338539017657349,0.31745990953513153,0.16516113281,0.58666992187,0.008338313039904763,0.06651225842539472,-0.04724121093,0.24523925781,0.0037321119873501307,0.9913490671546052,0.64941160732,1.47707784328,0.04535273141190914,972.9155328224913,972.88176346829,972.95850664696,0.000516694547322015,-0.0008115350573077172,Stairs up
0.7884590063155056,0.34631347656,1.22277832031,0.058350227894739294,0.42410518345853937,0.04992675781,0.79504394531,0.03456330257513168,-0.2610699942929214,-0.90686035156,0.15893554687,0.13560014136504892,1.0332098112395505,0.76654547224,1.3486545293,0.028433418255932617,972.9235754101318,972.82563189899,973.1873812777,0.012810895719171954,0.0031974860961716607,Stairs up
0.5923125597853062,0.28784179687,1.16235351562,0.05391022947953125,0.5702850964568367,0.15625,0.88110351562,0.04029336127100201,-0.527053521600306,-0.8427734375,-0.23217773437,0.03247332373692508,1.0233897061610204,0.63036256011,1.51643173632,0.032231368098935446,972.9730479290153,972.57627655268,974.21249124412,0.19725210659251982,0.007972440402867981,Stairs up
0.013984594453932577,-0.64965820312,0.99462890625,0.258037360197609,0.544116759564382,0.29479980468,0.98474121093,0.0197360592535713,-0.39959373902460676,-1.02563476562,0.45007324218,0.13422023677193481,0.9178122387439326,0.64205417316,1.31682140358,0.021156697322073682,972.5718614210962,971.98927282233,973.62115522,0.2898530622731806,-0.011857512387088836,Null
0.9599865571918518,0.75866699218,1.23803710937,0.01809750524014971,0.36722969714148146,0.04370117187,0.98474121093,0.03919783762110652,0.04720654899617284,-0.08740234375,0.26647949218,0.006924855795942429,1.046817826454568,0.81266602323,1.34149642423,0.02658834480478729,972.5186250527746,972.28909309817,972.65112245605,0.009572136381636237,0.003831697769271289,Null
0.9579207920753464,0.75524902343,1.20043945312,0.016730162005572553,0.257827003400396,-0.05505371093,0.48754882812,0.020536350096917174,0.049778097923960395,-0.00622558593,0.11389160156,0.0007851086865980354,1.0025156064101979,0.77825851865,1.27334298327,0.01939421955397823,972.6507592218971,972.61930810994,972.70116701141,0.0003467591027772716,0.00023573900810004977,Null
0.9665737357141932,0.81567382812,1.11364746093,0.005930299546254967,0.31030667212376345,-0.14819335937,0.50134277343,0.020846606094671222,-0.0838308026687097,-0.24243164062,0.109375,0.009719638040908099,1.0329984216993553,0.8544744784,1.18648155358,0.006672739194948337,972.6826280903931,972.64976221143,972.72505700789,0.00039001298201149113,-0.00025176192562939716,Null
0.9265194847427379,0.82934570312,1.03247070312,0.003427376914077497,0.36810157412309524,0.23059082031,0.46545410156,0.0034852568262340893,-0.012621198381904761,-0.14904785156,0.13049316406,0.010101059479802048,1.004122919995952,0.92666340096,1.11040871774,0.002676594135929693,972.6788432344763,972.6623909212,972.69395207534,7.467648253309288e-05,0.00021783080691285966,Null
0.8947294160883115,0.57080078125,1.21899414062,0.023305776887390568,0.3334548752000001,-0.18469238281,0.67224121093,0.027774620059575983,0.12436269784610389,-0.2001953125,0.50134277343,0.03675896855597979,1.002783097391169,0.80288127845,1.23840551625,0.008433137803954749,972.6848818189927,972.63259040778,972.73245165283,0.0007701294257126891,-0.00020523009836369285,Null
0.9424155323739175,0.84704589843,1.05078125,0.0029991252085172057,0.34664193379154634,0.15100097656,0.5146484375,0.011515245884956157,0.06132082594958762,-0.10900878906,0.33471679687,0.0163973470170625,1.020478910772268,0.96828646491,1.0882552065,0.001297115213673019,972.6884270254865,972.64851253603,972.7184161824,0.0003107479291035008,0.00038280311930402177,Null
0.9327019942400001,0.8935546875,0.97106933593,0.0003519854246186157,0.36517141241431567,0.27001953125,0.419921875,0.0017400678367573124,0.02595214843831579,-0.02819824218,0.11975097656,0.002830788936718637,1.0043134912057894,0.97359614174,1.03862370999,0.00018405613284029344,972.6958956243873,972.68499046911,972.71697590511,5.3045027829907125e-05,5.074880298988486e-05,Null
0.9335369731074417,0.89892578125,0.98754882812,0.0005746174201133126,0.3722988394756976,0.29223632812,0.46887207031,0.001650610319493988,-0.018773278524069768,-0.16931152343,0.06921386718,0.0037162448081119264,1.007860072703605,0.97426828596,1.07420729197,0.000546961545604892,972.7040756573732,972.68943331396,972.75412710655,0.0003208379456577447,0.0004961568276330741,Null
0.9488511029371763,0.64978027343,1.20202636718,0.013087412251487953,0.3917695886924705,0.21667480468,0.544921875,0.005676526390661398,0.023717543658352942,-0.12683105468,0.22045898437,0.00873523766868444,1.0333725331762351,0.69334765142,1.27202009526,0.013844083888654688,972.6922826127523,972.67900790401,972.73906062351,0.0002469499703156218,-6.777587187949306e-05,Null
0.7649155418435644,0.53002929687,1.23608398437,0.03324381760135588,0.31269217009148514,0.13940429687,0.48278808593,0.008016042812701513,-0.46129645923227725,-0.90856933593,0.07507324218,0.07918125206785298,0.9988551086564358,0.73452081653,1.32914406444,0.017375737832992646,972.7565643869128,972.47733042071,973.08901651798,0.02631316711471706,-0.0013428090317051382,Null
0.9647230211154942,0.88842773437,1.23608398437,0.004517342810620088,0.3750496329803296,0.16528320312,0.61657714843,0.015915098447770077,0.03900481842120879,-0.1484375,0.1767578125,0.00578227451776698,1.0445888224656044,0.94547607645,1.32914406444,0.007719777202387681,972.6301167837877,972.54576044851,972.71054581814,0.002656646121514061,0.001868602072049381,Null
0.9501320167791357,0.90539550781,1.00134277343,0.0007698905136626225,0.25700774015839506,-0.0068359375,0.48095703125,0.022138092584084973,0.049183786651234566,-0.19091796875,0.44641113281,0.023189307449608693,1.0077521527534568,0.93311024359,1.07866978357,0.001201492736450788,972.8376733005028,972.67613496949,974.02870965501,0.12154554063499727,0.009231052655542289,Null
0.673876690604946,0.35339355468,0.91174316406,0.03058127383168755,0.42087743615258055,-0.05090332031,0.7333984375,0.07362757157418229,0.3504586168505377,-0.14880371093,0.95166015625,0.15631387606524894,1.0049116682019354,0.8950592465,1.08794442665,0.001963910847770932,972.7427050137856,972.06479517317,974.27441102054,0.26110834328146615,-0.012124747992731923,Null
0.8238361791203093,0.74060058593,0.90905761718,0.0033690977930916337,0.46775330218731964,0.26684570312,0.66577148437,0.023093357893422563,-0.27846755194608247,-0.43005371093,-0.10986328125,0.009395369309064589,1.004883728433196,0.91358460869,1.03729201179,0.0007479389605806555,972.6987722581449,972.26283990223,973.39670643988,0.13859829663400947,-0.006961986910594638,Null
0.8935139973913792,0.86389160156,0.91857910156,0.00022902310819899208,0.40265243354528724,0.34912109375,0.47741699218,0.0014106221804979912,-0.24965483566425284,-0.30786132812,-0.21508789062,0.00040901026300612894,1.012145772440575,0.96440955674,1.04212127143,0.00041459128294133406,972.7156030506524,972.49271954484,973.0541926121,0.02810177399672326,0.0038413939414020156,Null
0.9107034122207056,0.86828613281,0.94519042968,0.000341255612208658,0.3087244370372942,0.18408203125,0.439453125,0.002737066145508663,-0.31694479549235294,-0.3974609375,-0.22924804687,0.001664944097479371,1.0147120696525884,0.98032196435,1.0509890241,0.00019465493159973341,972.7150378306145,972.6166939793,972.88241323122,0.004928586296287218,-0.0012309169693274491,Null
0.8761651067407918,0.84631347656,0.92663574218,0.0005174712910092413,0.3803590075771287,0.25866699218,0.49328613281,0.005463327021916011,-0.3375739673542573,-0.36254882812,-0.30871582031,0.00019485747164039977,1.0159898161144556,0.99544892476,1.03820582618,0.0001753931473399004,972.8034896014325,972.70277429027,972.88274007069,0.001162349032653968,-0.00018519836095567965,Null
0.9784844292494442,0.73022460937,1.26904296875,0.0169010780371227,0.19165039062222222,-0.15686035156,0.78259277343,0.03550208585918262,0.003514268664,-0.40991210937,0.533203125,0.05795158110686273,1.039547329929111,0.7526026311,1.35375643042,0.022898356787530258,972.5786131321479,972.41403388645,972.70277429027,0.006515071988110752,-0.0011652280972644915,Null
0.983758693784756,0.73303222656,1.36779785156,0.033252313145170735,0.22559933545743904,0.01354980468,0.3896484375,0.009015075588769182,0.025872951598658538,-0.17053222656,0.15319824218,0.005406115857574254,1.0166834181076831,0.77984479414,1.37861531892,0.03319743184095968,972.6711090659178,972.62792983023,972.70824011332,0.0004942665304385831,0.0007172609496541332,Null
0.9343598464398849,0.71325683593,1.21630859375,0.015223839147732917,0.3952861215836779,0.21606445312,0.50854492187,0.008393334971142941,-0.13803626750850573,-0.33447265625,0.04455566406,0.009845147000181324,1.0320548933444826,0.81314868891,1.29138013394,0.01646307633010684,972.7040756718017,972.64962127977,972.82380019754,0.0025332607085542633,-0.0012616713895362507,Null
0.8922168461926262,0.71301269531,1.10034179687,0.012728572779467996,0.4051526002177778,0.2861328125,0.60412597656,0.004048872205302959,-0.12359680792070707,-0.39245605468,0.04528808593,0.01798082017516095,0.9992913735300002,0.79797140129,1.19656053849,0.011414925662781867,972.6916658996597,972.66462049145,972.73696957727,0.0002034066713542128,4.703481662792605e-05,Lift down
0.9141187346346067,0.69030761718,1.06774902343,0.008771827293966281,0.42555631144235956,0.14221191406,0.93395996093,0.02800176797204119,-0.03215249736820224,-1.36437988281,0.22326660156,0.10224216011908528,1.0601645882762922,0.82573692108,1.79174168886,0.031604956547867255,972.8434340855466,972.68770669576,973.26645061189,0.04135372163074719,0.0024152162474436727,Lift down
0.603328053539756,0.38684082031,1.02380371093,0.048342427425456164,0.7350240567793903,0.26232910156,1.05712890625,0.05732903211145724,-0.09275110756353659,-0.31005859375,0.15942382812,0.02261901347933183,1.017611230144512,0.90850340278,1.17313035483,0.004111349939065717,972.7034547796989,972.42700195427,973.04716064094,0.03638768347915213,-0.00031299521116694064,Lift down
0.42576329847901945,0.25854492187,0.50854492187,0.004368830257475062,0.9309931736339214,0.82592773437,1.25073242187,0.01333112285539824,-0.25309603821617654,-0.33850097656,0.009765625,0.0110268305988763,1.0635789949084316,0.9679301161,1.34617046883,0.009417478634030555,972.6592206279238,972.48476665667,972.92831508187,0.010395879265520111,0.0014471309288262135,Lift down
0.39870578639703297,0.189453125,0.52282714843,0.0055521141221401785,0.8780920007686812,0.7607421875,1.02526855468,0.00456112823707659,-0.34097323574505495,-0.43420410156,-0.15502929687,0.004481819137409546,1.0285678893913188,0.95297087533,1.18174803064,0.002788024166286244,972.7002674282421,972.39435419367,973.27387029802,0.09012800617592737,-0.009571133050823645,Lift down
0.4589441811132926,0.42358398437,0.49975585937,0.00046060521472116993,0.7794829577897561,0.74743652343,0.81359863281,0.0003233229030887166,-0.4787627429454878,-0.51330566406,-0.42407226562,0.0005246687728662975,1.023901334348415,0.99251951084,1.06282266457,0.00036029667393176296,972.6402027289104,972.55068709608,972.7123443132,0.0015828409179013375,0.0005938381611405473,Lift down
0.46808664421934215,0.43969726562,0.48364257812,7.436249078759298e-05,0.757258365025,0.74035644531,0.779296875,0.0001108683907067178,-0.5023450349476315,-0.52221679687,-0.46789550781,0.00030636958909110735,1.0224165011998685,1.00949341666,1.03482858762,4.610884737022749e-05,972.6340638054336,972.61338379108,972.64308539646,6.950203143713812e-05,0.0003077073230841114,Lift down
0.4730799748310577,0.23962402343,0.671875,0.006469069452363765,0.8036499023406731,0.72082519531,1.30895996093,0.01707891005906642,-0.45008380596,-0.62719726562,-0.17895507812,0.007099839990201529,1.0449495404773077,0.8345051821,1.45348190211,0.012926669007793115,972.656359507793,972.49049138917,972.74981647187,0.002481333768065175,-0.00046129393921569197,Lift down
-0.1582561990472826,-0.41235351562,0.41577148437,0.05861683281548346,0.3965600055165217,0.09558105468,1.01123046875,0.07423131277373773,-0.8600291376477173,-0.95922851562,-0.37170410156,0.021206424649238626,1.0345841229454351,0.93215829634,1.19789714866,0.004014371177848637,972.6331737062542,972.49049138917,972.68369361844,0.0026719322716060104,0.000914094371090063,Lift down
-0.4015662783621427,-0.44689941406,-0.36364746093,0.0002777539749332718,0.13635689871345238,0.05676269531,0.26281738281,0.002669760062861127,-0.9250967843155949,-0.97705078125,-0.87438964843,0.0005979577525363,1.0191706216734524,0.98971949025,1.06848214261,0.00045263633490564463,972.5977470154259,972.49843332066,972.68231346784,0.0015276204573999464,-0.0008827371691186027,Lift down
0.08190138796436171,-0.46057128906,0.64208984375,0.15327534938322487,0.444374896105319,0.06140136718,1.28723144531,0.14705353918069514,-0.7100141809307445,-0.96545410156,-0.41625976562,0.028953017265164242,0.9958577676031917,0.6047680769,1.59706960227,0.04279853991442897,972.6617862662272,972.48583535118,973.00133559407,0.029661280028949768,0.004952224287017913,Lift down
0.5162303177314432,0.44592285156,0.60485839843,0.00157334125203141,0.5979117167335051,0.52600097656,0.7841796875,0.0028789742175084464,-0.6392004268647422,-0.70166015625,-0.43127441406,0.003118956375195129,1.0197509049217526,0.97654508956,1.04199118645,0.00017243474444001927,972.8398333410231,972.70632147177,972.95807109124,0.005746996461707075,0.0017371865170142775,Lift down
0.5050886287203488,0.47583007812,0.52111816406,0.00018125080419650178,0.5841504473979068,0.57116699218,0.60388183593,8.82488533942991e-05,-0.666738110916279,-0.685546875,-0.65173339843,7.76943792737464e-05,1.0203767029273259,1.0054540762,1.03533494234,6.122960061790642e-05,973.0081655363126,972.89472967034,973.07584564498,0.0029008423117146947,0.002081737945784306,Lift down
0.5146190788136707,0.48645019531,0.56201171875,0.00021771445304037912,0.5914337544459493,0.57861328125,0.59802246093,2.4782913872377862e-05,-0.6487419031793669,-0.66198730468,-0.62731933593,4.5846621727366836e-05,1.0177195098216454,1.00650624335,1.02762227217,2.474575354340217e-05,973.1739542380109,973.07584564498,973.29158144939,0.003791029562951024,0.0025242139617519515,Lift down
0.5383526837338272,0.51953125,0.57019042968,0.00018981587553925183,0.5927282262692593,0.5810546875,0.61352539062,6.612853870829942e-05,-0.6410936897160494,-0.666015625,-0.61535644531,0.00018085109325331278,1.0259417590765432,1.01679825139,1.03574543146,2.672113961654563e-05,973.4422934873901,973.29158144939,973.57180846625,0.0075759149917863505,0.0036523537199681312,Lift down
0.5387764724992155,0.52124023437,0.55444335937,9.16198619314247e-05,0.6006721047757843,0.59106445312,0.60913085937,2.6193759293279006e-05,-0.6192997951094117,-0.63659667968,-0.59643554687,0.00010326970602798373,1.0172450870344119,1.00128399105,1.03007571234,5.11512308220842e-05,973.6517945635478,973.57180846625,973.76770552685,0.00311146673839533,0.0018700016343212013,Lift down
0.5456461588513333,0.5361328125,0.5517578125,1.6706981012739202e-05,0.5995510525127777,0.58544921875,0.60876464843,5.387765227303819e-05,-0.6193684895799999,-0.6357421875,-0.59814453125,0.00010359829730152601,1.0202778550915557,1.01217418714,1.02749868319,1.4022909829947392e-05,973.8778696356638,973.76770552685,973.99060183372,0.0041700573660466995,0.0024617145577732788,Lift down
0.5459072618566264,0.53466796875,0.55969238281,3.771294294714969e-05,0.6035391566222892,0.59594726562,0.61376953125,1.8174131407315645e-05,-0.6095897260878312,-0.62963867187,-0.59167480468,0.00012041431751683069,1.0168619836614459,1.00696241766,1.02955768183,4.0254740922988176e-05,974.0921467358017,973.99060183372,974.20268132011,0.004061925562139522,0.002634328880176101,Lift down
0.5561332702607291,0.54821777343,0.56481933593,1.9328006981399435e-05,0.6002566019655208,0.58654785156,0.61047363281,3.3570942062451714e-05,-0.5982233683237499,-0.60900878906,-0.57189941406,7.0244067332729e-05,1.0136796071912502,1.00379535047,1.02371955945,3.9324777178345095e-05,974.3198098690265,974.20268132011,974.40836524847,0.003241420735038947,0.002016055383508678,Lift down
0.5724182128870834,0.56457519531,0.57873535156,1.558410494440661e-05,0.6018308003714583,0.59692382812,0.6083984375,9.071393951993875e-06,-0.5828208923302083,-0.59228515625,-0.57006835937,3.655331798277273e-05,1.014682285123229,1.00295949146,1.0240522533,2.3794600145203786e-05,974.535936521405,974.40836524847,974.65920473941,0.005741962571447783,0.0026947872455265706,Lift down
0.5765281499786046,0.56164550781,0.58642578125,3.85765521373688e-05,0.6033467137502324,0.59326171875,0.61010742187,1.5391731471271017e-05,-0.5795146143677906,-0.59680175781,-0.56555175781,6.873122684706872e-05,1.0160451121003489,1.00500437869,1.02611938011,2.3023644972783375e-05,974.747655271662,974.65920473941,974.85630445272,0.004392723688908023,0.0026233009745056136,Lift down
0.580463359877922,0.56689453125,0.60107421875,9.461377206792337e-05,0.594970703122727,0.58776855468,0.60107421875,1.6232462310927543e-05,-0.5826416015587013,-0.6015625,-0.57116699218,6.506317540556256e-05,1.0151535244166234,1.00258536217,1.0273248939,3.650645072652513e-05,974.9711306417611,974.85630445272,975.07739357442,0.005210848721643438,0.0031879303172607392,Lift down
0.5654654947871999,0.52429199218,0.603515625,0.0004220418725908185,0.6213736979138665,0.595703125,0.65014648437,0.0003223100116569009,-0.5741520182251999,-0.59094238281,-0.55297851562,7.97442863812554e-05,1.0179512944974667,0.99434700942,1.03491775356,9.65964962756155e-05,975.1997696014087,975.07739357442,975.27085887117,0.0039056722644414633,0.002705278502022331,Lift down
0.5402578221662375,0.52111816406,0.57507324218,0.00016161570455358498,0.6737181408540595,0.62927246093,0.77734375,0.0012017996623872795,-0.6003587175084157,-0.70275878906,-0.57360839843,0.0006751310914072298,1.0521836972648515,1.01686197659,1.15234711856,0.0011443981348620473,975.4446748369595,975.24954992209,976.26385696299,0.07003792029936404,0.006997963026594769,Lift down
0.5119791666629999,0.29211425781,0.57849121093,0.007287346312158165,0.5685818142327778,-0.27099609375,0.77734375,0.05625197879968135,-0.5405287000833332,-0.63610839843,-0.30224609375,0.0045403042850898625,0.9590707170490002,0.50012230867,1.12389274917,0.025455714483625567,975.4845831775173,975.17186658073,976.19522533365,0.046660178137937325,-0.0013309911198684991,Lift down
0.5427528939553657,0.51940917968,0.58410644531,0.0003937943845775705,0.64261236423,0.60876464843,0.67541503906,0.00023693003564444743,-0.578559689399878,-0.60864257812,-0.53564453125,0.00043169660976407823,1.0213816929140245,1.00089629805,1.04451905801,9.27013233230292e-05,975.5900512920884,975.52794209575,975.62514229823,0.0007193609417920486,0.0005897432489688234,Lift down
0.5355937829133708,0.52087402343,0.5546875,5.5795978757548896e-05,0.6364512925703371,0.61999511718,0.65637207031,7.832825063984326e-05,-0.5914087188346067,-0.61096191406,-0.57092285156,9.708091677820092e-05,1.0206832361587643,1.00408347676,1.05214975008,0.0001310318530275013,975.6061875243681,975.59024364789,975.61912949383,7.584820514045696e-05,0.00017325264006412457,Lift down
0.5457674662230209,0.51635742187,0.57849121093,0.0002520530615022638,0.6518465677858333,0.61315917968,0.69812011718,0.0004239920706517991,-0.5727831522573958,-0.59216308593,-0.53601074218,0.0001394057727937163,1.0254499055294792,1.00814605338,1.04461184028,0.00010717895749882924,975.6120735932533,975.5971864097,975.63030430119,9.502240633174032e-05,0.000170926736887312,Lift down
0.7165878120474714,0.55139160156,1.08947753906,0.011851455204680821,0.5421254826655171,0.30224609375,0.70263671875,0.015436675532101428,-0.34196665094885065,-0.53601074218,0.24133300781,0.041020016114004056,0.9929744687744825,0.85436466682,1.30329945674,0.0059322080923165,975.7772506934202,975.51231672157,976.04936077929,0.024885466380756536,0.00021607748949755294,Lift down
0.9174898587702562,0.76708984375,1.123046875,0.00992331983544162,0.14436379456974355,-0.15075683593,0.67333984375,0.029165613615782203,0.36416234725205127,0.21423339843,0.49060058593,0.004196403726012788,1.0138746725996155,0.85555014375,1.30329945674,0.010161583211868833,975.5272271381596,975.3814027827,975.8727125495,0.018698745709899326,-0.003023767570564979,Null
0.9531754557242664,0.77355957031,1.17846679687,0.012463657877589412,0.2058333333314667,-0.01245117187,0.46252441406,0.01530943395848205,0.2474999999966667,0.07092285156,0.40588378906,0.01252708457604804,1.0187888693932001,0.83003117148,1.26379123342,0.014188318411083856,975.9719416607871,975.34811946635,977.09700323582,0.22373224934135083,0.01374895795508227,Null
0.6946096709239393,0.31384277343,1.19360351562,0.07265881223656581,0.6004823626862624,0.07458496093,1.0029296875,0.06072210273108214,-0.18013509114383844,-0.38879394531,0.21350097656,0.03852211638285055,1.0194005733096971,0.87868346039,1.20138879073,0.006565742763260844,975.234665054111,974.82726696695,975.50697161785,0.03959977738774427,0.0038822825774661894,Null
0.21890462239133335,0.11157226562,0.38354492187,0.00534361192354897,0.8903944227393334,0.79382324218,0.95874023437,0.0017570539954851392,-0.427791341143,-0.50048828125,-0.20080566406,0.005153054333777717,1.01716210838,0.9228933012,1.06367479618,0.0012394783700518434,975.5375546910221,975.44511688363,975.62760479865,0.002201727953842505,0.0008066643951645925,Null
0.2818059346720481,0.18505859375,0.43286132812,0.005091024336637108,0.8609869164120479,0.75402832031,0.94995117187,0.001673294552565846,-0.46554969879168673,-0.5087890625,-0.27783203125,0.002289422055565844,1.022396212164217,0.90164212614,1.0766003166,0.0011136395208157979,975.6248892910115,975.58171613032,975.66704659562,0.00048480277906434553,-0.0007948017787911818,Null
0.2831562840613953,0.24890136718,0.34924316406,0.0007063827685475676,0.969374545782209,0.92590332031,1.00341796875,0.0006172230730176134,-0.23932452534186038,-0.29956054687,-0.19104003906,0.0012695963442257683,1.0389474691974419,1.00423172302,1.06749902007,0.00029535897353495357,975.6050767870324,975.57887568709,975.62478652576,0.00018298063942380347,0.0005040437333471008,Null
0.24830863401597938,0.15026855468,0.29870605468,0.0019191714592308123,0.9254162975146392,0.84741210937,1.00415039062,0.0024669982167116163,-0.3493362898635052,-0.41284179687,-0.23974609375,0.001953366142089331,1.0222300612560826,0.97529127159,1.09299081612,0.001422895521174768,975.6127599180717,975.58689654276,975.63413575839,0.00018348097845031518,-0.00042356490141605034,Null
0.2669833870783721,0.23962402343,0.29150390625,0.00018846455622565655,0.9533137831537208,0.91687011718,0.98608398437,0.0002421889785388216,-0.2892115393304652,-0.32250976562,-0.24829101562,0.0003608705019770333,1.031664869563837,1.00421694389,1.05762793763,0.00018265366705155222,975.6009494729536,975.59234134134,975.6127759534,2.9618434865260324e-05,0.0001913524156306276,Null
0.27991485595337495,0.21655273437,0.35607910156,0.0013425392983260473,0.9545318603464998,0.90710449218,1.02319335937,0.0007894091874157246,-0.261920166012625,-0.30639648437,-0.19067382812,0.001473097144874151,1.030065359670125,0.992898386,1.08319918401,0.0006186427679740305,975.6058639043631,975.59827925493,975.61766833926,2.562443779010518e-05,-2.6689678409967016e-05,Null
0.23096857843810809,0.01293945312,0.595703125,0.02935931787492304,0.9257664036072973,0.74645996093,1.03466796875,0.0047430044791762155,-0.34010273701040544,-0.39929199218,-0.21081542968,0.0012562184924837369,1.0294450828452704,0.95650596216,1.10398783075,0.001199544185499912,975.6068349978849,975.58640016131,975.62696516017,0.00014803842686617988,-0.0003104712443199906,Null
0.22854746942499995,0.05920410156,0.51965332031,0.006719606220623538,0.9594832710567391,0.81298828125,1.0224609375,0.0015947192095916217,-0.3092651367148913,-0.35070800781,-0.24377441406,0.0009082374009326406,1.0376399603975,0.97476030759,1.09239639582,0.0009226772753538318,975.5968659102872,975.58428397119,975.61535206083,4.852869223972081e-05,-5.667987087073301e-06,Null
0.3740585002463829,0.1728515625,0.62683105468,0.02133629258667113,0.9271448013595744,0.7548828125,1.17663574218,0.00934268634723479,-0.13214630776010639,-0.3994140625,0.16845703125,0.019614797979388716,1.0287229681367025,0.80802094631,1.24266034849,0.00855873285984244,975.6012855825102,975.58581821722,975.62570583065,7.899761909518641e-05,0.00017146581977586236,Null
0.5665024701244705,0.14868164062,1.10607910156,0.06235955517019977,0.7705221737087057,0.39392089843,1.12658691406,0.03282386930633623,-0.14831255744270588,-0.35437011718,0.12023925781,0.019166365966474516,1.0103856343531765,0.6719360102,1.28785752707,0.029093731408791908,975.5358320010591,975.4416632865,975.72283623962,0.005074037614511587,0.0002578020360089147,Null
0.9829226762783332,0.69995117187,1.25341796875,0.025866761451132647,0.26258889222333337,0.01794433593,0.52014160156,0.018821238836667545,0.09341978415282051,-0.13708496093,0.34606933593,0.015848563517337804,1.040906338041667,0.80550640991,1.29785230305,0.020352549493530613,975.7295429560196,974.83301776673,976.88854494251,0.5164546659919724,-0.026199036911891776,Null
0.9699356532293069,0.70788574218,1.1474609375,0.014900349181067769,0.2802976098355446,0.07604980468,0.52978515625,0.013886536663655696,-0.02614480197881188,-0.18151855468,0.13439941406,0.008390278933777891,1.020813860140891,0.77098357931,1.26922383621,0.014921345230701212,975.4217021263794,975.22182803322,975.51844499968,0.006951889702659415,0.0024688622801196593,Stairs Up
0.9420247395782222,0.59069824218,1.31713867187,0.047313773498211,0.3456814236078889,0.15942382812,0.55859375,0.011676158321664427,-0.0758449978278889,-0.31872558593,0.05541992187,0.009786787269643027,1.0130985196432223,0.65066651916,1.41247695739,0.05491278518218624,975.4540818519861,975.42368254296,975.49340716203,0.0003414207007685211,-0.0006341321069082738,Stairs Up
0.8937065310556098,0.61047363281,1.265625,0.032276637599010755,0.47977354467914624,0.28540039062,0.73547363281,0.019945306796166448,-0.07415920350353658,-0.17175292968,0.06616210937,0.004140399209813985,1.0236483509636585,0.68722756363,1.4036819852,0.04273380072362619,975.4111912539861,975.35708190362,975.4646462587,0.0010580811454093326,-0.0010243435284128385,Stairs Up
0.8965462239546665,0.65454101562,1.1923828125,0.02711635883311119,0.44209309895520005,0.22314453125,0.65283203125,0.009839185497859494,0.014594726562933334,-0.15783691406,0.13134765625,0.00680460971696735,1.0076617950432,0.74481023863,1.29387191852,0.02761706555524871,975.3167575702558,975.28187811985,975.35968553082,0.00046593800409569947,-0.0009383957137776212,Stairs Up
0.8794904436339285,0.61889648437,1.16052246093,0.018584699900431982,0.473593575610119,0.33264160156,0.7119140625,0.009473771273638711,-0.1309552873854762,-0.3017578125,0.01452636718,0.007909071399017696,1.016025811767738,0.7364621736,1.27930794631,0.021848061944485495,975.2502782713602,975.20090334682,975.29250643069,0.0005117318965826579,-0.0006863093982000894,Stairs Up
0.8097313949707216,0.40466308593,1.15832519531,0.04327110621674182,0.5703427029597937,0.279296875,0.92993164062,0.03305047751393945,-0.17499093910639177,-0.43969726562,-0.0126953125,0.013699073994111577,1.0191706819443298,0.63254422517,1.4441822891,0.06260672047134548,975.1599841153557,975.101857661,975.27295648976,0.0018659536185353638,-0.001339235518655584,Stairs Up
0.8811770352412499,0.63464355468,1.13830566406,0.018502895017021865,0.4702994606672727,0.32055664062,0.69055175781,0.010453673394960197,-0.05018477006318181,-0.19799804687,0.06481933593,0.006698178638691897,1.0073455539088636,0.74149262876,1.26338620619,0.02091524906240867,975.0820305319739,975.04214234376,975.11296648597,0.0004199225220763484,-0.0007454593270500507,Stairs Up
0.8791915893516251,0.51293945312,1.15356445312,0.03419790424262491,0.4687866210899999,0.24047851562,0.76525878906,0.019955471120136046,-0.042797851562125,-0.2587890625,0.11267089843,0.007736328507726866,1.009856480992625,0.63120415067,1.25339218249,0.037894061075298795,975.0219530353777,974.99381004438,975.04890686037,0.0003769535401915585,-0.0006476976424457292,Stairs Up
0.9267770867563158,0.60009765625,1.25439453125,0.04194058582992309,0.36735197368,0.21472167968,0.62524414062,0.011722888327696432,-0.012686317844526316,-0.13256835937,0.1455078125,0.0047997462117563795,1.0019992375934736,0.63835264387,1.34753734229,0.04837877999014829,974.9935166291261,974.97350697773,975.06366525944,0.00047916014751805323,-4.4396438882679825e-05,Stairs Up
0.8698730468712902,0.66723632812,1.17578125,0.02583169127307731,0.41002761676344074,0.22033691406,0.69860839843,0.01348259344209034,0.0432286416332258,-0.12414550781,0.22326660156,0.011656631342703165,0.9738440426515053,0.72658495714,1.30120344441,0.02903328781633871,975.0064268120744,974.98895695318,975.02780606596,0.0001360531266926659,0.00024457001547662784,Stairs Up
0.9141090029727379,0.66967773437,1.15026855468,0.021609896602701125,0.5041532970580951,0.33850097656,0.70874023437,0.009555423825505505,-0.07540457589011905,-0.220703125,0.07360839843,0.006126962717380602,1.0529458852314286,0.76605854604,1.28194952686,0.023889353549251768,975.0142737205887,974.99917210112,975.03283246864,0.00011499885374446478,5.980078782525244e-05,Stairs Up
0.8838179738857895,0.58959960937,1.27392578125,0.04395516668518125,0.44147692228249985,0.28125,0.77624511718,0.019657825335891606,-0.06711457904855264,-0.21228027343,0.05114746093,0.006714749343602103,0.9968166199284209,0.65542959976,1.4004552499,0.05705011254918704,974.9639418301961,974.91721055868,975.00144273829,0.0006862381786833478,-0.0010573614284319112,Stairs Up
0.9518164062461332,0.59020996093,1.2353515625,0.03840024107241689,0.3631331380161334,0.10522460937,0.68566894531,0.021956369801941142,-0.0348388671872,-0.22583007812,0.09521484375,0.010595873400306955,1.0341550513778666,0.65294105914,1.34587353539,0.04009831890524347,974.9051116844115,974.85388101725,975.04266683213,0.0013236195666801256,-0.0005575313666597363,Stairs Up
0.9378985969350001,0.67468261718,1.28344726562,0.03553910094195118,0.39013049067,0.18383789062,0.626953125,0.014825098100610654,-0.05286890146520407,-0.15832519531,0.04187011718,0.00252576356352483,1.0224077303708163,0.70227811462,1.35574835386,0.042113126391273195,974.8178919449081,974.78220261282,974.8569549909,0.0004704380720125724,-0.0006899944779308138,Stairs Up
0.8979854374101096,0.65417480468,1.17700195312,0.023776241969508498,0.4588220617241757,0.3203125,0.6796875,0.010089302412461813,-0.03183754721615385,-0.126953125,0.04931640625,0.002139753736265681,1.0132619781752747,0.73635915797,1.28393318508,0.027116947055844404,974.7296936575644,974.67695018196,974.78220261282,0.000829335057008763,-0.000996591210845556,Stairs Up
0.9196233174857831,0.63354492187,1.20874023437,0.02486920220578602,0.32519090031686754,0.16821289062,0.60290527343,0.01208158362397969,-0.15905761718493977,-0.36828613281,0.0439453125,0.009621233838137944,0.9979081470115662,0.69443714032,1.35759832758,0.027274340938491844,974.6535786881575,974.56334670895,974.72706759577,0.0014096815910804997,-0.0010994016822232857,Stairs Up
0.9361285041324707,0.6044921875,1.18054199218,0.029380628625238752,0.40699965532658816,0.26245117187,0.55493164062,0.006872650467499648,-0.11064165900400001,-0.2021484375,-0.01171875,0.002343259033788284,1.0300196908288233,0.69841959373,1.31024388137,0.0318029221305857,974.5419060111352,974.49746440103,974.58131915859,0.0005796307235353718,-0.0008422446220988646,Stairs Up
0.9026583642035052,0.57592773437,1.20227050781,0.026338770623893778,0.4555324279118557,0.1728515625,0.72082519531,0.02066216144151184,-0.10927306499402062,-0.21728515625,0.02404785156,0.0041602963831289036,1.0269249337650517,0.73238824385,1.4068435423,0.030617132133038575,974.4812151690078,974.44166477083,974.51175418728,0.00033372341234383325,-0.0004804716043319211,Stairs Up
0.7607352516832955,0.51831054687,1.10095214843,0.03102275124843328,0.5474368008648863,0.32983398437,0.86853027343,0.019731667034965077,-0.1594959605784091,-0.28723144531,-0.08679199218,0.001964107887600357,0.9565684180061363,0.69774155175,1.43141271903,0.04141102909695829,974.3993176221651,974.35641339541,974.45371404003,0.0008614625207086117,-0.0010591314894307312,Stairs Up
0.9052017211868751,0.57788085937,1.18298339843,0.0278995062333234,0.448149108883875,0.20629882812,0.70861816406,0.019273859882774066,-0.11313781737987498,-0.27526855468,0.00964355468,0.005409270062488392,1.024888326882125,0.71364628704,1.32287518806,0.03499464931907923,974.3658837139504,974.33194029176,974.42207871389,0.0004459367878117104,-0.00013921168505771453,Stairs Up
0.9034863281210667,0.69189453125,1.19128417968,0.017626153311188643,0.46770996093346656,0.23474121093,0.68041992187,0.01215107995092653,-0.05621907551813333,-0.17468261718,0.03015136718,0.0025763021501685884,1.0246202178649335,0.82522085477,1.32529850489,0.02055030526202947,974.3590562631426,974.33010723486,974.43675117872,0.0007050219081698951,-0.0002951861612969382,Stairs Up
0.9323151417237177,0.76062011718,1.18505859375,0.016819398791925785,0.31262363531141024,0.06726074218,0.57360839843,0.017502487283678998,-0.010474571814102563,-0.10888671875,0.08862304687,0.0029086103133571747,0.9943035384747435,0.81908970475,1.20949180196,0.015365425844882374,974.3520667239267,974.32871059327,974.4016711358,0.00024093080867149404,0.00011734527761340803,Stairs Up
0.9881567136178787,0.60144042968,1.19177246093,0.024105433596613712,0.2904656920724243,0.08618164062,0.65954589843,0.021758171482234457,-0.003663342409191919,-0.18188476562,0.15075683593,0.006462741108958588,1.0405430524041415,0.65215949922,1.28035157384,0.030210539306473317,974.3395749013735,974.28731179726,974.40515776721,0.0012955863392750768,-0.0009530451751894017,Stairs Up
0.9622610713619101,0.54321289062,1.25451660156,0.042547920515322454,0.3326800057035955,0.10986328125,0.68908691406,0.026193047990596807,-0.018546458041123596,-0.267578125,0.17822265625,0.009886346349874967,1.0349751961044944,0.63261816784,1.3412706101,0.04403126540697799,974.2713022984263,974.23206410201,974.3027826637,0.0003998310010013753,-0.0005508661370282449,Stairs Up
0.9029005097139023,0.68334960937,1.19738769531,0.01718235571354394,0.39618068787658534,0.12744140625,0.7490234375,0.020419820312947784,-0.14277313976329267,-0.26257324218,-0.04516601562,0.004025613768497679,1.0060094358858533,0.75423314612,1.25086373647,0.02190491922042901,974.2141650495171,974.12118591012,974.28966534227,0.001574158716959021,-0.0015624389366983942,Stairs Up
0.9125493646945054,0.68493652343,1.19738769531,0.01999417340736588,0.4358661358138461,0.2607421875,0.74572753906,0.017017658806448715,-0.07473654275142859,-0.21228027343,-0.00170898437,0.0028618330229019952,1.0227637462746153,0.79305255616,1.25904599712,0.021942116733961015,974.1333555117942,974.09159999505,974.17455998919,0.0005796359809744103,-0.000813327376796413,Stairs Up
0.8904795545176595,0.67419433593,1.19873046875,0.02346059432520828,0.4231008976026595,0.28479003906,0.69470214843,0.011452200244427883,-0.07331361161606383,-0.162109375,0.07861328125,0.003849721214186535,0.9932009428877662,0.7417704364,1.30766437607,0.02955959159516496,974.0633508049684,974.01325841657,974.10115913406,0.0008351750694625952,-0.0009692865331906861,Stairs Up
0.9592129019768604,0.62548828125,1.22863769531,0.03081921226703839,0.35519054323767446,0.10998535156,0.71887207031,0.024643471188704743,0.009971441224651163,-0.16394042968,0.15441894531,0.0067207358375527045,1.036654268511279,0.70322944077,1.32212769142,0.03354751419424966,973.9825918269916,973.92977533335,974.04512459764,0.0011952860760808058,-0.0012284131686368426,Stairs Up
0.8788123497555128,0.50341796875,1.11511230468,0.035164965020515866,0.4497242462896152,0.22961425781,0.796875,0.018446722868581757,-0.10133557441589744,-0.29248046875,0.02355957031,0.00512880927726211,0.9994660571855126,0.60246447034,1.37692460916,0.04266857244776975,973.917637694722,973.88972460055,973.94757503072,0.0002851889348945826,-0.0006330767618317094,Stairs Up
0.9211871172897298,0.64221191406,1.23864746093,0.026170340128788598,0.4692102380672972,0.22216796875,0.8505859375,0.025782847056448722,-0.012794288429189189,-0.21179199218,0.09716796875,0.007796471116548037,1.045035230410811,0.73095801996,1.42536052087,0.0362409871408111,973.883628719188,973.84473105148,973.9118584259,0.000256994611713229,-0.0004006430749751418,Stairs Up
0.8171025490241837,0.59716796875,1.05603027343,0.017869202810618556,0.5444323481308162,0.28649902343,0.83337402343,0.019971574856405425,-0.12822988081540818,-0.27001953125,-0.03149414062,0.004634567808957033,0.9972911748926531,0.74271138423,1.29309866215,0.02824652556584334,973.897479952085,973.84473105148,973.95262744644,0.0004400034640530647,-0.00034623498760225833,Stairs Up
0.8941199261181522,0.66577148437,1.15417480468,0.018218770694315985,0.4686027195104348,0.19128417968,0.80224609375,0.022666767579725505,-0.13426009468108696,-0.26953125,0.00720214843,0.005820852250000654,1.0300632547255435,0.78349356842,1.37257821127,0.022477447750272547,973.8988255415012,973.8801989086,973.92462875379,0.00011326626651086096,0.00022308558194281746,Stairs Up
0.971598797529518,0.68872070312,1.24780273437,0.025143576931986322,0.26682952512831326,0.02294921875,0.55700683593,0.015549427769125986,-0.11228850950265058,-0.33874511718,0.01135253906,0.005416768269789223,1.0234778741868673,0.72473813786,1.27016561064,0.026173546732698866,973.8946397507127,973.86128105277,973.9363074165,0.00037375429559814385,-0.00040778849827229644,Stairs Up
0.9198027111191668,0.69360351562,1.15588378906,0.023602962485143444,0.322261265342619,0.0634765625,0.60375976562,0.019589223217825802,-0.2345551990285714,-0.41259765625,-0.04614257812,0.008762491207634457,1.0153816412992858,0.77920506828,1.34008111324,0.02554590115000131,973.8559543052767,973.81520706878,973.88312756139,0.0004049133230330102,-0.00011819393503989267,Stairs Up
0.9242732500754545,0.71203613281,1.14880371093,0.01867454554131164,0.44744688091474744,0.28466796875,0.73693847656,0.017304998077878223,-0.17485524186828283,-0.27819824218,-0.03967285156,0.0022731076727692326,1.0481330901816162,0.78966187855,1.32236098899,0.024595836591378012,973.8015572382543,973.7722854871,973.84181094031,0.00029064863102896705,-0.00047007845956342607,Stairs Up
0.8668948086795454,0.61950683593,1.15686035156,0.024512189743154545,0.5060161243748863,0.35778808593,0.71948242187,0.011709719878805458,-0.1995350230790909,-0.33483886718,-0.08898925781,0.004474009808514192,1.0292850129195454,0.74452118641,1.36444446594,0.02850287718867929,973.7358086758653,973.66931753961,973.7722854871,0.0006883109059036022,-0.0008475963440388766,Stairs Up
0.8551581660364556,0.60424804687,1.19189453125,0.02713748193604945,0.45264753510329103,0.25170898437,0.68981933593,0.015285480935352262,-0.3147188983356962,-0.55749511718,-0.20434570312,0.00748847988906758,1.0263008580339246,0.73018840775,1.30980833821,0.03161971565281104,973.6901028952261,973.56444056529,973.89245290373,0.009395129089724038,-0.003133907734261746,Stairs Up
0.8557682291633334,0.48303222656,1.21667480468,0.04355042822166794,0.4994124348929332,0.21447753906,0.88098144531,0.0260833565018867,-0.04430013020799999,-0.3193359375,0.12084960937,0.01291655292842479,1.0111295474652002,0.68740143936,1.43917916018,0.04335937341144023,973.5399740667577,973.50101177785,973.57844260865,0.00045850391382282413,-0.0007441410442349633,Stairs Up
0.6660672217263919,-0.18920898437,1.27258300781,0.17245497766589332,0.5582048868357731,0.2158203125,1.31201171875,0.08440537760980148,0.04848079091608246,-0.15026855468,0.41467285156,0.029370296851027378,0.9846743456098969,0.59834953687,1.47476115171,0.06929974961633481,973.7017536234343,973.48667285,974.89443295996,0.18019851964124825,0.00915624363006456,Null
-0.6615748355219999,-0.99719238281,-0.18920898437,0.04223079921657279,0.5215306332201052,0.17944335937,0.86376953125,0.04209004411624664,-0.36138594777894745,-0.89050292968,0.30139160156,0.16388998127771423,1.0323072116830527,0.7672009597,1.32021277801,0.02043022240667364,973.331638400618,973.11777313677,973.91048223815,0.03209781588056333,-0.0037178705766190852,Null
-0.8162018531946511,-0.98510742187,-0.63916015625,0.008818558188534387,0.5558599427654651,0.42028808593,0.76318359375,0.009439512659155063,-0.12432293559139534,-0.486328125,0.30139160156,0.05657002948718691,1.0262843742605812,0.85709512171,1.25398960608,0.011453503003007957,973.3837164509109,973.25895748236,973.43252073273,0.0020518751817028866,0.0006681848786385168,Null
0.7402904992793103,-0.72888183593,1.48156738281,0.36276945707192604,0.3295828282106897,0.07348632812,0.7392578125,0.03351476835546452,-0.09836622216103447,-0.38305664062,0.27783203125,0.03248686760191262,1.0293019596229882,0.57594447416,1.53136586218,0.031068047205298717,973.4985582899425,973.40888196061,973.64300948524,0.002331774655878525,-0.0008097199102470255,Null
0.9053181563227723,0.78662109375,1.08239746093,0.0051049362784429,0.287139590420495,0.13427734375,0.44836425781,0.007632774831702946,-0.38937891591495044,-0.48767089843,-0.2841796875,0.003390318845780752,1.0321494354759408,0.93197879211,1.20045138204,0.0039790612095072266,973.4998691200772,973.47353834358,973.52531970204,0.0001836221891524243,1.6153277024447072e-05,Null
0.8980959774367416,0.8388671875,0.94555664062,0.0007893159239428543,0.2648281140235955,0.18542480468,0.32641601562,0.0015880824794889462,-0.4005017226957303,-0.44934082031,-0.30969238281,0.001534693498685983,1.019765418927865,0.95236057363,1.07106657682,0.0010705999328499921,973.4941059500777,973.47081392208,973.51902186686,9.819848639955084e-05,0.00018826634287247586,Null
0.8772831669523458,0.86596679687,0.89599609375,4.284249412635521e-05,0.264561029124321,0.22961425781,0.28698730468,0.0002348427603094516,-0.41758445456703686,-0.44201660156,-0.37475585937,0.0002287231799839215,1.0071914670864197,0.98745712778,1.02104482438,6.133214072365147e-05,973.503134994838,973.49379834877,973.51509241884,3.7580213892079195e-05,4.388161813057186e-05,Null
0.8788270692535134,0.84008789062,0.95422363281,0.0005596408421541029,0.2945144240883784,0.19030761718,0.38342285156,0.0019039267862175217,-0.395864125841081,-0.41967773437,-0.34692382812,0.0005286155321931862,1.0091040951341894,0.97033762046,1.06755608969,0.00045093695532300975,973.4986918770051,973.45570910586,973.54152814623,0.0005214444210007026,-0.0005131541357034984,Null
0.8906276251637634,0.79272460937,0.96960449218,0.0030768941208167843,0.41180748067483863,0.16918945312,1.00634765625,0.07460743499578894,-0.2465990948373119,-0.37768554687,-0.01733398437,0.014322014474165336,1.0484250287666668,0.8985975123,1.34139311711,0.015603851901369906,973.4871021187137,973.44321221197,973.52833461779,0.0002898087925246163,-0.00013091322554350683,Null
0.3201488738329788,-0.0419921875,0.86962890625,0.07471873252425867,0.5893009266913828,0.25451660156,0.94250488281,0.04911508086439876,-0.6175731902380851,-1.06774902343,-0.01733398437,0.09294003834768846,1.0141223180158512,0.80650408792,1.23826306687,0.017376051563863976,973.5859248674614,973.44609551934,973.77751263957,0.00811330518502884,0.001696628958209378,Null
0.005185081845119048,-0.16296386718,0.24169921875,0.009195022724690766,0.5149201892639285,0.22497558593,0.68469238281,0.021337987195812244,-0.8707478841103571,-1.03967285156,-0.74426269531,0.00868716183681092,1.0292278984954761,0.80454373232,1.08963974714,0.0028486747725565208,973.5650191012343,973.40271306027,974.18769303732,0.055424452479514844,0.00698908615534634,Lift Up
0.4734590970537178,-0.40905761718,1.10815429687,0.31750315834529264,0.42756065955217937,0.078125,1.16381835937,0.07627923593834683,-0.3687525040041025,-1.03039550781,0.27966308593,0.14670565327321328,1.023785568275769,0.68746923247,1.48535107092,0.028740333002042564,973.343456067899,972.92503243595,974.18769303732,0.15876704772002523,-0.010472575874067929,Lift Up
0.9401444538947523,0.65405273437,1.10632324218,0.012175563656583635,0.26554523127851487,-0.06323242187,0.6787109375,0.040522867272812624,0.1022079014519802,-0.2060546875,0.37280273437,0.020546574096275517,1.0170356466933665,0.94340152527,1.13358841992,0.0030205256687645325,973.5023548217587,973.32245181832,973.77808347865,0.02255668884401949,0.0012968372987382426,Lift Up
0.6879841665156179,0.45886230468,1.09533691406,0.016784705035236738,0.508428337864719,0.294921875,0.79418945312,0.021977567845318482,-0.5608650807548314,-0.72741699218,-0.22058105468,0.025474323338651572,1.0472814472705616,0.8615059096,1.41798845387,0.013256584232285677,973.7896287961674,973.44001196159,974.2591623098,0.056373577923922835,0.003202406576557087,Lift Up
0.6801951338560975,0.64880371093,0.70349121093,0.0002511373528447216,0.410375083360122,0.38671875,0.43139648437,0.00014400398944612494,-0.6444106683458536,-0.66906738281,-0.61157226562,0.00027151920688856055,1.0231953979126827,1.00897602811,1.04055023526,6.878572912567019e-05,973.5018984349884,973.40332586303,973.6209761898,0.004326070886963687,-0.002469578966355205,Lift Up
0.7034257097910975,0.68212890625,0.75891113281,0.00037568042126370885,0.34415640481780485,-0.09985351562,0.41369628906,0.020110515552331273,-0.5895073123052439,-0.65637207031,-0.23303222656,0.012884867986468318,0.994252510527805,0.78972543118,1.03322280403,0.005260428071700001,973.4199381986102,973.17487729363,973.49095840168,0.005868015531712471,-0.0024286898479710536,Lift Up
0.6183372030404082,0.54565429687,0.7021484375,0.0016485102163385805,0.3978694993592856,0.19006347656,0.47241210937,0.0023182855137948706,-0.6915258290784694,-0.74279785156,-0.42858886718,0.002938981209773842,1.0122209582377553,0.84428962476,1.06098831852,0.0011043175498829528,973.492753767393,973.25573246822,973.60009623758,0.00931665271508028,0.0006526973157618945,Lift Up
0.6235934170767046,0.58618164062,0.65563964843,0.00037565347010863197,0.4487706964628409,0.4365234375,0.46374511718,6.434483142953411e-05,-0.6800897771611364,-0.70776367187,-0.64953613281,0.0003515276960357553,1.0263996255914773,1.00922177719,1.04949663477,7.31642099928616e-05,973.4515872863935,973.43720687261,973.48097574012,0.00012633085452128518,0.0002917140036691481,Lift Up
0.6558868031412346,0.61474609375,0.70178222656,0.0006364717987289104,0.4825831283720987,0.30834960937,0.54821777343,0.0039010319215278177,-0.6100591965622222,-0.67321777343,-0.55261230468,0.0013963374044909114,1.0202213723793827,0.99154949701,1.06206836067,0.00025832196570536517,973.496412751548,973.45455428853,973.56143511833,0.0012459695783598045,-0.0003611757915316332,Lift Up
0.6331481933544791,0.47448730468,0.70922851562,0.004072741144677349,0.5262985229458333,0.44750976562,0.56982421875,0.000558439622596509,-0.6099141438780208,-0.73583984375,-0.56506347656,0.002718913764371083,1.0277336858859374,0.96074740537,1.08852797899,0.0009084983755942538,973.4183200836679,973.24042129909,973.5150794179,0.0069627413606450075,-0.001956052655607128,Lift Up
0.5594999893813043,0.52014160156,0.6025390625,0.00079212419070874,0.5905629033594565,0.50048828125,0.65087890625,0.0015660355563860567,-0.6734168011165217,-0.72595214843,-0.62145996093,0.0008161387985492107,1.0572850605385866,0.98361899091,1.09422153117,0.0005894723427325553,973.4410273167729,973.25384839163,973.82513018483,0.018236898748121934,0.004582361397581034,Lift Up
0.588333313719036,0.55395507812,0.6025390625,0.00014960900705599122,0.5694712443483132,0.54614257812,0.62133789062,0.00036880810523920877,-0.6128062052856624,-0.63134765625,-0.58813476562,9.656643433529701e-05,1.0231064381815662,1.00411032298,1.06551704782,0.00016232988551336,973.3931852810776,973.25124137652,973.72061552229,0.009134374600224862,-0.003669684008475834,Lift Up
0.5613419382169736,0.54467773437,0.5966796875,0.00017619867859329733,0.5362179404764472,0.51965332031,0.55908203125,9.756565878055275e-05,-0.5989363820896051,-0.61706542968,-0.58178710937,8.069773253107916e-05,0.9805937282018424,0.9603784377,1.00865270647,0.00023118845075206004,973.1559985267955,973.08404537599,973.25775575397,0.002278333045042998,-0.002079347551532995,Lift Up
0.5759020353578946,0.53271484375,0.60339355468,0.00039230347147771813,0.5524439761479999,0.52880859375,0.57934570312,0.00016657728426816725,-0.6379278885652631,-0.66540527343,-0.59838867187,0.0002981532360596423,1.0219519561382104,0.98986057697,1.05161683989,0.000274594518592334,973.0570782433932,973.03305053236,973.10763658364,0.00049669036377067,-0.0006278600127040867,Lift Up
0.5916301768277419,0.55322265625,0.634765625,0.0005865420287379875,0.5612884849586021,0.53637695312,0.58715820312,0.00016203141620674909,-0.6157751596067741,-0.64672851562,-0.58508300781,0.00040830198768805034,1.0222406996262365,0.9904386321,1.04584145412,0.00018414558270152517,973.0154928137971,972.99071649156,973.05174632103,0.00029829297858102857,0.00025355244043106514,Lift Up
0.6100478399332142,0.5888671875,0.63317871093,0.00016410325450739343,0.5587201799623808,0.54711914062,0.57678222656,6.106188729440015e-05,-0.5917896089057142,-0.61437988281,-0.57397460937,0.00014637225764299843,1.0172716228689287,0.99514909717,1.03409071729,6.79158814685291e-05,973.0490158057846,972.97921150059,973.17845753917,0.004008771610085616,-0.0018167626052773649,Lift Up
0.6242244944816471,0.60546875,0.64013671875,6.681812160947525e-05,0.5656924976984704,0.55688476562,0.57446289062,2.6252832397505896e-05,-0.5655962775707056,-0.5810546875,-0.55480957031,5.609252874035882e-05,1.014720255988941,1.00068204687,1.02964983684,5.421924413641239e-05,972.9921387344904,972.98688965617,972.99843588373,1.751787040550788e-05,-3.465318589888275e-05,Lift Up
0.6297607421845919,0.61767578125,0.6435546875,6.157927907846352e-05,0.5725807657005102,0.55358886718,0.58166503906,4.1642730839067716e-05,-0.5581278898241836,-0.57971191406,-0.546875,5.032578293281465e-05,1.0178750363263265,1.00737892109,1.02879343623,3.683431272327608e-05,972.981166578801,972.96874227099,972.99345266327,3.322229629292127e-05,-0.00013371383272889838,Lift Up
0.6844940185506818,0.56433105468,0.8662109375,0.0058510814976394186,0.5668848211084091,0.42736816406,0.71569824218,0.004563870862126471,-0.43445379083454544,-0.55920410156,-0.25329589843,0.007270634143251611,0.9964813105323863,0.87591897866,1.10946720707,0.003186378746689342,973.0161110525086,972.92256033551,973.29874449555,0.012636081827812682,0.00074834349634506,Lift Up
0.891351241095063,0.73986816406,1.00085449218,0.0026972110067128067,0.45389141613544287,0.17504882812,0.79541015625,0.023910858286241708,-0.12405588656772154,-0.31640625,0.03515625,0.009719131355288705,1.024327991194557,0.95589253158,1.13525605888,0.0025663299486107815,972.9301679410903,972.76210780987,973.09115337213,0.006951577232359716,-0.001584595486663704,Lift Up
0.9375329919714864,0.71240234375,1.12145996093,0.013398131808607171,0.38141199060013514,0.18432617187,0.58996582031,0.010860018217024347,-0.06015262087999999,-0.23901367187,0.05883789062,0.004141882081005836,1.0214156648045947,0.80634740344,1.20223015787,0.012963018922242504,972.897446160755,972.63361736254,973.18472611114,0.026117039950806054,-0.0019086507396098547,Null
0.935641541769388,0.73522949218,1.35009765625,0.025111028991672748,0.40405397998775494,0.10595703125,0.66845703125,0.032999202300574744,-0.10754394531142857,-0.33801269531,0.09619140625,0.02072989848396753,1.052199204859898,0.8567547212,1.43666019475,0.01969143385687018,973.0686388104169,972.70391558647,973.42989941152,0.029251481234521863,-0.00016979409337989544,Null
0.7402701999785871,0.623046875,1.07788085937,0.009646350714452242,0.482942000675326,0.2939453125,0.65783691406,0.008409866221983473,-0.4893281356125,-0.65014648437,-0.15051269531,0.01687922852165773,1.0257401412705434,0.90117887139,1.17870218926,0.003121776591419676,972.8459216617665,972.64849776289,973.01287304856,0.00836359946226155,0.0028225907504037607,Null
0.6728383259572288,0.55627441406,0.78173828125,0.006521761058364975,0.5658856127606023,0.48937988281,0.64001464843,0.0017796333549892122,-0.494533309013494,-0.63488769531,-0.34753417968,0.009132050540552331,1.0167439373124096,0.96131940556,1.07020717297,0.0009679649467682226,972.9191607814838,972.8845346658,972.96609042992,0.00044359303928093446,-0.0004702995786975779,Null
0.6430794852074999,0.57263183593,0.71643066406,0.001622863928237314,0.5843447730615475,0.50280761718,0.60888671875,0.0008162744450428065,-0.5053245907694046,-0.58557128906,-0.44458007812,0.0014979368609160937,1.006804671432381,0.94666460771,1.06448276723,0.0006047382790991102,972.9613513655111,972.91435356152,972.99134096601,0.0002524200302467173,0.00032520032327461545,Null
0.6272134586212245,0.55834960937,0.81323242187,0.0021174613464182168,0.6418880540458163,0.57849121093,0.73571777343,0.0021412526523111887,-0.44363341039102044,-0.55627441406,-0.17114257812,0.01379942650057034,1.0094503913235715,0.90765647433,1.11994317456,0.0011228381697278114,972.9797496826457,972.94396135647,973.02298339606,0.0003543937824580812,-0.00011497076038322208,Null
0.764928644350341,0.46826171875,1.03344726562,0.018856601865343218,0.5481608997664772,0.20703125,0.83569335937,0.037151426059349506,-0.37461436878125,-0.59301757812,-0.21508789062,0.008545832005820932,1.038978980537841,0.74111710709,1.18971641645,0.010393204213500911,972.9674739527421,972.85455220922,973.21494374277,0.009738632537344662,-0.0020916655969376455,Null
0.807093811031125,0.400390625,1.14477539062,0.05008217284703446,0.531025695797,0.13537597656,0.84777832031,0.04196659728045665,-0.2129150390615,-0.62744140625,0.19384765625,0.06549720235892004,1.04897100056675,0.72186480304,1.32353387974,0.03438785930356105,972.9599525726389,972.75854683571,973.28680925727,0.020511544084821805,-0.0022584818797553143,Null
0.8735449218700001,0.61694335937,1.08166503906,0.018229998350178966,0.3306591796836001,0.10876464843,0.61511230468,0.021498097696580617,-0.09400878905959999,-0.23876953125,0.00891113281,0.00493856578256946,0.9533934203004001,0.71631825654,1.16458523297,0.016587130261320027,972.8914879187269,972.73287128099,973.05968080721,0.007827689901357834,0.0025109999719802162,Stairs down
1.0183133211969317,0.68347167968,1.40234375,0.035628228001954206,0.18689935857204548,-0.16320800781,0.34692382812,0.011990315003401352,0.12514010342329546,-0.09765625,0.28393554687,0.010600649604476358,1.0541603244663635,0.7584860846,1.45817437724,0.034246218617214524,972.9365968952727,972.81952453396,973.09392020574,0.006975910712881072,-0.0010504391928225717,Stairs down
0.9328022203917894,0.57983398437,1.41711425781,0.04885167957080144,0.26680458470021057,-0.02270507812,0.46594238281,0.01386377298126701,0.02470189144694738,-0.19140625,0.27355957031,0.011703167796587276,0.9846235809611582,0.65304890513,1.44005605216,0.04655659187935269,973.0290657144513,972.903813061,973.14495561664,0.004814729424451335,7.759029743589882e-05,Stairs down
1.000479764712558,0.60473632812,1.52233886718,0.0812267011724822,0.23617624681732557,-0.0185546875,0.37890625,0.007745062230689248,0.007219181503488372,-0.18176269531,0.20275878906,0.009622489761381739,1.0347415060955818,0.66856207346,1.52593927126,0.07908857315614937,973.0892220336905,972.98918059327,973.17653155747,0.002036537486615757,0.0012343532017809777,Stairs down
0.9618661614867087,0.57434082031,1.35437011718,0.06612869119679081,0.3096073971478482,0.12390136718,0.66174316406,0.017039151663376127,-0.08617236946113924,-0.29321289062,0.04064941406,0.009282926630905746,1.0246528572996203,0.59834224002,1.45236556912,0.07073129166164582,973.1894822514706,973.06590661061,973.29923552616,0.0033276448690201057,0.0015770811482507772,Stairs down
0.9576465336933333,0.50341796875,1.42541503906,0.0713823838864497,0.3021412859017172,0.13757324218,0.54858398437,0.009818984540673188,-0.04855315853767676,-0.29077148437,0.14501953125,0.011824885905396751,1.014559513759899,0.52659272296,1.47130217896,0.07423912776127227,973.2812141045367,973.1806617068,973.396076355,0.0031986378633485617,0.000925205477068312,Stairs down
0.9275607638841112,0.53051757812,1.40454101562,0.058261573976859424,0.3301242404477778,0.10559082031,0.59753417968,0.01464559709668904,-0.06628282334911109,-0.3818359375,0.05993652343,0.009333670639609194,0.9976262595497777,0.63303363138,1.50082172297,0.0604853578741544,973.3606473117198,973.29008594076,973.46125464924,0.001964621643324461,0.0009953481706161192,Stairs down
0.9379441594463855,0.56140136718,1.28991699218,0.03764742597508993,0.414133094876024,0.19348144531,0.72485351562,0.017274315444385974,-0.08253717996819276,-0.2314453125,0.07556152343,0.009038619926571366,1.0389913323633735,0.69826410432,1.47962822115,0.04225369915715541,973.399117230166,973.33919010988,973.49284484561,0.0023430201574254606,0.0009157059832394848,Stairs down
0.8847110145935526,0.64880371093,1.10656738281,0.019200117744953536,0.4890217028128946,0.32336425781,0.73583984375,0.011091730727993904,-0.0420998021169737,-0.25915527343,0.06726074218,0.006692684080486154,1.0193570418135525,0.80646801226,1.334000572,0.021317811293187352,973.4418398851527,973.36737053248,973.56088597061,0.0021968450808183882,0.0006431531835152628,Stairs down
0.8761033278212821,0.67980957031,1.11315917968,0.01462254371040132,0.4452279897797436,0.29504394531,0.65380859375,0.010554400863490316,-0.07080547626051281,-0.21472167968,0.09509277343,0.006907660636434802,0.9930826875699997,0.78937092031,1.22704430247,0.017598349630704523,973.4410590103178,973.36312344741,973.55555350767,0.0022135507406580456,0.0006539718017299034,Stairs down
0.9123693847618,0.60668945312,1.10949707031,0.01907099968701955,0.36762695312069993,0.22399902343,0.60974121093,0.009214334415672014,-0.1304687499963,-0.26965332031,-0.05126953125,0.0028942510335676483,0.9983248433797998,0.68888446817,1.18906694479,0.018994810113702448,973.4277616282509,973.33083959281,973.58469001564,0.004725124060836278,-0.00015538584443582944,Stairs down
0.9659285111819319,0.59643554687,1.46630859375,0.0738423920335962,0.4048101251743182,0.16296386718,0.68469238281,0.016520911646714858,-0.07003506747159091,-0.33654785156,0.13562011718,0.012866770990130519,1.0642671453990908,0.6986967941,1.49012222967,0.07200472116610108,973.4712472457645,973.36074861579,973.57164016205,0.0035252899543130097,-0.000488457794136386,Stairs down
0.9444475871728049,0.62182617187,1.36108398437,0.03219045761240571,0.2339284012912195,0.00134277343,0.40783691406,0.014246902060827595,0.005610768388414634,-0.19763183593,0.14929199218,0.008144146661571443,0.9842459525885368,0.67602523632,1.37809809703,0.03230496862044741,973.5287012914519,973.4258040182,973.65818681663,0.006975146096347737,0.0006518867624085736,Stairs down
0.9119475289629214,0.58862304687,1.28576660156,0.05755271687286536,0.20225130573797753,-0.13562011718,0.44677734375,0.021763015165312042,-0.12230210893258428,-0.34191894531,0.01062011718,0.009552273237192812,0.9581042559064046,0.62315889027,1.34046639635,0.05806988590944755,973.5379954943384,973.41870854542,973.64261512235,0.004719963307685205,0.000390567439872994,Stairs down
1.0057093302365625,0.60729980468,1.45922851562,0.060875873026230175,0.1681887308715625,0.00390625,0.29895019531,0.007616899396098183,-0.060745239255,-0.29223632812,0.06896972656,0.007057272524870719,1.0295817474126043,0.61071363772,1.47169893552,0.058765319664746754,973.6626384890042,973.53347312654,973.79647942885,0.007096728769605533,0.0025245052981429186,Stairs down
1.0539834665649999,0.67517089843,1.50402832031,0.07010627342530806,0.23727913789639532,-0.00207519531,0.58093261718,0.019606470751711704,-0.0008275231647674418,-0.357421875,0.1923828125,0.012206359260194869,1.0954957774453487,0.69985078771,1.54591587464,0.06860394129898341,973.7318651909129,973.66400181644,973.89244399242,0.003210712617506184,0.00031068333007623156,Stairs down
0.9571486252964103,0.53930664062,1.41223144531,0.05370100227378687,0.17461688701884617,-0.20056152343,0.40466308593,0.031128853439227475,-0.04351963140846154,-0.23205566406,0.15869140625,0.009014894723168531,0.9944759561974359,0.61480501724,1.44872905961,0.05285532397164492,973.7771986356568,973.69844755152,973.90656108688,0.0031384392854157937,0.0008731011371550766,Stairs down
0.9131476151270527,0.59191894531,1.31433105468,0.03449727749369813,0.4428877981048418,0.21057128906,0.68542480468,0.016118074861625958,-0.10371736225105267,-0.275390625,0.02697753906,0.007730852025740129,1.0327367433522103,0.7522297437,1.40614649603,0.03227201814944704,973.8611155064634,973.7905177105,973.90553104975,0.0012927102144314417,8.662212385744977e-05,Stairs down
0.9239081926203226,0.61267089843,1.15100097656,0.022022693537825502,0.39335911247924715,0.18762207031,0.64489746093,0.01190932488302108,-0.04568317372172042,-0.23413085937,0.08386230468,0.00769837699382484,1.0145070194066668,0.72717347656,1.32612046828,0.022626249457565507,973.8373837216208,973.77181460228,973.92673831027,0.0015486167916488893,0.000780574141715433,Stairs down
0.9329267229319046,0.70520019531,1.21606445312,0.025635367576654595,0.41166178385047625,0.2841796875,0.65380859375,0.01131297857417123,-0.017188662575,-0.1796875,0.14611816406,0.00725209191447556,1.0284157421516669,0.80444721226,1.34635233064,0.025222534201582568,973.8598349907519,973.73409501853,973.95637332572,0.002476684682846178,-0.00036648700208286684,Stairs down
0.9143549009787209,0.63049316406,1.13586425781,0.014916254940919254,0.3147341705996511,0.19152832031,0.55078125,0.009121194681639556,-0.0361782340110465,-0.21826171875,0.05139160156,0.004858738200071792,0.9740576113256979,0.68942808586,1.23498710111,0.01637369495922872,973.8701368917892,973.7470949888,974.05418160192,0.004594828908281712,-0.0005035682660573023,Stairs down
0.8906773158451021,0.56396484375,1.29211425781,0.057976805979840715,0.386382433830102,0.18615722656,0.7958984375,0.022911636811181184,-0.007720324458061224,-0.30261230468,0.14953613281,0.010671864483472885,0.9842571667604082,0.6241535654,1.4753485892,0.06518608174388234,973.9061706766914,973.84385328721,973.99548529007,0.001739104424452278,0.0005958276535899139,Stairs down
0.9819532372455169,0.66650390625,1.41223144531,0.04892849363360536,0.2675865436391954,0.06652832031,0.56494140625,0.01558448297788827,-0.0011337104874712643,-0.2353515625,0.16955566406,0.00930666920284611,1.0277543535224134,0.68377030408,1.49876986667,0.053138929013436705,973.967447399456,973.89090512542,974.09524667842,0.003009466895696197,0.0004122680273797787,Stairs down
0.9885315713964556,0.49792480468,1.52612304687,0.07979141936085328,0.30230790149936715,0.02038574218,0.79223632812,0.03295762908526565,-0.01569607891670886,-0.21691894531,0.16821289062,0.011423280073166672,1.0544432708344302,0.64602093638,1.53995987828,0.08060128678708062,974.0568904113176,973.93635964381,974.17145914817,0.004499980681811017,0.0004928078018477138,Stairs down
0.9867375071418293,0.64477539062,1.45739746093,0.06176103830780311,0.3249035346765854,0.12634277343,0.68505859375,0.01409427904652382,-0.07132776771999999,-0.43603515625,0.10913085937,0.012757589006607523,1.0504315345940245,0.68756313467,1.66836425684,0.06927149187850229,974.155335281198,974.0043901195,974.41390797282,0.013228456952982436,0.004005788725284014,Stairs down
0.9576789700217347,0.60278320312,1.55651855468,0.06561907769756062,0.3180579360611224,0.04211425781,0.52233886718,0.01590121505313516,-0.017504633689285714,-0.30578613281,0.12341308593,0.011544337818994301,1.02503051198051,0.64864497714,1.5995979821,0.060662720862356766,974.22099181401,974.10117816478,974.39528080595,0.005435547172612678,0.0014067471044517988,Stairs down
0.9441661615449424,0.45568847656,1.74450683593,0.09009076216728143,0.311905082611954,-0.02368164062,0.64074707031,0.031172281712909717,-0.10575919315494253,-0.34643554687,0.07666015625,0.00980774269560903,1.0167467125574716,0.609637534,1.83208442318,0.09682278195456528,974.2760186562675,974.18141563561,974.39468616231,0.003500791103912014,0.0005046856294507525,Stairs down
0.8584783106637036,0.60913085937,1.12487792968,0.023978765368435677,0.4646131727395062,0.09118652343,0.90417480468,0.04140783846381248,-0.06118586033827161,-0.26879882812,0.0986328125,0.011504372682549517,1.0037697622914814,0.71276980904,1.28011822723,0.025294365293375816,974.3669766194291,974.26670562747,974.5242631864,0.0039700020400374745,0.0009441654302608648,Null
0.88629842541567,0.67272949218,1.08654785156,0.013929321731499604,0.4446983730638144,0.27319335937,0.7822265625,0.011455257874591424,-0.29106344635587633,-0.45471191406,-0.0419921875,0.010692052094998558,1.043553261751237,0.85726866515,1.29431942695,0.014853902268363812,974.393022652508,974.29863939748,974.49888492027,0.003226925117949709,3.3429660124102585e-05,Null
0.8238681225020212,0.28637695312,1.05737304687,0.01450259878883465,0.5148925781206383,0.34045410156,1.02478027343,0.010273965776602657,-0.34960158327542556,-0.45764160156,-0.22473144531,0.005368812368801943,1.0434820657629789,0.91582916574,1.23078336175,0.007140136072142753,974.3932047984626,974.27177803848,974.63463103049,0.008822802111326798,-0.0015697872032051348,Null
-0.4506232766521175,-0.91247558593,0.28637695312,0.09400019887637354,0.39344841451858803,-0.17626953125,1.02478027343,0.15041428654821443,-0.464180261945294,-0.81164550781,0.19018554687,0.08359170295186652,0.9356859873251767,0.54051801196,1.18049935958,0.022226825155053448,974.3842066183705,974.12464587186,975.07533143886,0.08049848741409653,-0.007216816346734951,Null
-0.8226682984942856,-0.939453125,-0.71887207031,0.0043286783385279365,0.18754280387103894,0.02270507812,0.38122558593,0.0161871466062723,-0.5501328505427271,-0.67724609375,-0.42541503906,0.006297926863478919,1.019430834113117,0.92823374108,1.11727854884,0.0018519326823963457,974.2476404631925,974.1615846953,974.31761272693,0.003369446900575028,0.002514596236416116,Null
-0.7472832862336168,-0.998046875,-0.61157226562,0.010313819472579727,0.2875002597215957,0.14111328125,0.529296875,0.009648100528815415,-0.6721165433815958,-0.84509277343,-0.49462890625,0.011065915700583965,1.053469563732021,0.81881158757,1.28043903295,0.013876611269510819,974.3335547493843,974.30859568113,974.35282711975,0.00017064329015909337,0.000421197591329573,Null
-0.8016649881961458,-1.13146972656,-0.52709960937,0.027231531628026075,0.4686609903936458,0.20861816406,0.6318359375,0.012766758542028437,0.21033986409281247,-0.46484375,0.7626953125,0.14899301920166563,1.0261849269294792,0.7048005062,1.34981747801,0.040946406353345136,974.5193387899322,974.34964629668,974.5740116326,0.0035928802484505532,0.001631660659909079,Null
-0.42391187090906973,-0.90930175781,0.39514160156,0.09981591149622202,0.40539550780930206,0.14196777343,0.66784667968,0.01513991426025898,0.7788142714349999,0.38061523437,1.11389160156,0.0317586540850154,1.0359166472059302,0.77068201182,1.35076229022,0.02274817263361016,974.2452448874056,973.93121307702,974.61352764281,0.05295788403480897,-0.007868176972226776,Stairs up
