avg_accX,min_accX,max_accX,var_accX,avg_accY,min_accY,max_accY,var_accY,avg_accZ,min_accZ,max_accZ,var_accZ,avg_magnitude,min_magnitude,max_magnitude,var_magnitude,avg_pressure,min_pressure,max_pressure,var_pressure,slope_pressure,Label
-0.6946848859663636,-0.708984375,-0.68347167968,4.8489902128901606e-05,0.7532465770951515,0.74548339843,0.76135253906,7.926480866054583e-06,-0.0020147766724242424,-0.00756835937,0.00524902343,1.2977200398816873e-05,1.0246985123958587,1.01346700725,1.036064534,3.3546201136872186e-05,968.9240483006098,968.91642409829,969.05465172125,0.00036170959239581056,-0.00015451795759357083,Null
-0.6921325683545001,-0.69934082031,-0.68579101562,8.892343205536353e-06,0.7556689453084999,0.75036621093,0.76379394531,7.237545169939136e-06,-0.0131176757777,-0.02844238281,-0.0048828125,4.584121582844325e-05,1.0248447891508001,1.01930967385,1.03425138979,9.727317979120965e-06,968.9195060522326,968.91511747238,968.92409549089,5.4723589399844485e-06,-2.245632296444513e-05,Null
-0.6986596679648,-0.71423339843,-0.68737792968,5.025429557139917e-05,0.7528210449189998,0.74401855468,0.76379394531,2.0641839565328118e-05,-0.012286376950999999,-0.03088378906,0.00134277343,9.130509661952855e-05,1.0272055527288,1.01957958296,1.03727233095,2.5398012657751742e-05,968.9248801109547,968.91883398226,968.93199407814,1.4669314255975818e-05,-6.924820316751127e-05,Null
-0.6732946777307001,-0.70092773437,-0.642578125,0.0003108814674895407,0.7654235839806001,0.73815917968,0.80102539062,0.00034324279185114526,0.033793945311,-0.00866699218,0.09350585937,0.0013202587520206237,1.0209159725025,1.01220915849,1.03112720712,2.6497965371888718e-05,968.9244556789813,968.91128802691,968.94044792235,6.116694100680297e-05,0.0001520709292738883,Null
-0.6634887695271,-0.68090820312,-0.65319824218,5.903554084001206e-05,0.770465087886,0.75158691406,0.78674316406,8.889381783199506e-05,0.07640014648099998,0.06005859375,0.09240722656,7.287741157417265e-05,1.0197415974261999,1.01168248026,1.02579530269,1.662071330832498e-05,968.9228173782894,968.90406579332,968.93494741326,7.388079281552733e-05,0.0002206378254632665,Null
-0.6357153320278,-0.69006347656,-0.57678222656,0.0007543911777878216,0.7804907226522999,0.705078125,0.86169433593,0.0014008794107317486,0.14484252929289998,0.06420898437,0.29614257812,0.004942775186590886,1.0203321471074,0.97853191156,1.04983544592,0.0002307926369802345,968.9215052047169,968.89508770629,968.94166014087,5.5440063940662e-05,-0.00012291799578849954,Null
-0.7246948242146999,-0.91394042968,-0.60913085937,0.006496184853434855,0.6915014648393,0.46411132812,0.90710449218,0.013717909527633913,0.2220690917938,0.10681152343,0.28601074218,0.002089609008531804,1.0348006291611003,0.9201816265,1.18443810211,0.003979666560035971,968.9204727387556,968.88986969356,968.97525462222,0.0007066668302341244,-0.000178580651964594,Null
-0.9186108398401,-1.09875488281,-0.65844726562,0.008800606119536524,0.5199987792931998,0.3232421875,1.02819824218,0.029809235037740658,0.12985961913810004,-0.71166992187,0.33776855468,0.05052837780370397,1.0937126539665,0.93166175354,1.66461046357,0.023381407625510085,968.9300520452837,968.90078987164,969.13580212758,0.0019981817370826687,0.0003838008986763057,Null
-0.7705908203087999,-0.99670410156,-0.63732910156,0.006265072774387875,0.7094299316368999,0.48815917968,1.00671386718,0.017991286749499222,0.10327758788649997,-0.34753417968,0.25415039062,0.01164389239822084,1.0635843403524,0.97822260323,1.34094224946,0.012219091686124894,968.9351192743322,968.85674632994,968.99944960161,0.0014503430898116455,-0.0006040888852195801,Null
0.17387084960620006,-0.79748535156,0.52966308593,0.1102047735295426,0.8958300781210999,0.7236328125,1.07373046875,0.00683645212299421,-0.18083618163810009,-0.83276367187,0.62951660156,0.06481615614765829,1.0157595353509998,0.72665406747,1.36118229942,0.01385424255205204,968.8984295900774,968.80346692381,969.1353101914,0.006279263317266979,8.747409295479257e-05,Lift Down
-0.7493957519489,-1.04711914062,-0.19079589843,0.07162954993167758,0.6896862792929999,0.34594726562,1.08068847656,0.05121515799520951,0.18738037109070002,-0.12023925781,0.62951660156,0.02479781766690431,1.0931194932004002,0.8400710131,1.41777181702,0.023867105332645754,968.9297760758255,968.85945266641,969.01171356418,0.0016975156916975566,-0.0003348783093669851,Lift Down
-0.5313403320295,-1.02136230468,0.16296386718,0.23827422827452457,0.5597595214811,0.21911621093,1.064453125,0.051940914168720244,-0.37643066405939984,-0.77209472656,0.11267089843,0.07773393575569497,1.0393056322219998,0.78784451101,1.43546381599,0.021683540831373836,968.9876406565087,968.86589281457,969.20250480717,0.008780305382573163,0.0005469884520314413,Lift Down
0.18133789062179997,0.08410644531,0.30639648437,0.0032746070804394937,0.7293127441367,0.69262695312,0.80908203125,0.0006085924593704691,-0.7013562011686,-0.73059082031,-0.63879394531,0.00036535825841850934,1.0298796586819998,0.99405908905,1.07904887351,0.00023736475425690474,968.8941301833148,968.8737212764,968.93250686812,0.00023001281421944524,-0.00022649117407695334,Lift Down
0.1471850585901,0.14196777343,0.15356445312,9.774746319503263e-06,0.7197595214803999,0.71154785156,0.73315429687,3.277468410548235e-05,-0.7127770996059999,-0.72058105468,-0.70263671875,2.673757647392088e-05,1.0236288417677,1.01262577005,1.03117084921,2.1204440249822162e-05,968.8972114431496,968.88749759864,968.90371640304,1.6401475501790968e-05,8.179776021628816e-05,Lift Down
0.14945678710600002,0.13732910156,0.16711425781,4.316140154602744e-05,0.7475439453091,0.71301269531,0.83227539062,0.0003229016246087442,-0.6932910156208999,-0.71643066406,-0.61608886718,0.0004554777193740762,1.0307011574371998,0.9735554518,1.05736104693,0.0002829930456427382,968.9056094938963,968.88404446982,968.92339557439,5.0139345177611885e-05,5.871420579628994e-05,Lift Down
0.16188232421510002,0.08911132812,0.24304199218,0.0012854160142187249,0.8109399414019998,0.76538085937,0.86279296875,0.0007207217782630807,-0.6158459472612999,-0.65930175781,-0.55932617187,0.000652525309037504,1.0319792002769999,0.96889537827,1.0794455899,0.0007542554347974203,968.9001159258588,968.87644484153,968.92339557439,0.0002002506842751278,-0.0003450188731529722,Lift Down
0.09187499999539998,0.04272460937,0.11645507812,0.0003752959858394354,0.7585168456996,0.73010253906,0.8369140625,0.0009014443481528201,-0.6818603515577999,-0.70971679687,-0.60498046875,0.000706712404887513,1.0249784673751001,1.00610627782,1.04909613539,0.00010618130544042408,968.913465813967,968.88584543419,968.94725691778,0.000258118666793449,-0.00022253963236655209,Lift Down
0.11603759765240002,0.09753417968,0.1337890625,8.780401764911581e-05,0.7593090820270999,0.72888183593,0.80004882812,0.00017094209338370682,-0.6801147460902999,-0.70166015625,-0.65747070312,7.881946636313392e-05,1.0260437674736,0.98868559304,1.06623632872,0.00014085971441161275,968.8894309066128,968.87543335586,968.9142665385,0.00014798371208389299,1.2988136657778533e-05,Lift Down
0.12449096679329999,0.10620117187,0.14318847656,0.00012228014943679077,0.7257861328082998,0.70788574218,0.75378417968,0.00013429032430430725,-0.6391577148411,-0.66357421875,-0.62622070312,8.530327165894406e-05,0.9751555216042,0.95973580903,1.01317272502,0.00019824194516294697,968.90581996164,968.87486294516,968.96184900053,0.0007017700304938316,0.0008316615871407065,Lift Down
-0.1215686035164,-1.16638183593,0.86279296875,0.3505174989911094,0.7741625976524,0.15686035156,1.8759765625,0.12640942763254417,-0.2013500976542,-0.67614746093,0.43615722656,0.10313745743569307,1.0494533029479,0.3089800481,1.97031897514,0.1288485049903439,969.0192246698222,968.81316645779,969.21551251009,0.01240677518772207,0.0030682065887659956,Lift Down
-0.9223681640582001,-1.04052734375,-0.8583984375,0.0014585599514556626,0.4248974609331999,0.37255859375,0.48425292968,0.0009151182752586577,0.10922607421620001,-0.107421875,0.19360351562,0.0037636286018853512,1.0236604332836001,0.97306892342,1.13761767339,0.0014408775331067704,969.3143139323907,969.16976797746,969.44978361591,0.006421488924121955,0.0027181574765788212,Lift Down
-0.9179016113243,-0.94018554687,-0.90063476562,0.0001213741347590204,0.4230712890580999,0.38122558593,0.45471191406,0.0004389665343564479,0.1113696289022,0.06872558593,0.14697265625,0.0005617636081374943,1.017342079955,1.00438519938,1.03423886224,6.247831164385264e-05,969.5405663581414,969.44978361591,969.64428086201,0.0033869231509012125,0.001995817631948385,Lift Down
-0.9205480956997999,-1.02954101562,-0.85607910156,0.001720900383504578,0.42502441405889985,0.27746582031,0.73400878906,0.003410631358004663,0.07195312499769999,-0.11401367187,0.26977539062,0.007821865249795555,1.0219601072547997,0.95074789479,1.19053130619,0.0016699024657451486,969.7703551867069,969.64428086201,969.96220257475,0.004892246132989094,0.00215579105852176,Lift Down
0.2137976074192,-1.0126953125,0.716796875,0.4123873663203302,0.7685754394504,0.55798339843,1.2568359375,0.040128515842926496,-0.2170080566391,-0.45690917968,0.28344726562,0.05221900459799543,1.0627430408173,0.63557828088,1.5904885983,0.054318067475177534,969.9861802632768,969.88796623054,970.22146504959,0.009802697951523632,0.0021643497042929433,Lift Down
-0.33185913085900004,-1.03735351562,0.76843261718,0.43904666047988467,0.7438330078091999,0.4384765625,1.40832519531,0.07559482993513941,0.042420654296000004,-0.43432617187,0.71728515625,0.0887279099554196,1.0958721764716999,0.65595568006,1.7593151748,0.0622398155102149,970.1142236065259,969.90999527196,970.29589442888,0.015342013703265276,0.003628220376141251,Lift Down
-0.6974804687462001,-0.89489746093,-0.52038574218,0.024827604678976205,0.6641882324170999,0.45922851562,0.82727050781,0.015375336449267418,0.2667187499969,0.13232421875,0.46142578125,0.01737854935883587,1.0265162077868,0.90152254759,1.10404243385,0.002054600707097233,970.4206892095249,970.27457166214,970.52721712179,0.0056940354368342876,0.00245775306817957,Lift Down
-0.3474108886687002,-0.53381347656,0.03430175781,0.04781741761588552,0.8531433105419001,0.74719238281,0.95092773437,0.00692271294460059,0.3914916992153,0.33227539062,0.47680664062,0.002800611986133869,1.0283969305818,0.9761814671,1.11673736173,0.001190578521672841,970.6097941219658,970.48954051369,970.72520948455,0.003989162172306548,0.0018783817620921198,Lift Down
0.30000366210480006,0.03088378906,0.56225585937,0.018940589239914353,0.9414636230433999,0.74853515625,1.09069824218,0.009257804701800883,0.24190185546479995,0.03723144531,0.4814453125,0.017458766464100658,1.0363174136538,0.89717007677,1.20170441274,0.006181076187370791,970.8255561872994,970.55731439225,971.50432815655,0.0727393615078166,0.0014987343528694709,Lift Down
0.5801452636684,-0.11730957031,0.8369140625,0.025757862875714087,0.7353112792925001,0.16064453125,1.16674804687,0.06653776796590279,-0.02354614257919999,-0.31677246093,0.21423339843,0.01836675733383089,0.9698505491718001,0.48499168086,1.27545624428,0.04722353718010734,970.8855797418946,970.73802385639,971.04469790453,0.007167741564153768,0.00244499336354589,Lift Down
-0.8017114257772998,-1.35241699218,-0.11730957031,0.06509701494577394,0.6617639160119998,0.4375,0.84155273437,0.02055594958902919,0.2492822265584,0.02880859375,0.740234375,0.03234162634065185,1.1053080703051001,0.74687750827,1.72236165838,0.03830609487218698,970.9810939691737,970.82796085335,971.129891557,0.006514818259652673,0.0016750526817574441,Lift Down
-0.5075256347607999,-0.54565429687,-0.392578125,0.0008594656758374969,0.881748046871,0.82434082031,1.02966308593,0.0023379621120639058,0.1890869140584,0.11657714843,0.25244140625,0.002250774942312826,1.0370984608122,1.01271152023,1.10959393396,0.0006426792472996323,970.9610908447014,970.92844047404,971.03957795227,0.0006342788980667808,0.0002628731852189785,Lift Down
-0.04627075195149998,-0.392578125,0.03369140625,0.010179059485607017,0.9981274414021999,0.91369628906,1.02966308593,0.0009433453191353131,0.06641113280880001,-0.00695800781,0.11657714843,0.0012192533231416456,1.0069691950472,0.93081080269,1.10811275884,0.001051608181460923,970.9769372398086,970.92013671835,971.03957795227,0.0009004680952123569,0.00033840469345585025,Lift Down
-0.0399255371074,-0.12390136718,0.10705566406,0.004786281951152759,1.0244116210902,0.94763183593,1.12280273437,0.002143121120884385,0.06937866210849998,-0.03247070312,0.181640625,0.004401521060764303,1.0320072103820002,0.96336629233,1.12639089539,0.0020256053570716125,970.9622688923245,970.91513700017,971.01724837188,0.0008253000304929215,-0.00061431002941168,Lift Down
-0.04795410156009998,-0.13171386718,0.05065917968,0.0025220389075103983,1.0134765624963997,0.88464355468,1.24340820312,0.008922718992025241,0.1290673828081,0.01440429687,0.23803710937,0.004132320447425885,1.0265434570905996,0.90438109102,1.25015684574,0.007800571876614652,970.9618399449432,970.90873182692,971.0189118934,0.001515079198956724,-0.0005532167242896888,Null
0.0056762695295999996,-0.13159179687,0.14392089843,0.0048082806541791465,1.0016101074172998,0.75329589843,1.24401855468,0.011453808767245034,0.21488891601210003,0.03283691406,0.58874511718,0.02265290469108782,1.0389434618117002,0.90273425086,1.24453381204,0.008641010981194491,970.9503008101824,970.90009222076,971.04905398101,0.0016240935716982157,-0.0008807243525411447,Null
-0.3587182617184999,-1.10888671875,0.17724609375,0.2557858200905762,0.7188476562457998,0.32934570312,0.94177246093,0.0290361088936197,0.34361572265239987,0.03930664062,0.60290527343,0.04020213644277376,1.0355749815149002,0.77467486113,1.33197697056,0.012980597442723467,970.9627317699426,970.91133568145,971.07832996337,0.002532209750436223,-2.84289388426627e-06,Null
-0.8402221679658999,-1.0595703125,-0.11157226562,0.05762070884023521,0.5743420410114,0.30212402343,1.06970214843,0.06339806844911561,0.1366662597635,-0.34448242187,0.42614746093,0.05001652970826451,1.1001154806162998,0.77087866267,1.27422989724,0.013727900412913736,970.9901352690991,970.91844990273,971.0453207969,0.0013437134907979449,0.0006855950583830642,Null
-0.5067199707020998,-1.33850097656,0.19189453125,0.3282050428255888,0.6521960449181999,0.33557128906,1.09106445312,0.04660949992861412,-0.21219482421659996,-0.61901855468,0.16662597656,0.06297497601695617,1.0462563374490002,0.46801740301,1.54992364764,0.06657651825426625,970.9387871026327,970.85290432825,971.07836256859,0.004158258677500364,-0.0008915614368439867,Null
-0.9366687011686,-1.150390625,-0.83764648437,0.007800812882343107,0.4126916503861,0.06701660156,0.68981933593,0.021358142854939456,0.10224609374579999,0.01940917968,0.22241210937,0.0026947175612959478,1.0385271318336,0.86603688036,1.34018534429,0.011225707822464015,970.9734089517851,970.92397079352,971.03546642257,0.0004925221063049336,0.0001608973386303679,Null
-0.9508850097617,-1.37182617187,-0.6513671875,0.02588199857945557,0.4259838867159999,0.13098144531,0.68981933593,0.01632329858290123,0.21035034179479997,0.04321289062,0.529296875,0.013748652915518451,1.0778921189705999,0.81513535904,1.41784014263,0.023671545720044377,970.97361774021,970.91619791634,971.03546642257,0.0008935103564058497,5.1331847156527756e-05,Lift Up
-0.9501416015594999,-1.10546875,-0.89465332031,0.0026680840146083465,0.38221313476259994,0.25830078125,0.46667480468,0.0033669062620310937,0.10516723632549999,-0.03784179687,0.25817871093,0.006082411803911033,1.0337192230683,0.93585419833,1.19133533829,0.0033705928427992266,970.9848312348516,970.9493873647,971.03482072982,0.0005846737695676864,-0.00016820019278506934,Lift Up
-0.9257617187463001,-0.95874023437,-0.89770507812,0.000241043507425274,0.41636962890280005,0.35534667968,0.51147460937,0.0019260583200506637,0.11804199218380002,0.02075195312,0.20446777343,0.002522227137926814,1.0240371117438003,0.99011041591,1.08683934259,0.000465577901763665,970.9868315013721,970.96631147072,971.014166946,0.0002377674991010013,0.00018162923723048799,Lift Up
-0.9174023437457999,-0.93139648437,-0.8994140625,3.17631104947823e-05,0.41493896483919995,0.40319824218,0.42724609375,3.678731846659503e-05,0.14363525390300003,0.12878417968,0.15625,6.02721023970682e-05,1.0171231728746002,1.00575140216,1.02963678295,2.0683358304487346e-05,970.9810887559828,970.96679596726,970.99332681251,3.8196435258235465e-05,-1.4072488073725192e-05,Lift Up
-0.9228588867143999,-0.92895507812,-0.91674804687,1.1932615077933509e-05,0.4056982421839999,0.390625,0.41833496093,5.369068396157127e-05,0.13885253905800002,0.12121582031,0.15075683593,5.7341618971257996e-05,1.0176600106593998,1.00685750085,1.02678097152,2.9751592705345423e-05,970.9861837160374,970.97309216323,970.99577865192,4.7491397281194816e-05,2.85684296387274e-05,Lift Up
-0.9267456054639999,-0.93505859375,-0.91467285156,1.7827959980539652e-05,0.39636962890259997,0.38317871093,0.41125488281,4.495780275076978e-05,0.1421752929654,0.13415527343,0.14953613281,1.0939710074662021e-05,1.0179586278683999,1.00875696387,1.02513241377,1.3468748412546613e-05,970.9774346517777,970.96480034201,970.98794706906,3.478865137343619e-05,8.552149320131803e-06,Lift Up
-0.9291235351524,-0.93981933593,-0.92309570312,2.210121564012328e-05,0.3867480468713998,0.37841796875,0.4033203125,4.475981298443764e-05,0.13798583984,0.12841796875,0.1494140625,3.262294061307349e-05,1.0158578907590003,1.00645047939,1.02306032874,1.608307674640904e-05,970.9791926694724,970.96638974595,970.98794706906,3.487585627610062e-05,2.0114733087945947e-06,Lift Up
-0.9314306640581997,-0.95007324218,-0.92358398437,5.056222279306838e-05,0.3843701171836,0.37329101562,0.41284179687,8.34516563911981e-05,0.144221191403,0.13354492187,0.16235351562,7.234150111179112e-05,1.0179388196344001,1.00789226541,1.04739484405,0.00010916393138461483,970.9814820125981,970.96215409202,970.99747797478,7.362908403643891e-05,5.254164722164701e-06,Lift Up
-0.9588574218706001,-0.97302246093,-0.92102050781,9.334566615376767e-05,0.41977050780939995,0.39575195312,0.42956542968,0.00011444968406611427,0.1648999023402,0.14892578125,0.18542480468,0.00010921678760915191,1.0597030370650002,1.01572381052,1.07490804578,0.00015164418936643585,970.9524279082439,970.87366264849,970.99887930528,0.001272974740872431,-0.0011714094907609872,Lift Up
-0.9193725585901998,-0.93078613281,-0.90966796875,2.751702612475771e-05,0.40256835937099994,0.38928222656,0.41821289062,6.84137055444484e-05,0.15595458984,0.14733886718,0.16491699218,3.4160138376868664e-05,1.0157433861332,1.00832461866,1.02705308116,2.3417207971003e-05,970.7760236370132,970.66885195119,970.87366264849,0.003629802299144524,-0.002056740644867361,Lift Up
-0.9194531249965999,-0.92663574218,-0.91235351562,1.019200892654425e-05,0.4031103515585999,0.39208984375,0.41955566406,6.101290385007102e-05,0.1568115234346,0.150390625,0.16625976562,1.665438063637843e-05,1.0161412886432,1.00848254766,1.02663185924,2.5980503410946235e-05,970.5663885800515,970.46150377702,970.66887307985,0.004226496485779053,-0.002229522527792658,Lift Up
-0.914433593746,-0.92309570312,-0.89343261718,6.446932301235252e-05,0.4026074218714,0.39147949218,0.41296386718,2.7041459319717194e-05,0.163544921872,0.150390625,0.21655273437,0.00014665666252001953,1.0125385750437998,0.99695156783,1.01990617603,3.0196774969352966e-05,970.3494780665043,970.2263165446,970.46150377702,0.004516250968257027,-0.0022994983450523527,Lift Up
-0.9152734374956001,-0.9326171875,-0.90502929687,6.264920187184292e-05,0.3939648437465999,0.36254882812,0.44067382812,0.0006161679884729309,0.2165698242154,0.14294433593,0.26818847656,0.0016320552549608216,1.0207881318315999,1.00421765614,1.03982250842,0.00011677362562434355,970.1314529402387,970.01686987698,970.24056406274,0.004177808100978103,-0.002203201754794311,Lift Up
-0.9265063476534,-0.93591308593,-0.91638183593,3.2572077981090565e-05,0.3833618164023999,0.36328125,0.40478515625,0.00011524241981368554,0.1593945312454,0.14306640625,0.16979980468,4.865217690143527e-05,1.0153600537844,1.00697982011,1.02424522004,2.5630599845219113e-05,969.9246611436373,969.7997708649,970.01686987698,0.003649784336283906,-0.002051823890261457,Lift Up
-0.9244506835898001,-0.93737792968,-0.91625976562,2.2643292787693212e-05,0.38389404296479995,0.37658691406,0.39270019531,1.5030611640269762e-05,0.1627368164032,0.15112304687,0.17492675781,3.268321956992767e-05,1.0141583859984002,1.00780239395,1.02698800052,1.9591605960975722e-05,969.7029920079752,969.59395024407,969.7997708649,0.0037844771677531,-0.0021126253198335493,Lift Up
-0.9247338867153999,-0.93127441406,-0.91796875,1.5899442668474174e-05,0.38222656249699993,0.36962890625,0.39013671875,2.626457600418245e-05,0.1671704101524,0.15283203125,0.17993164062,4.136334163452975e-05,1.0145161263741997,1.00869036299,1.02390155026,1.5731072000882215e-05,969.4902634904538,969.36408718007,969.59395024407,0.004398310466985431,-0.0022748420530115067,Lift Up
-0.9309399414027999,-0.97338867187,-0.91748046875,0.0001847044446188594,0.4073535156205999,0.36840820312,0.90258789062,0.008900123389032594,0.146572265621,0.12658691406,0.20397949218,0.00018744338640594915,1.0294238627346,1.00310417522,1.34250985627,0.003571262198792655,969.2738570832485,969.18614643908,969.36408718007,0.00317176452360332,-0.0018789008776498746,Lift Up
0.043625488279000015,-0.97265625,0.30700683593,0.12979984276640483,0.9001171874962001,0.68835449218,1.04577636718,0.007728002023188807,-0.19626220702959998,-0.41772460937,0.22863769531,0.04233335322123956,1.0028575754844,0.69666957222,1.409918271,0.02320430069251375,969.0682315952653,968.84525273267,969.30972407079,0.02440520922891289,-0.004986151965851957,Lift Up
0.1120288085908,0.05334472656,0.26049804687,0.004085081881894506,1.0021215820278,0.87548828125,1.03442382812,0.0010520429864025193,-0.0727832031222,-0.279296875,-0.00793457031,0.003961086610366746,1.0152122410678,0.95401154389,1.07013554746,0.000451362348168728,968.806169876384,968.74815426145,968.95671642706,0.0029633084415790585,-0.0015919721869979925,Lift Up
0.02977050781,-0.01135253906,0.08276367187,0.0007962034446497571,0.9886572265585998,0.95397949218,1.03820800781,0.000607212890270173,-0.1096264648404,-0.1767578125,-0.02111816406,0.0019444669195999211,0.9965796565887998,0.96081339026,1.04026543387,0.0004957061112097214,968.6147967095625,968.45188804311,968.74815426145,0.007455178378605833,-0.002732309279558059,Lift Up
0.054523925776399994,0.01062011718,0.09313964843,0.0007269428294005517,0.9967602539019998,0.95129394531,1.02563476562,0.0003071621271075051,0.0045922851556,-0.11206054687,0.11218261718,0.005965645800296546,1.0015321482138,0.95272682815,1.03436670242,0.0003919804720804238,968.4878754911223,968.3945476295,968.5893664772,0.004023993427341058,-0.00021722837113439335,Lift Up
0.047199707028,0.01416015625,0.09423828125,0.0007826508957473064,1.0180908203085999,0.99487304687,1.03649902343,9.004937278274202e-05,0.0004150390638000001,-0.09069824218,0.13818359375,0.006335566139624103,1.0226099235600001,0.99687822903,1.04780931912,0.0001434656327719068,968.4865647003229,968.36865434505,968.5893664772,0.003404690755010425,0.00012699415010863758,Lift Up
0.020136718747,-0.00708007812,0.03930664062,0.0001116436900444459,1.0215136718709998,1.00671386718,1.03173828125,4.084938705765171e-05,0.0100439453124,-0.07543945312,0.09338378906,0.0029512589865458862,1.0232414290156,1.00682413443,1.03254841214,4.67096826440835e-05,968.4612040509592,968.40089447169,968.56318695487,0.002561836431090194,7.805340621664145e-05,Lift Up
-0.012761230468,-0.13305664062,0.0849609375,0.0049097587419638196,1.0085839843716002,0.92272949218,1.05712890625,0.0009622570480949602,-0.0123632812506,-0.22045898437,0.08959960937,0.009145005206092452,1.0156419580787999,0.93249630768,1.08290063105,0.0009046636684763321,968.4835067843338,968.42819387389,968.55955751098,0.0012718946843571298,0.0005624323471870543,Lift Up
-0.05867919921639999,-0.11877441406,0.02099609375,0.001765525250617308,1.0179394531224,0.95178222656,1.119140625,0.0016976516415401315,-0.1459448242146,-0.24926757812,0.01062011718,0.0033928180522422146,1.0323746335091997,0.96101724092,1.13142321008,0.001953455997559832,968.4759237692938,968.39323070429,968.53602262844,0.0020984377913093153,0.0007704441236192808,Lift Up
-0.09784423827839998,-0.22143554687,0.08557128906,0.005840963311611033,1.0092382812457998,0.88366699218,1.2138671875,0.00785551555234375,-0.039826660155200005,-0.32067871093,0.37719726562,0.030436413340965838,1.0317343025947998,0.91051247792,1.25247834803,0.009027735645623853,968.4414861780405,968.35973368387,968.65537081529,0.0052209762817737905,0.0014495533839895738,Null
0.5362695312465999,-0.49499511718,0.97766113281,0.15923392931394093,0.6491674804657999,-0.29333496093,1.50610351562,0.1575814061019033,0.15669189452680002,-0.07141113281,0.41882324218,0.014873427507527638,1.0113498982648,0.71038382842,1.585690512,0.03949397598497287,968.4763740717921,968.26779839621,968.88359389869,0.02282381458381133,-0.0005846084798298949,Null
0.692951660153,0.38891601562,0.97766113281,0.019984670726854118,0.6978393554645999,0.40759277343,1.02709960937,0.031223367109671527,0.042395019529400016,-0.2607421875,0.30603027343,0.027657576431040044,1.0202411089762,0.80101796815,1.15195887975,0.0062062067737290606,968.4372837565929,968.31474674194,968.56797645843,0.00574463781695159,0.0017928627066770514,Null
0.36871582030899985,0.19519042968,0.49060058593,0.005195930895135589,0.9401928710902,0.82360839843,1.11242675781,0.004930596405783599,-0.2536572265582,-0.771484375,-0.14111328125,0.01560827996988965,1.0517144447030002,0.97131073047,1.18991217187,0.0036668339206431394,968.4621450470007,968.34906157119,968.57705446955,0.0032363858794083613,0.0002306851132572845,Null
0.24655273437220004,-0.21838378906,0.81201171875,0.07431844783454157,0.9330224609333999,0.78247070312,1.22338867187,0.011131509650829898,-0.31773437499799995,-0.771484375,0.072265625,0.06661994688352324,1.079475717624,0.90696988616,1.480706772,0.017733006945622888,968.4309224450803,968.34906157119,968.5144204075,0.002106333168150032,0.0012222000527377847,Null
0.43797607421479995,0.34130859375,0.49987792968,0.0020225609492181746,0.9024291992147999,0.73754882812,0.998046875,0.0026730192129252677,-0.1508496093716,-0.40454101562,0.072265625,0.024419954063556022,1.0278064771034001,0.96436419132,1.1160272629,0.0014094245842455392,968.4617494291829,968.36407365567,968.59437554556,0.005451945306004366,0.0002268513608634727,Null
0.29417236327780005,0.06359863281,0.4951171875,0.019401826045763872,0.9513232421831997,0.73645019531,1.1650390625,0.014258634297662224,-0.15763671874879998,-0.53039550781,0.14782714843,0.05592862931023531,1.0497164148971998,0.9273632552,1.18579968643,0.0032235076641735903,968.4598464716744,968.32471287307,968.56956693257,0.00530121820379411,-0.0007049169699910648,Null
0.12922119140340002,0.0361328125,0.21923828125,0.0030245173398994623,1.0210473632762,0.91333007812,1.15112304687,0.0026095931517170694,-0.10376953124599998,-0.23510742187,-0.00024414062,0.004788536519704583,1.0381090986518002,0.926903676,1.164488676,0.0026786563790422383,968.4512310528933,968.35607644877,968.59730193075,0.004991287764817356,-0.0007416961151586399,Lift Down
0.0362280273436,-0.53503417968,0.34887695312,0.06825646082955214,1.0340869140572,0.88757324218,1.25622558593,0.00743885567691069,-0.1172045898418,-0.41979980468,0.09375,0.019308004119799268,1.0805640683600002,0.90920147731,1.31350856018,0.01092900329765086,968.4912262846924,968.27854912386,968.75071952909,0.012760377702721992,0.0008960241853160551,Lift Down
0.0150488281256,-0.06262207031,0.15625,0.0044536952053093395,1.0055029296836,0.94873046875,1.07238769531,0.001291102736866569,-0.22702392577700004,-0.2978515625,-0.13598632812,0.0018990860382338839,1.0341124589670003,0.97783557308,1.09372800396,0.000991251571462283,968.4220118420843,968.3006299269,968.58095648314,0.0072538584376438345,0.001810909671579709,Lift Down
-0.11760986327920002,-0.24694824218,0.15625,0.01564931400422581,0.9892089843721998,0.88134765625,1.16943359375,0.0052768154579570185,-0.24845214843340002,-0.43603515625,-0.00695800781,0.014405735478268998,1.0421755119080003,0.93780923352,1.17577183361,0.002973447911677575,968.4736564920682,968.36674760468,968.56629801507,0.0037234236292978964,0.0008670988037066716,Lift Down
0.0202807617194,-0.21057128906,0.20764160156,0.019091766897178154,0.9353198242148,0.57836914062,1.10131835937,0.014720730113244596,-0.3024780273402,-0.58264160156,-0.03088378906,0.027489781530381195,1.0062344862928,0.60902503552,1.16802333461,0.015059448725894056,968.4762878570941,968.32445192218,968.74364607141,0.006214025166827136,-0.00031459861416544834,Lift Down
0.1230688476522,0.09118652343,0.14929199218,0.00023983144395897245,0.9973315429653999,0.98510742187,1.01965332031,7.999425585170097e-05,-0.19528076171519998,-0.23559570312,-0.10546875,0.0008670361414824982,1.024235877163,1.01291645251,1.04497239177,6.725748072350187e-05,968.4439476066495,968.42416857693,968.4613991628,9.439405429126586e-05,0.00012844455247237738,Lift Down
0.10147949218420002,0.06530761718,0.14929199218,0.000322117010728231,1.0027197265598,0.98828125,1.05712890625,0.00030150018556173455,-0.189599609371,-0.22045898437,-0.10131835937,0.001115623748665747,1.0262557147818,1.01342383788,1.07423907174,0.00021616732629612892,968.4600210278463,968.44083299068,968.46932634281,6.11421895924984e-05,0.00016496593635481,Lift Down
0.11006347655960001,0.091796875,0.12731933593,8.78035179146213e-05,0.9627685546826001,0.93286132812,1.01159667968,0.0005015736878102559,-0.18698974608999996,-0.22045898437,-0.16381835937,0.0003052683129541108,0.987069316013,0.95975652091,1.04204651423,0.0005881700527633288,968.4587577412951,968.44068362324,968.48956705206,0.00017468459771275436,0.00024183655503397735,Lift Down
0.1327124023392,0.11462402343,0.14245605468,4.517772584417947e-05,0.9937573242150001,0.94543457031,1.02478027343,0.00040523994453672157,-0.18104492187120003,-0.19360351562,-0.1728515625,3.1245862592922875e-05,1.0188279754477998,0.96991581909,1.05095437903,0.00041400832653101387,968.589836096939,968.48956705206,968.68711029651,0.00318020267483439,0.0019184421035815414,Lift Down
0.14885253905940002,0.12512207031,0.171875,0.00014303067715853356,0.9989062499961999,0.98840332031,1.0244140625,6.337235674126567e-05,-0.157702636715,-0.18200683593,-0.14099121093,9.532182507712316e-05,1.0222910132882002,1.01132139113,1.04871486428,6.130106559687829e-05,968.8022259273287,968.68711029651,968.9155896588,0.0038078501149042816,0.0021105776624163694,Lift Down
0.14847412109040004,0.13781738281,0.171875,7.946157096385424e-05,0.9962109374961998,0.98767089843,1.00500488281,2.6573412345044185e-05,-0.1746752929646,-0.18286132812,-0.1640625,2.114062959385444e-05,1.0222974930810003,1.0133065758,1.03104855997,2.6256658349500957e-05,969.0086101135926,968.9155896588,969.12561496383,0.0032090251373450493,0.0019394697787667625,Lift Down
0.148260498043,0.1416015625,0.15441894531,1.5052994992497762e-05,0.9990612792938001,0.98962402343,1.00805664062,2.8789854706007865e-05,-0.16852905273069996,-0.17883300781,-0.15954589843,2.883272188760534e-05,1.0239881806695998,1.01329225256,1.03260568172,2.7082163870762435e-05,969.2419471127702,969.12561496383,969.34047367248,0.003714432926108966,0.0020591126946543155,Lift Down
0.14870361327800002,0.1376953125,0.16027832031,3.312012763793883e-05,1.0005346679654,0.99072265625,1.00854492187,2.0989799732847394e-05,-0.1650903320268,-0.17492675781,-0.1591796875,1.4716380770505715e-05,1.0249282722401998,1.01360062071,1.03275319562,2.7655492724514525e-05,969.4441141454809,969.34047367248,969.55171207623,0.0036053824764242875,0.002058582401590286,Lift Down
0.14401123046439998,0.12585449218,0.15771484375,4.34185579649847e-05,0.9966967773402001,0.97619628906,1.02233886718,0.0001348446174068812,-0.1574340820274,-0.18713378906,-0.12585449218,0.00013417682865630366,1.0193651920965998,0.99892372088,1.04352445478,0.00013445594950463435,969.658044028769,969.55171207623,969.79238890579,0.003898669786465738,0.002112244430991211,Lift Down
0.19485107421460002,0.11315917968,0.69885253906,0.014369171851949927,0.9676123046832,0.10095214843,1.25891113281,0.04550080976103569,-0.18906738280860005,-0.39428710937,-0.14685058593,0.00446345791680042,1.0281984856836,0.65858649796,1.30394107916,0.016651482540103842,969.8540714198602,969.79238890579,969.91487554262,0.001609427218323628,0.00042388818757556866,Lift Down
0.6795629882782,0.1025390625,0.99633789062,0.1198333263932541,0.4170874023402,-0.0107421875,1.05432128906,0.16475493214930112,-0.259741210933,-0.49426269531,-0.16796875,0.006006307072187426,0.9918062325647999,0.72751017263,1.13581949562,0.007315424130476339,970.0869456069752,969.87905860781,970.30426102114,0.012863279842728908,0.0035594197284288527,Lift Down
0.1665429687474,0.13330078125,0.18603515625,0.0001303640519717517,1.0484545898395998,0.998046875,1.08190917968,0.00022399450189041628,-0.10743164062040002,-0.19323730468,-0.08288574218,0.0005837900711202401,1.0673653245486001,1.02528401865,1.10151430795,0.00019714736469401048,970.3332209182004,970.17273263863,970.37303855489,0.0007370180073417797,0.00017664273721972601,Lift Down
0.1576489257778,0.14831542968,0.1689453125,2.788185471438e-05,1.0084301757771998,0.99499511718,1.02233886718,4.426542557427435e-05,-0.07085693358999999,-0.08752441406,-0.060546875,5.383275373639658e-05,1.0231719867978,1.00982189206,1.03989412972,4.9610022161680546e-05,970.3655419437264,970.35141457911,970.38959537452,0.000146743041976669,0.00039029907773958526,Lift Down
0.1505493164032,0.14392089843,0.15869140625,2.061733694027124e-05,1.0073095703087998,0.98559570312,1.02978515625,0.00010830383110823963,-0.0825439453084,-0.09106445312,-0.072265625,2.1472723798648113e-05,1.0218551025964002,1.00148597222,1.04525253198,0.00011334268821379365,970.3875994210077,970.37614370169,970.40893239703,7.417565638012763e-05,0.0001573803668670544,Lift Down
0.15757324218359997,0.13562011718,0.21557617187,0.0002936072783026742,1.011352539058,0.99853515625,1.02331542968,4.677820685823074e-05,-0.07871826171520001,-0.09460449218,-0.0439453125,0.00016944216357302655,1.0267987244370003,1.01327548058,1.03884780071,4.945303895122735e-05,970.3877906351523,970.36942240109,970.39750890412,6.952892626874063e-05,-0.0001243863737172392,Lift Down
0.37750244140279987,-0.03869628906,0.73999023437,0.07391471408170365,0.8548095703076,0.52612304687,1.36584472656,0.05022753609594242,-0.17545898437199997,-0.54028320312,0.02807617187,0.027566385244650247,1.0171995851037996,0.68724160323,1.43796087216,0.019686770794082358,970.3902690712355,970.2786636587,970.61158346241,0.007298005579928869,-0.0009324161547756432,Lift Down
0.074160156249,-0.16198730468,0.66320800781,0.03052620468640423,0.9746582031218,0.67993164062,1.22424316406,0.017552151824430606,-0.0041088867194000005,-0.49169921875,0.22607421875,0.03379793215787985,1.0137787319915998,0.87977651955,1.23693092319,0.008874174724701676,970.4045698865372,970.32399456603,970.58131005807,0.004405931125977727,0.00036441095498636924,Null
-0.37489257812279986,-1.29809570312,0.16455078125,0.21990762493618973,0.8751904296833999,0.48791503906,1.30334472656,0.05640473339271752,0.1422680664066,-0.13146972656,0.67443847656,0.07398086858956776,1.0989297218333998,0.66305998131,1.79305561744,0.06655221937525932,970.381065596513,970.27132917737,970.53212180483,0.007194579806665572,-0.0018189314974929663,Null
-0.6908105468706001,-0.80407714843,-0.55419921875,0.004218794865996631,0.5512133789025999,0.39978027343,0.68798828125,0.006227025606594938,0.5116210937467999,0.34509277343,0.61376953125,0.006422947151566037,1.0272537642918003,0.87186610617,1.11816495537,0.00430437173379389,970.4069410368379,970.27934489517,970.56691794891,0.009762388862956644,-0.0025288024406183735,Null
-0.6508764648398,-0.78149414062,-0.56909179687,0.00389324143074497,0.6621606445281999,0.51745605468,0.75915527343,0.0035625227111535742,0.4136254882784,0.21984863281,0.54772949218,0.004969878082341126,1.0220050522711999,0.91922309884,1.07715234556,0.0009999950845873845,970.4158710713264,970.30087691832,970.49424825172,0.0024534025810401755,0.0004905823556189616,Null
-0.5485302734333999,-0.5751953125,-0.52453613281,0.00013903605814190388,0.7990332031209999,0.7587890625,0.86303710937,0.00023189364055187375,0.3385668945274,0.28942871093,0.36083984375,0.0004023928895399039,1.0269332090824002,1.00679359383,1.08141792211,0.00014225866911519232,970.4000847864107,970.3762405965,970.48758401363,0.00029474371633104914,9.961502899327755e-05,Null
-0.11048095703119998,-0.56762695312,0.32629394531,0.05666671281420634,0.946196289058,0.78955078125,1.28308105468,0.012082245349895224,0.3780615234333999,0.25744628906,0.68383789062,0.00790228797924772,1.0539584431806,0.8803405841,1.47560551325,0.01563667527915298,970.4026209457995,970.37031857257,970.48758401363,0.0010209624593340617,-0.0006372464050572947,Null
-0.6184179687481999,-1.02429199218,0.32629394531,0.21990748537748106,0.5710278320279998,0.21203613281,0.89660644531,0.039567978099409255,0.3401733398396,0.05554199218,0.63269042968,0.022084941316231347,1.0276058791138,0.49572814024,1.37236631736,0.047477200113550604,970.4174199674784,970.38038189593,970.61790235345,0.002007619721949912,0.0008486497892277479,Null
-0.2661914062468,-0.73010253906,-0.02270507812,0.026921042745766757,0.9110278320277999,0.65393066406,1.2431640625,0.015740341616472548,0.3246557617168001,-0.01013183593,0.56958007812,0.02835172721178997,1.0314045191931998,0.87059605497,1.36215228797,0.012867310454012404,970.4365511853695,970.253267093,970.66571153079,0.013320026987094388,-0.0027458146034831676,Null
-0.3626464843705999,-0.51489257812,-0.21008300781,0.007201463285066638,0.9309399414024,0.71398925781,1.20361328125,0.01567501540744109,0.14807373046759997,-0.11743164062,0.50415039062,0.036885120945780774,1.0332153317944,0.88512646556,1.28768344285,0.011835897543121855,970.4041587069994,970.26429168881,970.49351095162,0.003371102660098236,0.0009627821871675754,Null
-0.4698950195282,-0.6025390625,-0.33532714843,0.005311910486124766,0.7266137695275998,0.53125,1.00964355468,0.017364605562560576,0.5315747070278001,0.39538574218,0.69970703125,0.005582693014605662,1.0210006874864,0.84268967796,1.26840687772,0.01704523406318333,970.3901562595341,970.2957673446,970.44797922095,0.0014810035340255363,-0.0006628705646323257,Stairs Up
-0.7297753906215999,-1.16040039062,-0.3515625,0.05000567101397443,0.6139453124965999,0.33837890625,1.01879882812,0.0352506180963239,0.23000488280780002,0.05908203125,0.58679199218,0.02529254164364337,1.0262308004989997,0.80512404405,1.33224887132,0.01888575774172763,970.2826548441633,970.22640680811,970.43118756713,0.0021390384289287872,-0.0007487821408903324,Stairs Up
-0.17380859375119997,-1.16040039062,0.48120117187,0.34781371243842657,0.8609374999957999,0.44921875,1.23913574218,0.05193879387576552,0.045358886720199984,-0.2685546875,0.70190429687,0.07789380206436437,1.0906906234554001,0.76911665306,1.65084336069,0.05731721613202288,970.2559917267084,970.02717862533,970.7053814818,0.018303183813492465,-0.00289694253740099,Stairs Up
0.19418945312279995,-1.0751953125,0.56420898437,0.10036885738188367,0.4599023437460001,-0.10693359375,1.26049804687,0.1592605554935398,-0.4348950195298001,-1.21350097656,0.38061523437,0.28201435347055565,0.9641602024384,0.5017608096,1.38941598691,0.045430121429657605,970.1478740719639,969.96910280946,970.67536839779,0.02773208449454585,-0.002302668091406902,Stairs Up
-1.0099853515589,-1.32763671875,-0.67175292968,0.025071466812191363,0.5041394042935,0.201171875,0.89807128906,0.03789437211376054,0.255656738277,0.0712890625,0.4453125,0.00928791280340586,1.1681168392964998,0.7561381809,1.66146128354,0.04709250618064681,970.1041706447027,970.05928768195,970.15517742556,0.0004560363555677215,-0.00012885999140903052,Stairs Up
-1.0298242187470001,-1.17358398437,-0.84765625,0.010421194476356291,0.40933837890259994,0.17492675781,0.58801269531,0.012215977515854027,0.1793945312466,-0.01745605468,0.38525390625,0.013079769683407448,1.1332641563575998,0.89150375381,1.29865536221,0.011465001994160836,970.0476396689396,969.9872282257,970.1162794716,0.0011677556526769556,-0.0007783780259660866,Stairs Up
-0.9781787109340001,-1.2021484375,-0.75402832031,0.01928318182627479,0.40681396484039994,0.23352050781,0.54614257812,0.007189425488998441,0.2001098632774,0.03540039062,0.40612792968,0.012211927410430676,1.0874640607527999,0.88327512181,1.34977216056,0.018277531153994987,969.9750754451511,969.93552706455,970.06903007449,0.001165260374425805,-0.0005213366659607657,Stairs Up
-1.0183813476522,-1.24841308593,-0.76599121093,0.019344246200846335,0.3922045898402,0.201171875,0.61169433593,0.01500068915600121,0.193505859372,0.09753417968,0.26062011718,0.0016211060562981007,1.1134197552138,0.82099999274,1.3616199208,0.024517532172282905,969.9100333597682,969.85912610543,969.98552588738,0.0013054325501262991,-0.0004326164189988007,Stairs Up
-0.9604711914018,-1.18713378906,-0.69470214843,0.02004070395760196,0.43163330077699996,0.23352050781,0.5615234375,0.00842135808082892,0.1544287109338,0.03967285156,0.24841308593,0.002587631398922895,1.0692907696320002,0.83804884441,1.2963438325,0.020219079896107744,969.8475245446293,969.81595277173,969.96708904652,0.0010316626309817814,-0.0003819569913843519,Stairs Up
-0.9813549804651999,-1.17199707031,-0.79602050781,0.011857258436531699,0.4162988281205999,0.22839355468,0.58874511718,0.01355010478203839,0.1622094726532,-0.00500488281,0.29418945312,0.008274183544140123,1.0878215327136003,0.87577849055,1.29373041059,0.012791181069303945,969.8451532805167,969.80969233805,969.9606913704,0.001633642691257414,1.9227469018325684e-05,Stairs Up
0.130449218749,-1.14392089843,0.77783203125,0.476167082637657,0.7742065429659999,0.43432617187,0.984375,0.022847768182776607,-0.0038427734366,-0.26147460937,0.36010742187,0.03213191046769299,1.059160984345,0.82706442882,1.29373041059,0.02064731279445219,969.830727541814,969.74124105205,969.90848847802,0.001848938652403623,0.00025986520723227433,Stairs Up
0.5953759765589999,0.42602539062,0.96606445312,0.020097106056899714,0.8198144531209999,0.49890136718,1.12316894531,0.02650183008194099,0.039365234374199996,-0.12072753906,0.21044921875,0.012865373726420597,1.0370691652252,0.81416705479,1.22696512745,0.011591036356844548,969.8081668306634,969.70369421358,969.99294882766,0.007695791483084081,-0.0003188999209698306,Stairs Up
0.6337023925741999,-0.07153320312,1.03002929687,0.09044543730290075,0.6257922363239,0.23913574218,1.11083984375,0.0719018670334182,0.3462145996070001,-0.25903320312,0.57568359375,0.047252500807243025,1.0550189696397998,0.88941134194,1.22193868744,0.006264700826857917,969.8526054638493,969.60375156575,970.49893862927,0.06364002790629854,-0.0025688125781993436,Stairs Up
-0.4160375976523,-1.00439453125,-0.01452636718,0.11168724309921203,0.8622998046836,0.62170410156,1.20275878906,0.026262229717276233,-0.17608154296550002,-0.34777832031,0.03662109375,0.009282530985647363,1.0397940548650002,0.8253519124,1.24408709831,0.012364598809511513,969.8167257087384,969.77212506722,969.88574297829,0.0008830280150128294,0.00010384863062452063,Stairs Up
-0.9320117187463999,-1.09155273437,-0.75231933593,0.005833003834166232,0.44890502929289994,0.33227539062,0.62170410156,0.004884311723731937,0.1106054687478,-0.09265136718,0.29296875,0.01283019349985501,1.0482184582542002,0.8323768113,1.18180601995,0.007015390569924745,969.8205749542306,969.76972867577,969.86455292789,0.0005831580719110593,-6.62378603431877e-05,Stairs Up
-0.7161877441360999,-1.04431152343,-0.39221191406,0.05125618056059552,0.6518774414026999,0.42846679687,0.95153808593,0.023569101751275544,-0.15729614257790003,-0.58166503906,0.36694335937,0.12097924443358773,1.0677738945961999,0.89586564863,1.37726270834,0.016481365083253353,969.803338601377,969.70761535241,969.99323533158,0.006888306925046237,6.351273018774813e-05,Stairs Up
0.3199450683596,-0.61401367187,1.13720703125,0.3946077743805066,0.6017358398407999,0.19372558593,1.30419921875,0.1280758851054482,0.1054895019506,-0.52136230468,0.65759277343,0.08652916552130335,1.0237066904758,0.74640295601,1.44646427038,0.03103455694027447,969.607434909108,969.5593928179,969.75034368528,0.001772820184692126,1.382582067627703e-05,Stairs Up
0.9779052734336,0.82495117187,1.12268066406,0.008012067789982603,0.2605200195278,0.13269042968,0.36584472656,0.003920913760150315,0.09478027343300001,-0.01721191406,0.22692871093,0.005150196022202796,1.0203676915094,0.86353464852,1.17399239303,0.009004873269886592,969.5472419326129,969.52218371134,969.59871703682,0.0005176189151080068,-0.0007128367128275112,Stairs Up
0.290422363281,-1.298828125,1.16247558593,0.6466832028509089,0.4142846679653998,0.12951660156,0.84680175781,0.04792088733149814,0.2953076171844,-0.01635742187,0.85070800781,0.0652522296371008,1.0219401620530002,0.63186195001,1.58798261143,0.05159554118883589,969.5188979799266,969.45974056495,969.57330173504,0.0007324011645269404,0.00013639824052567783,Stairs Up
-0.9381811523398997,-1.16430664062,-0.68542480468,0.014902744383694542,0.4073413085901999,0.29028320312,0.5478515625,0.005152012910480323,0.20934082030910006,-0.03662109375,0.39172363281,0.014074791464660353,1.0513214528411,0.82172704169,1.25596476419,0.015431949937262846,969.4882477905674,969.44929926985,969.61280415112,0.0017884491518101499,-0.00012179441976845862,Stairs Up
-0.9434045410118,-1.16589355468,-0.7177734375,0.02146004656832357,0.3923596191372,0.25549316406,0.57043457031,0.008337585701954447,0.14350952147940002,0.05847167968,0.21569824218,0.0016412718894931943,1.0343741958169996,0.77999942823,1.27921611152,0.02600779761129117,969.4417500338631,969.40338851538,969.49151079984,0.0007000074502593936,-0.0005575793745638279,Stairs Up
-0.9633508300743999,-1.10314941406,-0.78515625,0.010311921694801817,0.39528198241819995,0.22692871093,0.54675292968,0.010950863474166652,0.1539587402297,0.06066894531,0.27758789062,0.005964657530303669,1.0591585742519998,0.84204078557,1.22399759297,0.013266913114855313,969.4206191870579,969.37763201806,969.51622513027,0.0014499754347861186,0.00032032753688749304,Stairs Up
-0.9903540039023997,-1.17199707031,-0.80480957031,0.015423243087951207,0.3985314941366,0.20947265625,0.56494140625,0.012882475556555393,0.16531982421560001,0.03759765625,0.2763671875,0.005608305034115111,1.0870568374968,0.84592576653,1.29438457014,0.01903168145074787,969.4153007535377,969.3809846377,969.47508809053,0.0007411258747208652,-1.1022628274308842e-05,Stairs Up
-0.9889562988238001,-1.15270996093,-0.80078125,0.012001198787433462,0.4083642578094999,0.20947265625,0.55615234375,0.00795532383110717,0.1225610351528,-0.01879882812,0.2158203125,0.004275806618388908,1.0816793043032,0.88556241163,1.25831263532,0.01391618582245074,969.4287340520422,969.38853863597,969.52735850915,0.001613837574720299,-8.530752309962494e-05,Stairs Up
-0.9799951171843998,-1.11242675781,-0.84790039062,0.007632588280657421,0.36086303710459994,0.20886230468,0.48889160156,0.008472624961501248,0.14001098632460002,-0.00061035156,0.25061035156,0.006359032445135896,1.0599282671242998,0.89846168983,1.20294411649,0.009098292251388484,969.4250025330635,969.38291004464,969.50680408665,0.0013642133427134392,0.0002924980052588773,Stairs Up
-0.9929443359342,-1.2724609375,-0.7578125,0.02246646327216113,0.3349011230440999,0.212890625,0.54162597656,0.0070757680754262135,0.15821044921480001,0.04809570312,0.22058105468,0.002196429299573302,1.0641641745561998,0.81070204019,1.32635546215,0.022326915507039347,969.4150935835536,969.37867827081,969.49640640149,0.001058983336653165,-0.0002959555809806296,Stairs Up
-0.9629919433547,-1.23559570312,-0.73229980468,0.01874137799385737,0.3611169433549999,0.22839355468,0.52465820312,0.004668257409564444,0.1385327148398,0.03894042968,0.28918457031,0.004106521311455925,1.0414433058778998,0.787659739,1.29331482119,0.01978492789748188,969.3734890967555,969.31639592849,969.43212152155,0.0012988790267406977,-0.0008654871791561136,Stairs Up
-0.9759497070273,-1.27893066406,-0.73889160156,0.02220212870786166,0.3271411132769,0.22534179687,0.48059082031,0.005101754755640372,0.1352624511679,0.05090332031,0.28601074218,0.0037361438392232386,1.0421107199316002,0.7958502632,1.33471276656,0.02275751896106689,969.3266935630681,969.27635768867,969.41096002353,0.0011509503712634375,-0.0005797450886094889,Stairs Up
-0.9552319335896999,-1.16394042968,-0.77514648437,0.013488779350931073,0.3631164550748999,0.21398925781,0.47802734375,0.004360307760653265,0.1288208007782,0.05139160156,0.17602539062,0.0012486623694025342,1.0318030746067999,0.81642907398,1.2430139887,0.015359184673943753,969.2578380677578,969.2068072389,969.29892136375,0.0006569455969186441,-0.0006461306114068821,Stairs Up
-0.9708178710891999,-1.17907714843,-0.75341796875,0.01633356792121516,0.3388659667918999,0.22973632812,0.5078125,0.006543609378127372,0.12321899413710001,-0.01147460937,0.18603515625,0.0034712589432571808,1.0394403228933002,0.78907841014,1.2719094581,0.018332494764491235,969.1987390288618,969.16267165278,969.26065409502,0.0007396783348076899,-0.0006421449815980178,Stairs Up
-0.9837341308547,-1.18139648437,-0.78112792968,0.015827958745057033,0.35019531249639996,0.15234375,0.5078125,0.006538592203626938,0.16958862304330002,-0.05859375,0.26318359375,0.004589195761584969,1.0631890128078,0.87352971458,1.26169411957,0.015601222685403314,969.1335433743512,969.08583957568,969.18004436789,0.0006627571915627776,-0.0005992731775464401,Stairs Up
-0.9078674316369998,-1.24841308593,-0.68017578125,0.01968445060679705,0.4885412597619998,0.15234375,0.82604980468,0.0251132823767573,0.16537353515300005,-0.05859375,0.26428222656,0.008462566504193459,1.0608712211720002,0.82173952683,1.41369338513,0.017701202656637265,969.0704030567456,969.02594847057,969.13897254834,0.0010790078501940591,-0.00048538503131248875,Stairs Up
-0.9619531249968999,-1.20153808593,-0.78723144531,0.01596547644535318,0.34307983398060005,0.17687988281,0.466796875,0.0074191778280371275,0.1607360839796,0.03295898437,0.28662109375,0.005478966529745849,1.0397555659067999,0.83683883346,1.25899870246,0.01654244810982886,969.0238960321105,968.96157576877,969.11927138587,0.001508495265876375,-0.0006528768733991943,Stairs Up
-0.9603283691362,-1.16577148437,-0.70288085937,0.01202857057724557,0.4441748046837,0.27465820312,0.83837890625,0.02401658407369141,0.20473632811999998,-0.1318359375,0.57800292968,0.027564148710023297,1.0941897499040998,0.85928463894,1.4877071024,0.027435150778688345,968.9732176749212,968.92603249256,968.99752290195,0.00044747973262758536,-0.00029554597886022094,Stairs Up
0.8155859374959,-0.70288085937,1.09606933593,0.11149842873870626,0.2974890136677,0.16760253906,0.80517578125,0.01613074313973119,-0.10524902343440001,-0.24523925781,0.54577636718,0.02230473780794993,0.9444437624637001,0.54956610535,1.20009223985,0.02143236541635394,968.9483030429785,968.90543161545,969.01092817097,0.0012253862018445601,-0.0009889664734442291,Stairs Up
0.9051904296837998,0.69165039062,1.0439453125,0.007830247397543549,0.38033447265169984,0.11804199218,0.73376464843,0.02190523782776325,-0.12696655273330001,-0.34375,0.32495117187,0.03446635630751074,1.0182794829916,0.87437339042,1.16859970146,0.006880048713546895,968.9523426160744,968.82251408573,969.16330349469,0.0103491559490752,-0.0018107090984359842,Stairs Up
-0.6076550292948,-1.08776855468,0.69165039062,0.32700424094475444,0.6001379394487999,0.35229492187,0.97204589843,0.031215143641362186,0.10789550781039998,-0.14819335937,0.35461425781,0.021370440203123623,1.0472646555167002,0.77733928353,1.30035838565,0.0202851408563161,968.9248807561444,968.81788342589,969.05958465222,0.002398591543061127,0.0008675287322828314,Stairs Up
-0.9622082519485999,-1.0947265625,-0.69616699218,0.010162260223840165,0.4721948242140999,0.2939453125,0.62915039062,0.00669321375052932,0.1833825683568,-0.09033203125,0.57946777343,0.024412334523381474,1.1002498645998002,0.8123038587,1.23511872641,0.012875964014485,968.9762500498733,968.92686010156,969.04031360192,0.0010577127735897243,-0.0004612343284748413,Stairs Up
-0.9828356933554997,-1.14099121093,-0.82409667968,0.00670788652222744,0.4061975097618999,0.23498535156,0.61706542968,0.01432389510220959,0.08342041015530001,-0.13439941406,0.57946777343,0.021425937997166734,1.0831903918158001,0.91219512405,1.26756822085,0.006720302429890434,968.9993661825173,968.93953573076,969.05587914564,0.0008070433160956796,-0.0001227170565943195,Stairs Up
-1.0440380859342,-1.1796875,-0.87829589843,0.005714705833354026,0.3480578613241999,0.15441894531,0.61657714843,0.016291272548521956,0.14362304687130004,0.02941894531,0.2783203125,0.00413241721161163,1.1182242713934,0.92831587386,1.26756822085,0.007311989703506082,968.96515386899,968.93697215895,969.0039565719,0.00046151908705947744,-7.247204458015217e-05,Stairs Up
-0.9832397460896,-1.11535644531,-0.79479980468,0.006931529352238742,0.4089135742136,0.19067382812,0.64599609375,0.018334831366851354,0.132064208983,-0.20202636718,0.42761230468,0.03417508579574974,1.0970302070438998,0.88622207007,1.26613355356,0.006851941058972922,968.926189312248,968.87045771045,969.03661645977,0.0021903917001051525,-0.00014080291951250882,Stairs Up
-1.0086633300733998,-1.23425292968,-0.73571777343,0.016530302273835142,0.39796264648139995,0.24841308593,0.60205078125,0.01072944020256409,0.09732788085650002,-0.05444335937,0.20739746093,0.004176395015844883,1.0948245584526999,0.80680348597,1.36766215667,0.017908747625405032,968.8621863754187,968.81878025133,968.93572369483,0.00118780696508935,-0.0006698915456464732,Stairs Up
-0.9913085937466,-1.09875488281,-0.7939453125,0.006060853148889213,0.3660351562452999,0.15734863281,0.59899902343,0.01275180997264554,0.12649169921599998,-0.09460449218,0.29309082031,0.011239120929927357,1.0740817034608,0.86935337334,1.23893257364,0.008863004158085065,968.8033394435595,968.75091568018,968.84737721017,0.0010117432041388263,-0.0004628141018133053,Stairs Up
-0.9768945312464001,-1.16357421875,-0.826171875,0.010492183367312358,0.36595947265159995,0.21618652343,0.52624511718,0.006756970924561191,0.09364501952950001,-0.13781738281,0.22998046875,0.010213664390288401,1.0549352621868,0.88192236594,1.22830925013,0.011432761187809653,968.7309193566153,968.68856565986,968.84737721017,0.0015203893736123772,-0.001075299990291186,Stairs Up
-1.0079895019495,-1.38525390625,-0.73303222656,0.023031002456325583,0.36913574218419987,0.16589355468,0.49584960937,0.007272297059930447,0.18420166015339998,0.10217285156,0.28857421875,0.002218684758811684,1.0926120337142005,0.78353191903,1.45318006595,0.024878779813105736,968.6791988360329,968.62746904771,968.75580934617,0.0013323352155208852,-0.0004860282822739817,Stairs Up
-0.9776049804652999,-1.16638183593,-0.7548828125,0.01136424006234106,0.3352880859339999,0.19665527343,0.47180175781,0.006380570922242465,0.18554687499709996,-0.00256347656,0.45715332031,0.016241706380965504,1.0608194288372,0.8534969965,1.24078802531,0.010975790717411725,968.6104373100767,968.54818720551,968.70866989238,0.0015076252901901161,-0.0004240853479704288,Stairs Up
-0.9699645996054999,-1.13354492187,-0.71911621093,0.013782500731629517,0.35335083007429985,0.21520996093,0.49047851562,0.0069460445507715475,0.16196411132439997,0.08020019531,0.24926757812,0.0028800216874161747,1.0479809569096,0.76523468227,1.24502279484,0.01720091132662898,968.5563878050722,968.51447630151,968.6195428788,0.0007181412397649048,-0.0005917672979486881,Stairs Up
-0.9675756835903999,-1.18872070312,-0.78442382812,0.012359851773270276,0.3719189453078999,0.22399902343,0.52319335937,0.007179213027833474,0.10374511718340002,0.00024414062,0.22326660156,0.003372383021398409,1.0453135798273,0.83801958563,1.26181723148,0.015445765522234329,968.520390679569,968.47319758343,968.58007805589,0.0009846962311462427,-0.0002999235419596356,Stairs Up
-0.9870568847617998,-1.17016601562,-0.82751464843,0.008555926293803653,0.3575915527305999,0.22204589843,0.54370117187,0.00953353080341165,0.1722949218713,0.01379394531,0.27819824218,0.005577609490872635,1.0696775942445997,0.86877095794,1.29388357339,0.011170497715074166,968.5086856990958,968.46223829202,968.58575488022,0.000835886814775502,3.4072917536563913e-05,Stairs Up
-0.9896850585896999,-1.17346191406,-0.82727050781,0.012207717456126673,0.38591796874579987,0.23266601562,0.50891113281,0.007805168123056182,0.1485815429655,0.06384277343,0.22778320312,0.0026332556539534926,1.0763036750872998,0.87372590014,1.28091778751,0.014621967193972511,968.5097755810344,968.47230106734,968.58006049008,0.0005173344236014629,-4.012755409950591e-05,Stairs Up
-0.9651708984340999,-1.1240234375,-0.79724121093,0.012115560661970575,0.3976684570270999,0.22595214843,0.95910644531,0.023815956230078383,0.14486938476020003,0.02514648437,0.41955566406,0.009379122550844811,1.0674811706581002,0.86376120744,1.41616497962,0.016185542303097933,968.5097087956016,968.47752156602,968.56446226344,0.0007671593192544415,-5.509259289184586e-06,Stairs Up
0.26180419921739995,-1.12890625,0.91052246093,0.4323862006838075,0.7685717773393997,0.46105957031,1.22827148437,0.04006864898712842,-0.13747192382559997,-0.52722167968,0.7666015625,0.15337024404802443,1.1014154030429,0.61811018433,1.79669741292,0.08544797799520967,968.5251104539741,968.40464528744,968.64403323503,0.004256241873430482,-0.0005836487248898919,Stairs Up
-0.13112426757909998,-1.25830078125,0.95202636718,0.6121983242266186,0.6354846191374999,0.20483398437,1.19653320312,0.043208219154368586,0.0369396972653,-0.31701660156,0.43725585937,0.06514669334333995,1.017940288062,0.37107216621,1.50158352018,0.10054958610226086,968.3661151551319,968.24870971745,968.60394524701,0.005573338977668581,-0.00012032198940672647,Stairs Up
-1.0391955566369,-1.39282226562,-0.69201660156,0.035344299672669166,0.35069702148049997,0.1640625,0.59252929687,0.01733776959944935,0.15979492187130004,-0.095703125,0.37658691406,0.014953477189586171,1.1220886039641003,0.72261295704,1.50551743342,0.03669351385552421,968.4119174390705,968.35799322867,968.49982640961,0.002611694501834199,-8.191644264171536e-05,Stairs Up
-1.0061865234335,-1.26184082031,-0.72033691406,0.023574244157338015,0.3502319335889,0.18334960937,0.48315429687,0.009697286618983727,0.17454833983979998,0.08654785156,0.2275390625,0.001562394126454891,1.0841704497128999,0.77903025949,1.31913973283,0.024849365467162335,968.349621194343,968.30714648563,968.41949059572,0.000792541457677998,-0.0005858277657545023,Stairs Up
-0.9803881835906,-1.26184082031,-0.75769042968,0.015485144088967302,0.36923828124649993,0.21887207031,0.49743652343,0.004998869968174925,0.14701416015190003,0.06762695312,0.22741699218,0.0017647021406042764,1.0605716144661002,0.84612418742,1.31913973283,0.016490042193036156,968.3015404622062,968.24160820089,968.38560007709,0.0013028621307596083,-0.0008911265318225986,Stairs Up
-0.9744580078095999,-1.14575195312,-0.79724121093,0.012612742944249529,0.3359802246058999,0.21044921875,0.49157714843,0.005922183356531013,0.1424169921833,0.0341796875,0.20263671875,0.00198014724125957,1.0439855316108,0.87991144978,1.25368800893,0.013270558146400782,968.2266559101977,968.17906485966,968.27972109562,0.0007428562170423047,-0.0005133509275924557,Stairs Up
-0.9555163574183999,-1.19848632812,-0.77526855468,0.012248280100976526,0.36113037109060003,0.2216796875,0.49475097656,0.005050557063109522,0.1819970703095,0.06604003906,0.38488769531,0.006641813504587677,1.0420835081477,0.8447500413,1.26539526137,0.01445736770593385,968.1655806801028,968.10561727883,968.26228323516,0.001568235570699449,-0.0007765619184934803,Stairs Up
-0.9837072753863998,-1.29626464843,-0.74560546875,0.021623019453845843,0.3262048339798999,0.20227050781,0.45581054687,0.005858396597256681,0.1235607910123,-0.05712890625,0.38488769531,0.009881884249481361,1.0503607893363998,0.78752421576,1.36168042171,0.023321965616853495,968.1242923515975,968.06765719925,968.22001987196,0.0016479369044018067,-0.0007855050208955778,Stairs Up
-0.9649291992150999,-1.18481445312,-0.76818847656,0.014270846139214066,0.37635009765319993,0.22570800781,0.51940917968,0.00925718949893513,0.10214599609029998,-0.03723144531,0.19653320312,0.0036110954993675585,1.0446792172707002,0.81950565803,1.2729151772,0.018863265502367815,968.0644286745486,968.0113542903,968.14733097725,0.0016084738285136364,-0.00046382392365839785,Null
-0.9638330078089998,-1.15356445312,-0.84814453125,0.008942319311351482,0.3653051757774,0.25561523437,0.53674316406,0.0058760869321188855,0.1391235351528,0.01086425781,0.24853515625,0.005015867376467001,1.0442330196956997,0.91049337078,1.25535425021,0.011101644329480716,968.0560216068376,967.99555497866,968.18746837533,0.0014458028567924158,-0.00026675459407646344,Null
-0.9990515136674999,-1.16833496093,-0.86779785156,0.00921390389406801,0.3562841796834999,0.27062988281,0.53344726562,0.005423406422652742,0.11435546874810001,-0.51440429687,0.34143066406,0.04146246295863671,1.0869054988005,0.93554224001,1.36565152127,0.012418918292610086,968.0619935029421,968.00549843387,968.17219066978,0.0023647396771335556,-0.0007586573407955663,Null
0.4971386718728999,-1.00170898437,0.95727539062,0.42689960180729597,0.4056237792934999,0.15673828125,1.10717773437,0.1086237294066307,-0.1261865234365,-0.3642578125,0.33728027343,0.0713731941772111,1.0003002052595997,0.65324761823,1.31783204446,0.028108694539550626,968.0208080739746,967.98103969523,968.06503516968,0.0006872729850935946,-0.0006531245926556877,Null
0.9502734374962,0.88781738281,0.98986816406,0.0007929026839547222,0.23091064452789997,0.16638183593,0.36950683593,0.005708718775494018,-0.27990844726229996,-0.31616210937,-0.20764160156,0.00043319647208212014,1.0204817081721997,0.99303005518,1.06258248261,0.00017234712602469222,968.0069282427196,967.99814778908,968.01316387352,1.6307837535403574e-05,4.625392363646579e-06,Null
-0.29923950195230004,-1.2216796875,0.98986816406,0.7508947538099214,0.47884277343379994,0.18505859375,0.82580566406,0.043850501041031054,0.1252880859354,-0.20764160156,0.32177734375,0.022668016534182107,1.054316518231,0.77470114583,1.45120532894,0.03251273104512072,968.051974958489,967.99515840648,968.11725712573,0.0014141290889872866,0.0010203584123965684,Null
-0.9594201660119999,-1.06909179687,-0.88952636718,0.0018138838100127648,0.3670922851532999,0.29821777343,0.51403808593,0.003058966235703306,0.11929443359060002,-0.13549804687,0.28503417968,0.009382476294470327,1.0400917427016998,0.95524538755,1.14685186575,0.0018150530241855675,968.0692511693566,968.03322786677,968.12672527413,0.0005499544999578352,0.00023771358130272613,Null
-0.8623767089799999,-0.99230957031,-0.74645996093,0.0034081084244169425,0.20896484374720006,-0.11828613281,0.52368164062,0.043379457525779666,0.4062060546835999,0.07092285156,0.5634765625,0.022225718161170964,1.009522202694,0.94454059138,1.08263161594,0.0015669964819166706,968.0797995531227,967.83688634277,968.28095320042,0.0165384460118064,-0.002636592185480657,Null
-0.9101037597620999,-1.03894042968,-0.7265625,0.01096099261529787,0.1927001953105,-0.35131835937,0.57690429687,0.06055222978370104,0.3466833496054999,0.06066894531,0.80358886718,0.054569755074686546,1.0531149351395999,0.97878997063,1.11454340679,0.0013966108950608444,968.039497357975,967.92660047466,968.08757931274,0.0010620702358753887,0.0009214090480038137,Null
-1.0044604492149,-1.37072753906,-0.48278808593,0.02345110533840588,0.39098266601189996,0.15124511718,0.86059570312,0.030986122186599907,0.24102172851190004,-0.10632324218,0.48425292968,0.01918245125710589,1.1221582363224,0.81441914878,1.68938445905,0.03388291659048591,968.0931581299385,968.05739028013,968.26396332386,0.00249342750975149,0.0008966244563736057,Null
0.5134643554662999,-0.48278808593,0.69250488281,0.04996620750775332,0.8211975097629,0.64709472656,1.04907226562,0.012100024468632866,-0.12692016601329997,-0.28991699218,0.15966796875,0.012197847575213245,1.0079826116514,0.80298019506,1.21244145797,0.011729511393847225,968.0538043471947,967.84736853899,968.41303114486,0.02040784323987376,-0.0021728403631939212,Null
0.12311767578040002,-1.07409667968,0.68493652343,0.38818377231234513,0.7728271484338,0.51428222656,1.03393554687,0.014964930938627507,0.0143774414061,-0.49609375,0.36657714843,0.07007588749450921,1.0287582282713001,0.74044199022,1.31615566166,0.023005380677765884,968.0170734189738,967.93911201556,968.18011160211,0.004058303492384073,0.0007103740644751532,Null
-0.9770751953083999,-1.32482910156,-0.86926269531,0.010368927560700097,0.4041479492149999,0.28198242187,0.67834472656,0.008124467574101355,0.07093994140479999,-0.62463378906,0.36584472656,0.0425623435616503,1.0798532394609,0.98330186447,1.57745878868,0.017581959558035286,968.0643246666632,968.00143845617,968.20895365382,0.0017211197349810607,0.0005773295943559731,Null
-0.9195605468712997,-1.50524902343,-0.3173828125,0.07263752183508114,0.5243737792932001,0.27478027343,1.36340332031,0.09037370484747725,0.0419226074202,-0.4052734375,0.38244628906,0.04278194640956342,1.0976320858245,0.57195445379,1.978817302,0.12248081850363435,968.1078705653686,967.94251267392,968.27073000764,0.004920704705342131,0.00038424887616537507,Null
-1.0265686035127,-1.68688964843,-0.35791015625,0.08776722904866248,0.5179626464811998,0.16638183593,1.12023925781,0.04906207123661707,-0.03522216796930001,-0.88647460937,0.57849121093,0.11251333850042922,1.2127177544861,0.65329637469,1.90170362304,0.10053925488361658,968.0443263309442,967.84340204154,968.34730580289,0.01280167187741238,0.0005301943628804094,Null
-0.8367797851518,-1.09411621093,-0.4111328125,0.04157955282248819,0.5390539550742,0.33166503906,0.83203125,0.02515701882009624,0.20959472656019998,-0.26550292968,0.47473144531,0.028684263276963693,1.0589369293359001,0.91029797216,1.30960678061,0.007907809075206173,968.0759382356492,967.99109780491,968.12008748227,0.0009926616468823942,0.0007090206985229572,Null
-0.1081005859336,-0.4111328125,-0.00109863281,0.007198696281033695,0.8987927246063001,0.77514648437,0.96398925781,0.0028356199599698685,0.45392333983989985,0.37023925781,0.63928222656,0.005274255895900031,1.0196949295070998,0.94440601171,1.08796455364,0.0009477112016936568,968.0701602994798,968.04638220992,968.09498799932,0.00018235173635342296,-6.855826359656437e-05,Null
-0.08742797851150001,-0.09985351562,-0.07336425781,5.797343271509976e-05,0.9499353027313998,0.93481445312,0.96398925781,5.7826034659894887e-05,0.370611572262,0.34826660156,0.38854980468,0.0001342990106444025,1.0235135191601001,1.01184015024,1.04297665082,4.175948001018393e-05,968.0698560652364,968.0465141784,968.09266908446,0.0001512093861100702,-5.2052995324641184e-05,Null
-0.0795080566365,-0.09509277343,-0.04516601562,0.00016044307686299844,0.9364746093708999,0.90075683593,0.95434570312,0.00020821708622812844,0.39187377929319994,0.34423828125,0.44506835937,0.000838456387094022,1.0188294100984,1.00490805813,1.03241831893,5.349744378423972e-05,968.0623232792266,968.04313117083,968.08812511467,0.0001935546626338367,-0.0004010683027331486,Null
0.0327087402332,-0.19482421875,0.27966308593,0.01863336664639846,0.9460681152308998,0.86950683593,1.06103515625,0.0026203513431894095,0.4139709472624999,0.21362304687,0.64892578125,0.010891768780461919,1.0467127053502998,0.95987879575,1.16688958519,0.0037406362473843702,968.1445692504111,968.02748355315,968.51437134959,0.024174191397585396,0.0037087298434346416,Null
0.19989501952709998,-0.10388183593,0.42407226562,0.016125368776477356,0.9321655273409999,0.65368652343,1.29650878906,0.029428553551403166,0.32723510741809997,0.10949707031,0.74890136718,0.04065398504488738,1.0425057108989,0.86773781884,1.34325789156,0.014647551275987743,968.0026720342252,967.77959193273,968.19605944402,0.012287091463692987,0.0006499021859369405,Null
-0.04086547851370002,-0.18432617187,0.0712890625,0.00663677094351302,0.7619897460895999,0.61486816406,0.86206054687,0.004436904005300726,0.6476110839802,0.52563476562,0.78869628906,0.003915173494069636,1.0065886798290997,0.89477736406,1.09015990699,0.0033501678512215336,968.0876384483624,967.83282477775,968.53415312586,0.027657541527558806,-0.0029355103303765912,Null
-0.7334118652317998,-1.1904296875,0.06420898437,0.16198700452331927,0.5443371581997998,0.251953125,0.83520507812,0.026633796455535857,0.10775878906089999,-0.52600097656,0.578125,0.13309011047333955,1.0666930409046,0.73607403446,1.37540778702,0.026734971015799837,968.3174561584373,967.07193747853,969.69397313483,0.3419754233425936,0.002948417851495977,Null
-0.9289440917947,-1.14514160156,-0.6884765625,0.012309749949685587,0.4153344726524999,0.26208496093,0.71569824218,0.012321057698969906,0.0076049804705,-0.18212890625,0.35961914062,0.023215797060689315,1.0386008412575998,0.91646270578,1.23419891381,0.00533423407603516,967.9040525298988,967.07193747853,968.06785064384,0.040071336137541845,0.005084457816736933,Lift Down
-0.9402294921832,-0.97497558593,-0.91442871093,0.00020673886694554144,0.30466308593360003,0.26477050781,0.35400390625,0.0005038856256042899,0.23448242187240007,0.14526367187,0.27856445312,0.0008342306060120215,1.0164964449472,0.9896088831,1.02879469635,9.84687161050567e-05,968.0972295635406,968.03905127296,968.17039931512,0.0007180314429809499,0.00011886403056642495,Lift Down
-0.9308935546827999,-0.94055175781,-0.92297363281,2.6456418668628668e-05,0.3329931640583999,0.30383300781,0.35327148437,0.00017657101757154252,0.22447265624639992,0.21667480468,0.23022460937,1.4114042719743334e-05,1.0139157394096003,1.00436949524,1.02582802299,2.532758086071241e-05,968.1089843812962,968.09957882881,968.11614141521,2.790915565889697e-05,-4.3663014057381193e-05,Lift Down
-0.9321728515584,-0.94274902343,-0.92224121093,3.05427204456617e-05,0.33340332030880004,0.31616210937,0.34521484375,7.44423240232866e-05,0.22328613280880003,0.21630859375,0.23291015625,2.1161069773909008e-05,1.014919748376,1.00631748618,1.0279390909,2.3722515346977783e-05,968.1018527065731,968.09360012281,968.11224560043,1.8177204693096385e-05,0.00010787188902490268,Lift Down
-0.930621337886,-0.94421386718,-0.92370605468,2.256679263327319e-05,0.33115356444999994,0.32055664062,0.33911132812,2.88301932168556e-05,0.22681640624590002,0.21887207031,0.2333984375,1.534358419608142e-05,1.0135151215826999,1.00669961296,1.02323444186,1.7789299185942102e-05,968.1053917483601,968.09409199212,968.11619197061,4.92032459056972e-05,-9.341583454515874e-05,Lift Down
-0.9047705078095999,-0.93920898437,-0.87744140625,0.0005332729069922743,0.3110485839806001,0.28979492187,0.33142089843,0.00012902114578944036,0.22937011718320005,0.22058105468,0.23620605468,1.6290732109942194e-05,0.9838879246870001,0.95721567673,1.02071009187,0.0006140349971447379,968.1033109550555,968.08910668284,968.12434241899,8.941198308393015e-05,-0.00014653735855798433,Lift Down
-0.916685791012,-0.94763183593,-0.87854003906,0.000422920390534353,0.3137451171839,0.28369140625,0.34252929687,0.0002278793941727504,0.229030761715,0.18725585937,0.2529296875,0.00025195593186507723,0.9957829871270001,0.95721567673,1.02700372878,0.000519089414267668,968.1945283930105,968.12434241899,968.29103522357,0.0027712196422688567,0.0017821086250572908,Lift Down
-0.9317248535121999,-0.9443359375,-0.92529296875,2.3221938007297117e-05,0.3264672851521,0.31591796875,0.34216308593,3.4481341183238756e-05,0.24347412109030003,0.23095703125,0.25927734375,6.573893205817958e-05,1.0168854302699,1.00932896541,1.03344575164,3.83515789536629e-05,968.4051412546194,968.29103522357,968.50932686821,0.004056784686002953,0.002185309116177999,Lift Down
-0.9347900390578998,-0.94226074218,-0.92529296875,1.878058066505016e-05,0.3174999999968,0.30688476562,0.33068847656,3.157538597312776e-05,0.2517382812468001,0.23889160156,0.26599121093,6.049844953437403e-05,1.018950392976,1.01145352013,1.02694445635,1.560421021852851e-05,968.6213088370819,968.50932686821,968.72615426304,0.004329611326454148,0.0022569155583483476,Lift Down
-0.9307128906211998,-0.93762207031,-0.91320800781,2.587202823116911e-05,0.3150537109336,0.30700683593,0.32250976562,1.7925850076593084e-05,0.2461914062468,0.23681640625,0.25573730468,2.480757355970842e-05,1.0129841952524004,0.99479055987,1.02076527391,2.674102934096385e-05,968.8311962929671,968.72615426304,968.92598725716,0.0037048866615814824,0.00208131438176999,Lift Down
-0.9306591796836,-0.9404296875,-0.921875,1.809630730847143e-05,0.32161621093240006,0.30578613281,0.33764648437,7.13012675987581e-05,0.2476855468712,0.22436523437,0.26342773437,8.706429992265231e-05,1.0154198725420003,1.01005457095,1.0212669214,8.894643728157774e-06,969.0548533622906,968.92598725716,969.15914629725,0.003980842331282468,0.0021614868681296795,Lift Down
-0.9333007812456,-0.94421386718,-0.92468261718,2.420309818552715e-05,0.3173974609332,0.30212402343,0.33483886718,0.0001119776446563822,0.24954101562040001,0.24047851562,0.25854492187,2.6140887329127208e-05,1.016960734858,1.00963839646,1.02479320015,1.391629494909499e-05,969.2685421611263,969.15914629725,969.37266973465,0.00386973777858915,0.002133957329099011,Lift Down
-0.6183642578103999,-1.11389160156,0.572265625,0.3264640652494364,0.4755322265587999,0.27844238281,1.02551269531,0.05387133790960997,0.26921386718400003,0.11901855468,0.42639160156,0.0051107141707344445,1.0044079205764,0.52858961367,1.53245822767,0.05428055086750591,969.5293571387476,969.37266973465,970.11915541055,0.029283001792162842,0.003333009312279782,Lift Down
0.23770996093400007,-0.85498046875,0.50073242187,0.09333827847073091,1.0790478515592001,0.83117675781,2.13513183593,0.08327693178145613,0.14893066405879998,0.03234863281,0.69152832031,0.028840763978254635,1.1598964343275997,0.995785789,2.38662270635,0.10209324272807208,969.6321719448393,969.42963498239,969.7108424701,0.0018699058720629397,0.0004783588707992647,Lift Down
0.5208642578087999,0.40270996093,0.61694335937,0.0034034058542715983,0.8208593749963999,0.71716308593,0.90832519531,0.003585391719090177,0.33976562499639995,0.2294921875,0.4521484375,0.005580474487559553,1.0356138456412,0.99510931848,1.08691126573,0.0005029399680595286,969.9588190213466,969.67369507681,970.36284117344,0.03815859850191281,0.004625975781485793,Lift Down
0.40502441405879996,0.36706542968,0.43176269531,0.000299553052356611,0.9312402343719998,0.90319824218,0.97607421875,0.00039424862526181247,0.1375292968712,0.048828125,0.2119140625,0.002300882435787077,1.0260490998563998,0.99938320718,1.08297403349,0.0003590298476995729,970.0653980084436,969.61975477186,970.37119564684,0.050470359990147484,0.004734123845040152,Lift Down
0.2852392578089001,0.17309570312,0.40979003906,0.00502685371078051,1.0034729003871,0.8935546875,1.07043457031,0.002080578206471825,0.127374267575,0.07312011718,0.16186523437,0.000704685658837719,1.0542647940075,0.98862449806,1.11576927304,0.0008113541031437274,970.2557226903962,969.95324120803,970.39201960533,0.012471070320218618,0.0035385585600180972,Lift Down
-0.5069677734364,-1.04516601562,0.16613769531,0.2317669137761064,0.7100195312463998,0.31921386718,1.06713867187,0.07190033416564527,0.21294921874639997,0.08850097656,0.31103515625,0.003004642592519882,1.0510279236711997,0.96104806558,1.25857816813,0.00549182132474736,970.4460632260754,970.39201960533,970.54452490016,0.0010673868750003335,0.0006517161967693546,Lift Down
-0.9059863281212001,-0.95227050781,-0.79858398437,0.0017491274169428644,0.34513183593440006,0.21203613281,0.42236328125,0.0027976345775649783,0.2743994140584,0.09753417968,0.37561035156,0.0030168358967159886,1.0106166995159998,0.90762262968,1.05785345395,0.001377876693311239,970.4763698120063,970.35885379211,970.58796831688,0.00287813787071784,-0.00020826847100128252,Lift Down
-0.9149121093716,-0.94616699218,-0.89233398437,0.0001678424411223722,0.3402636718711999,0.28479003906,0.38879394531,0.0006659549655561405,0.26972167968359995,0.24499511718,0.28564453125,0.00014332217400737945,1.01316209334,0.99727851121,1.02799099306,6.387855046404937e-05,970.4828631827743,970.43519911928,970.52450563082,0.000722982664697833,0.00016661346927483343,Lift Down
-0.8805224609331997,-0.93041992187,-0.74133300781,0.002399121005082128,0.45378906249719997,0.3427734375,0.6474609375,0.007932575158347815,0.12781738281199997,-0.14953613281,0.35180664062,0.029153635910327602,1.0162863270644003,0.86185770341,1.1634723076,0.0038729100754625223,970.5309632101545,970.36621649689,971.05262843264,0.026245946849302006,-0.0007300109976910998,Lift Down
-0.8826367187463998,-1.02563476562,-0.7490234375,0.004995562909731745,0.3977929687463998,0.02331542968,0.56518554687,0.013712967911156958,0.011489257812,-0.24621582031,0.30725097656,0.027421840897741027,0.9874024447504002,0.7606211457,1.13269966484,0.008206370114252038,970.4525638531173,970.18234545251,970.69537352296,0.01908428873984473,-0.0019394388277582707,Stairs Up
-0.9724658203087999,-1.21643066406,-0.8115234375,0.012829926375151374,0.3269580078083999,0.17785644531,0.49243164062,0.00881481180271329,0.19247558593319997,0.09912109375,0.31237792968,0.003356404111723699,1.0478230933931996,0.86518217321,1.29859882137,0.016622280340389803,970.4800839246534,970.45626169881,970.51753584611,0.00019562461298146608,0.0002327046857159225,Stairs Up
-0.9792089843712,-1.13513183593,-0.88952636718,0.0025647297290573175,0.31114257812279994,0.13098144531,0.44348144531,0.006795022607903014,0.1736328124952,0.08068847656,0.25085449218,0.0015390581554163263,1.0450296456136001,0.90372993048,1.23952940481,0.004556721964461059,970.4922096880924,970.4773514611,970.54068826039,0.00016855623705568865,-0.0001325183561772739,Stairs Up
-0.765771484372,-1.49011230468,0.99328613281,0.41334117662658754,0.3337402343707999,-0.220703125,1.51440429687,0.14715590019367192,0.3470654296839999,0.16076660156,0.9501953125,0.049991903497619165,1.1367344224464,0.35329883735,2.32738612758,0.13177966276702957,970.4855231083191,970.44360996231,970.50187451769,0.0002665603976558381,-0.0002922118710650967,Stairs Up
-0.8418408203091998,-1.37316894531,0.4169921875,0.1472890122720154,0.46818847655879997,-0.04418945312,1.60205078125,0.09909888108572415,0.33722167968280004,0.20495605468,0.49243164062,0.007061238385357985,1.085239729832,0.33458076456,2.10748701374,0.11594368362627874,970.4789309623378,970.44990843171,970.52616774282,0.00040027025497657863,0.00031254860098479383,Stairs Up
-0.9706494140587999,-1.19384765625,-0.83154296875,0.008016959681575293,0.2973486328096,0.146484375,0.45068359375,0.007119596991839697,0.26120117187119996,0.07104492187,0.43115234375,0.010545736948615528,1.0567839075224001,0.92352068828,1.23798511225,0.007510899112706009,970.4926081399386,970.47954183401,970.53141031245,0.00011543403829378059,7.831009886967555e-05,Stairs Up
-0.9482080078096,-1.09619140625,-0.80126953125,0.006611638021042675,0.3359130859336,0.18017578125,0.52819824218,0.0075831064069442535,0.26244628905839995,0.1455078125,0.36767578125,0.0028081150728843708,1.0440529335864002,0.86774475647,1.18007078323,0.007677156355986587,970.4945283633995,970.4765075522,970.57224040528,0.0006014742200735679,-0.00010599392929201512,Stairs Up
-0.9608496093712,-1.11486816406,-0.78259277343,0.01023070200545609,0.31057128905959996,0.18762207031,0.43078613281,0.006758911441073449,0.2521826171839999,0.13427734375,0.36010742187,0.004142072851030145,1.046171462096,0.84301398989,1.2265387551,0.00982647591567551,970.4940630194615,970.47799028799,970.52200141795,0.0001526298023635155,9.493655034216823e-05,Stairs Up
-0.6748095703096,-1.11779785156,-0.37121582031,0.041946618821736205,0.553217773434,0.32275390625,0.83984375,0.029230742117168942,0.5556054687468,0.21740722656,1.0185546875,0.05723791787144309,1.071169910988,0.63395706324,1.45598256721,0.05034489469173634,970.4789301581596,970.45861330032,970.49150724198,0.00011129884829794537,-0.0002658596666548038,Stairs Up
-0.8882763671848,-1.07727050781,-0.71594238281,0.009191762654461547,0.41993164062159993,0.24682617187,0.53576660156,0.006427974315757543,0.3361523437452,0.17028808593,0.53894042968,0.012885804465430459,1.0477738040967999,0.87201230837,1.20330203599,0.008854976739980829,970.4172355509393,970.37393932628,970.47436798135,0.0008457021365418801,-0.0009341644646832423,Stairs Up
-1.0119677734332,-1.24060058593,-0.81042480468,0.009391715406087946,0.351772460934,0.22729492187,0.5712890625,0.00970130559178736,0.225244140622,0.02355957031,0.34423828125,0.008437764765095756,1.1015754391592,0.86787316991,1.40853150516,0.01246928421262535,970.3717427873585,970.34043489109,970.41575441034,0.0005287561425247447,-0.0006154458822913672,Stairs Up
0.47611816405959984,-1.38598632812,1.07360839843,0.5250932073079283,0.16356933593720002,-0.33996582031,0.96325683593,0.15537679734615897,-0.1202343749988,-0.43762207031,0.5537109375,0.11070943899619841,0.9861170230759998,0.54555407804,1.72675296975,0.0795359643951728,970.2870508847685,970.22919375922,970.39303127644,0.0019408922809836773,-5.461582034246301e-05,Stairs Up
0.9763085937468,0.80944824218,1.19702148437,0.011820872528415245,0.19819335937239999,-0.24194335937,0.4140625,0.02363524051569839,-0.1866064453112,-0.35803222656,0.14929199218,0.018882127385323078,1.0344044141611997,0.86532952192,1.22764537778,0.011195362971190297,970.1575698966949,970.10941809227,970.1755371749,0.00038292845188320505,0.0004890148712186936,Stairs Up
0.07593261718600006,-1.20703125,1.02197265625,0.7356996650351272,0.5185937499959998,0.39343261718,0.70532226562,0.009251745927112181,0.17866699218720006,-0.21301269531,0.83715820312,0.12576267439641906,1.058562704684,0.77442255773,1.56753977052,0.04856472600623486,970.1318720831982,970.06275910494,970.15950191195,0.0008625302563922244,-0.000391469778361148,Stairs Up
-0.9844091796831997,-1.13464355468,-0.76623535156,0.011618178926221395,0.3707177734339999,0.17590332031,0.53625488281,0.011618269718036105,0.2997949218704001,0.12866210937,0.44262695312,0.0077326501499297515,1.1034347661192003,0.92545886804,1.29518510838,0.009556788373565201,970.0939550656865,970.04891912414,970.13830846925,0.0008218794486972,-0.0005221826761233119,Stairs Up
-1.0368749999967999,-1.35400390625,-0.74401855468,0.031128817038160995,0.33410156249679995,0.15393066406,0.61853027343,0.0181884229542578,0.26825683593440003,0.08862304687,0.41284179687,0.0050222694030800765,1.1313977058828002,0.7920536436,1.44565323086,0.03275827790888008,970.0323966343655,969.98932618108,970.07302157442,0.000646336592498671,-0.0006114038294511285,Stairs Up
-0.9592871093724,-1.33410644531,-0.69348144531,0.030081390274877082,0.3591845703087999,0.12890625,0.546875,0.011484240137058113,0.22724609374639995,0.11193847656,0.28491210937,0.003005610571960464,1.0550407620947997,0.76960873092,1.39688170322,0.032222848250084736,969.9656085571648,969.92536435029,970.02598519457,0.00048357868984702664,-0.0004410232813365538,Stairs Up
-0.9814501953096,-1.17309570312,-0.7373046875,0.015273598083402335,0.35420898437039994,0.19018554687,0.46520996093,0.008350193765361629,0.2603124999956,0.13928222656,0.37670898437,0.004663639742898593,1.0811590991092,0.79954627104,1.28219753793,0.01572792709483673,969.9449957234389,969.9168249384,970.01756888447,0.0004233215627351669,7.622353326873554e-05,Stairs Up
-1.0162646484339999,-1.15222167968,-0.80651855468,0.009379742458759084,0.31463378905760003,0.09155273437,0.52331542968,0.01305412899354861,0.2628076171828,0.14880371093,0.48266601562,0.011070135771715506,1.1048093432339998,0.84816908375,1.26310371113,0.013556952300837321,969.9440657410559,969.9099945202,969.99155390185,0.00044060768128747964,0.0002878293782755565,Stairs Up
-0.9695947265592,-1.05603027343,-0.869140625,0.002952651447678997,0.35706054687040006,0.17468261718,0.54895019531,0.015071296306766782,0.21579589843400002,0.01574707031,0.38037109375,0.009346323784060672,1.0655064234564002,0.91285750851,1.18772039125,0.006026937454900626,969.945598432694,969.9113550387,969.98842913998,0.0003232634179040245,-0.00015535420860049453,Stairs Up
-1.0523046874968,-1.19482421875,-0.84497070312,0.009950913708778394,0.3686572265587999,0.13269042968,0.6142578125,0.02278219386786731,0.261621093746,0.07470703125,0.45727539062,0.012425386544324249,1.1581087419271998,0.87501339391,1.33257829502,0.01534338764017927,969.9474153096971,969.90607556615,969.98800546811,0.000694891000233658,-0.00019777182324968073,Stairs Up
-1.0167578124971999,-1.31616210937,-0.73266601562,0.022434973379403162,0.32723144530959997,0.08740234375,0.48132324218,0.014070638165071214,0.2553173828092001,0.13195800781,0.35681152343,0.003124409348061461,1.1045598656824003,0.77985934464,1.39015608285,0.025500058429181086,969.9419810258227,969.91257589898,969.98083950331,0.0005701188232963653,-0.0003667087357050073,Stairs Up
-0.9719042968716001,-1.28308105468,-0.75366210937,0.018362049719237356,0.30717285155920004,0.09631347656,0.48046875,0.013322883037690034,0.3144970703092,0.14819335937,0.568359375,0.013812911486588017,1.0781476758896,0.85765969143,1.38487904975,0.02070907577694051,969.896831554897,969.85229465073,969.95360195333,0.0008177509260297101,-0.00018003812008974044,Stairs Up
-0.9606787109340001,-1.19519042968,-0.77429199218,0.01720497622627345,0.29827636718359996,0.17199707031,0.45874023437,0.006184232499910105,0.24901367187040008,0.15881347656,0.33898925781,0.0022708152520815902,1.0391115009248,0.85925743859,1.31376318091,0.01972817982469147,969.8456660391295,969.79630403944,969.88951301509,0.0006113757872266527,-0.0007018200791983332,Stairs Up
-0.9946630859340001,-1.19445800781,-0.77368164062,0.010835990183227095,0.32647460937119993,0.15026855468,0.46215820312,0.007842800978681128,0.25076171874560005,0.18273925781,0.31042480468,0.0010647969775835397,1.0800810017272002,0.85529671424,1.25620535538,0.011912067311044217,969.7800496995958,969.72970279806,969.8320331205,0.0007940646355340386,-0.0007664879762436324,Stairs Up
-0.9834960937464001,-1.15441894531,-0.78967285156,0.012484047148100311,0.2992919921832001,0.15502929687,0.43286132812,0.006765536587619863,0.25463867187199996,0.19641113281,0.29443359375,0.0007407087268630146,1.0631444075232002,0.89405148563,1.25583255911,0.011308560103078834,969.7165358334564,969.68894809771,969.75000789232,0.0003537970738859743,-0.0004477160383951898,Stairs Up
-0.9980615234331998,-1.17846679687,-0.82189941406,0.012626000510207597,0.3060742187467999,0.17626953125,0.46228027343,0.00823743280725368,0.27028320312080006,0.205078125,0.31140136718,0.0008305644506500977,1.0822846097464,0.89080880594,1.27068983763,0.013129619319586719,969.6541473190711,969.60997783314,969.69539967184,0.0006157865430578758,-0.0005251146266318616,Stairs Up
-0.9557568359336,-1.12414550781,-0.78454589843,0.008647134905997198,0.3190869140588,0.20764160156,0.42004394531,0.004262646617266477,0.2678417968716,0.08715820312,0.43286132812,0.009695660803073814,1.0498564587788002,0.90498006566,1.19135762725,0.007280424417582565,969.5994712859678,969.57185159504,969.65324204086,0.00045212691953298265,-0.00031122868862409675,Stairs Up
-0.949379882808,-1.27172851562,-0.74047851562,0.02004258406284753,0.29764160155880004,0.17150878906,0.40747070312,0.004844306117339444,0.20633300780840003,0.1396484375,0.29260253906,0.002269722620588168,1.0192320691868,0.8021143354,1.33058504704,0.02074447554263231,969.5511065749178,969.50105585743,969.60879066995,0.0006650589223549853,-0.000457031596978255,Stairs Up
-0.9682177734340002,-1.09020996093,-0.79357910156,0.006185901140725278,0.3444726562468,0.18212890625,0.50842285156,0.010154238758615413,0.22796874999640007,0.10754394531,0.31616210937,0.003917794179369296,1.0578810903708,0.83059936314,1.21197478259,0.009110880853078157,969.5190113860326,969.48634162662,969.56306342953,0.0005135599140806553,-9.315580521159613e-05,Stairs Up
-0.9744116210900999,-1.14587402343,-0.80822753906,0.009918966913377628,0.35481811523039997,0.18688964843,0.50183105468,0.007524218840792792,0.2335205078079,0.09509277343,0.37976074218,0.0076571889597143675,1.0696109190298002,0.8821628425,1.24978458217,0.01079553801906669,969.5225072517186,969.49440832823,969.59426592288,0.0007871886630226799,7.706216644990219e-05,Stairs Up
-0.9851318359339999,-1.16125488281,-0.78698730468,0.011104959430134946,0.3308203124948,0.17895507812,0.50659179687,0.010325246290671957,0.22545410155839998,0.14025878906,0.31384277343,0.003611293609691291,1.0680649581447996,0.83858396391,1.22834139196,0.01493403511107725,969.5211613018275,969.49045452046,969.57876439406,0.0006692848034590352,0.0001206369788809749,Stairs Up
-1.0307080078083999,-1.15319824218,-0.89477539062,0.006544966986770291,0.38358886718319984,0.07800292968,0.61730957031,0.024829977546144792,0.2993798828096,-0.15161132812,0.48486328125,0.0342746902226202,1.1655816790351998,1.05087059378,1.29185436087,0.005596180332442238,969.5198002786212,969.47859732111,969.56261728919,0.000658778287707003,-7.479296578106623e-05,Stairs Up
-1.0612988281224,-1.3056640625,-0.95202636718,0.007596852418348061,0.32067871093440004,0.0849609375,0.56494140625,0.02001097828444758,0.24764160155920004,0.12170410156,0.39270019531,0.006210254563283038,1.1458565604683997,1.00618347575,1.4031724155,0.0111202507922067,969.5219187161624,969.48863129493,969.54803942889,0.0003566305373587396,6.474415151269143e-05,Stairs Up
-1.039506835934,-1.17504882812,-0.81982421875,0.008356916639520064,0.3345019531216,0.0517578125,0.57214355468,0.016429941196410787,0.2214453124972,-0.09997558593,0.57507324218,0.02610810708473602,1.1309173173252,0.86597271624,1.31191271176,0.013046547139105111,969.4771113375791,969.40401511507,969.53818549092,0.0012223008058278632,-0.0007950551668475375,Stairs Up
-0.28726562499959996,-1.31860351562,0.97399902343,0.7438736859156925,0.5716015624963999,0.09973144531,1.17639160156,0.05912937549624162,0.021953125,-0.33715820312,0.61071777343,0.08734290007243387,1.0937589095744,0.43154169044,1.7347475717,0.09582401499991715,969.4458515746738,969.37100460404,969.50511884792,0.0013569076213854013,-0.00041686072897986103,Stairs Up
0.7375830078099999,0.40637207031,0.97229003906,0.029688965816546686,0.6588476562468,0.42468261718,0.87890625,0.028405075747719256,-0.0406542968744,-0.39514160156,0.14208984375,0.02454574478933456,1.0258534497356002,0.87783418333,1.21967442617,0.009292714708533352,969.3700466246962,969.25504897855,969.52682858675,0.008864012300587585,-0.001214689152536478,Stairs Up
-0.6445068359352,-1.21337890625,0.38159179687,0.2768521670115919,0.5790380859344001,0.24462890625,1.13830566406,0.06438348765320942,0.23625976561999998,0.12023925781,0.40356445312,0.004318740729069306,1.0608601016791999,0.74437009222,1.36543602061,0.023401555038399042,969.3072902451029,969.28540749969,969.3300189605,0.00018303607708201682,6.646918983752686e-05,Stairs Up
-1.0320898437464001,-1.19274902343,-0.87121582031,0.008894694357164312,0.37617675780880006,0.166015625,0.58776855468,0.017081380949839187,0.24692871093360008,0.17236328125,0.31774902343,0.0029413937075870966,1.1340352745572,0.93639014034,1.31623577746,0.010388360958574375,969.2806986845765,969.20736751484,969.31901647662,0.0008135577089942176,-0.0006149993242182544,Stairs Up
-1.0063574218708,-1.29528808593,-0.75903320312,0.017885519904216635,0.3036035156208,0.09704589843,0.52941894531,0.01339402502256545,0.172592773434,0.03234863281,0.34436035156,0.008468857100630299,1.0757860999312,0.78869519324,1.33815871288,0.01692303625928207,969.2119061516685,969.16567666401,969.25862135566,0.0007149951863973293,-0.0005459505578539981,Stairs Up
-0.994394531246,-1.16381835937,-0.77307128906,0.011350620780335047,0.3160693359336,0.22216796875,0.5185546875,0.0071247398010636205,0.182255859372,0.00598144531,0.3642578125,0.0126491345298132,1.0684213041439998,0.85453083931,1.28476068966,0.011340074925129744,969.1522127391536,969.11280203156,969.20538894397,0.0007086974748576993,-0.0003808647684409918,Stairs Up
-1.011713867184,-1.24145507812,-0.82836914062,0.012117898199548723,0.31360839843319993,0.19897460937,0.38830566406,0.002814781689829384,0.20118164062200003,0.09936523437,0.27941894531,0.0023631133456154412,1.0809048929135998,0.88783953746,1.29522653738,0.011269370627027767,969.1231272933123,969.09037689127,969.16812509107,0.00047567402556071797,-0.0005793112973225918,Stairs Up
-0.9094567871057998,-1.17797851562,-0.48352050781,0.020041988309573763,0.43070678710630006,0.201171875,1.20495605468,0.07600627715374104,0.2912036132776,0.06274414062,0.52783203125,0.018013420556524377,1.0855872325262999,0.76782324568,1.45950786998,0.030067079043900772,969.07167092191,969.03795605103,969.1065205312,0.0003748666292226056,0.00019279269164213607,Stairs Up
0.5256591796839999,-0.2001953125,0.72045898437,0.0454216677730008,-0.46358398437119985,-0.71350097656,0.91955566406,0.15776566028401715,-0.33585449218319985,-0.53063964843,0.39501953125,0.05482957666469289,0.909702804538,0.41566052751,1.13310176839,0.032225724005406145,969.0803841648365,968.93412551425,969.29331336355,0.01040557292717691,-0.001965257285007998,Stairs Up
0.7006640624964,0.56335449218,0.82958984375,0.006078566782609031,-0.49477050780919996,-0.72937011718,-0.24523925781,0.017055842226106135,-0.4850146484335999,-0.64624023437,-0.34191894531,0.006762533814043965,0.9951667958352002,0.77125313105,1.18398097914,0.010311328211274865,968.9702224089951,968.86568164203,969.05695165478,0.0026885311784973684,-0.001095210300164852,Stairs Up
-0.47379882812359997,-1.2041015625,0.94372558593,0.653263255653581,0.3709326171851999,-0.10034179687,0.9248046875,0.04739666553460755,0.1397656249976,-0.56384277343,0.48181152343,0.08830793635798331,1.0613320465063998,0.55849419887,1.36786505122,0.03662952725608103,968.9958062400113,968.89611275095,969.09930910026,0.0025029129436307932,0.00034955476478073583,Stairs Up
-0.9947314453088001,-1.13830566406,-0.85339355468,0.0053374727327041675,0.38176269530919993,0.18920898437,0.57531738281,0.012975183400244292,0.22577148437160005,0.029296875,0.44140625,0.014524863368225553,1.1011721759751998,0.98150975409,1.24798681744,0.0061971213510495895,969.0559217902843,969.01134202666,969.09930910026,0.000883444423715654,-0.000102887332626453,Stairs Up
-0.9979541015576,-1.12646484375,-0.82299804687,0.007041902590196168,0.3555712890583999,0.15393066406,0.55932617187,0.013876119864054546,0.2493994140584,0.11987304687,0.35180664062,0.0054199068474383785,1.0958781202660004,0.91747107305,1.25819837089,0.009766761299480111,969.0546327178812,969.02507952163,969.10434134537,0.00030317940626591576,5.856165711506774e-05,Stairs Up
-1.011440429684,-1.13598632812,-0.80615234375,0.00845332160133242,0.34660156249639995,0.15844726562,0.55456542968,0.008536537343725609,0.23056640624640007,0.12683105468,0.34460449218,0.004725860826911517,1.1002350954396,0.90803632127,1.23328693335,0.007360152475571827,969.0380568053987,969.00421577459,969.07546886949,0.00045271838502041747,-0.0003099725195239413,Stairs Up
-0.940454101559,-1.11047363281,-0.70959472656,0.012351191405311143,0.36488403319979995,0.25573730468,0.4638671875,0.003540625071081156,0.20005371093339996,0.0576171875,0.45166015625,0.005861604671246065,1.0332979726151998,0.79288723719,1.21164146388,0.012830317782477634,968.9844238299493,968.93990699885,969.04537616362,0.0011564929010403683,-0.000768132580551924,Stairs Up
-0.9725268554652999,-1.23681640625,-0.71911621093,0.019527472576773296,0.32727905273119995,0.18688964843,0.4521484375,0.004165972800933547,0.18987182616790002,0.03356933593,0.45166015625,0.010346277270418008,1.0513738774678998,0.80492588326,1.29498394433,0.017458251037458797,968.9480055312127,968.90374052051,968.99926887272,0.0005983997626162806,-0.00045807315074152097,Stairs Up
-0.9621789550747999,-1.26440429687,-0.76708984375,0.0149865102450732,0.30014282226169997,0.11730957031,0.439453125,0.008687268259280815,0.21965087890369997,0.11437988281,0.306640625,0.0030111678863756846,1.0360808697544999,0.84997608557,1.34194397432,0.017247567879115685,968.8892624999609,968.83610586862,968.94796986104,0.0007211484083488299,-0.0007327391036863212,Stairs Up
-0.9779199218718,-1.10180664062,-0.8388671875,0.006898933371989323,0.30182495116790004,0.14807128906,0.41943359375,0.006549838930483913,0.25192016601260003,0.17028808593,0.34130859375,0.0021897680396169472,1.0577393260064,0.90429082748,1.2214383528,0.007635472668038273,968.8256260236948,968.78721639295,968.87180730229,0.0005619813261381547,-0.0006624183053223838,Stairs Up
-0.9784924316376998,-1.1748046875,-0.78723144531,0.011865004353841094,0.28856445312300005,0.17431640625,0.44775390625,0.005554290636612226,0.25367065429240004,0.18762207031,0.29431152343,0.0009663822238301929,1.0539996330425,0.84953964648,1.24034363873,0.012477047690243126,968.7573909442283,968.71618409755,968.78713691893,0.0004891640975294792,-0.000598591186447195,Stairs Up
-0.9089440917931,-1.09826660156,-0.70922851562,0.012875530832510845,0.33217773437229986,0.04064941406,0.712890625,0.013740708731727874,0.35043090819899986,0.17614746093,0.69653320312,0.01978400465670482,1.0430274486111997,0.83186536577,1.3449602665,0.017528498850048528,968.687460979583,968.66402933555,968.72532136753,0.00035554487205825065,-0.0005025531241120821,Stairs Up
-0.9591259765588,-1.19274902343,-0.783203125,0.01665511357670506,0.330034179684,0.16101074218,0.4638671875,0.007255296370013499,0.3160937499972,0.18994140625,0.58325195312,0.009422774362921752,1.0729246890315998,0.87194189341,1.26601226792,0.010699920798279078,968.6526191430573,968.6124439509,968.7140658542,0.0006399696013709544,-0.0003059491419515871,Stairs Up
-0.9559423828096,-1.2216796875,-0.703125,0.023621363977017938,0.3300634765588,0.1904296875,0.55017089843,0.00886817330055357,0.21551269530799996,0.12878417968,0.28198242187,0.0015813173910250605,1.0364370065919999,0.74747850822,1.31441587307,0.02903225973501098,968.5933900238466,968.53686791342,968.65616419847,0.0009297376574830832,-0.0001887566112742078,Null
-0.9481140136685,-1.181640625,-0.81823730468,0.006944650464424285,0.3294433593718,0.22192382812,0.58776855468,0.0068424482537424195,0.24096801757539998,0.01391601562,0.33740234375,0.0058913057786387415,1.0377904199191001,0.91114649297,1.28446088837,0.008072081026857868,968.5666717293759,968.52586633455,968.61241650493,0.0006752746555130383,0.0003981654156828661,Null
-0.9500793456995998,-1.03430175781,-0.88049316406,0.0013110617722048665,0.31046264648,0.19812011718,0.51599121093,0.005465936990404479,0.2582885742161,0.02282714843,0.33032226562,0.005974170385140645,1.0374474073695996,0.9734524069,1.15719420311,0.00209832318532578,968.5749557442978,968.54779846328,968.64808860482,0.0004629570791090165,4.063261881258275e-05,Null
-0.9486767578082999,-1.0380859375,-0.88049316406,0.0009651287397005953,0.3089025878871,0.17309570312,0.46484375,0.00388319186941994,0.2221093749954001,0.02258300781,0.33032226562,0.0053228069074086545,1.0265765524188,0.98781476677,1.13318973048,0.000960578118728701,968.5813583900695,968.54930995564,968.60650246186,0.00020253496914226816,8.455676555281786e-05,Null
-0.9328527831997999,-0.98706054687,-0.89794921875,0.00022252920147571023,0.33855712890319983,0.29248046875,0.36730957031,0.00035817557511976227,0.22640869140199996,0.193359375,0.271484375,0.0003334442232868189,1.0182462886095,0.99913220452,1.05707141464,0.00017741761730310878,968.5807371956314,968.55766598132,968.59386740918,9.604258101422237e-05,-6.769470592880523e-05,Null
-0.9731445312461999,-1.12036132812,-0.84423828125,0.004639715859428291,0.3263195800740999,0.1591796875,0.64721679687,0.012026819705531046,0.25925415038620003,0.15100097656,0.36486816406,0.0031378771003432665,1.0638832651541004,0.92958171627,1.31440709842,0.008551745646492456,968.5704972349309,968.5512602878,968.60469197526,0.00031393572220195703,0.00019737307687888513,Null
-0.9550061035113999,-1.1953125,-0.68298339843,0.01413908182225031,0.2948559570279,0.15783691406,0.44055175781,0.006803857382901902,0.2540649414017,0.13024902343,0.36486816406,0.002595508188891084,1.0356276954033998,0.76015412466,1.2629463436,0.014448512145978525,968.5712347591694,968.54509166404,968.6055616095,0.0003392819942743995,0.00031182908494307673,Null
-0.9611633300748,-1.29553222656,-0.66540527343,0.03956444708223045,0.2852709960902,0.05908203125,0.4931640625,0.015235983308011194,0.21954101562090003,0.10009765625,0.40734863281,0.008374556893103277,1.0360210373112997,0.70427738698,1.40682739484,0.04304686211371956,968.6045309768248,968.55257807503,968.68849284619,0.0012833934468592203,0.0008395221252261272,Stairs Down
-0.9948193359344001,-1.45324707031,-0.67138671875,0.04091596131384296,0.31058715819870003,0.08728027343,0.54541015625,0.015607591848035547,0.2388122558559,0.14514160156,0.39367675781,0.004244559152899462,1.0758303630894002,0.6924189893,1.55450907119,0.04637439250364936,968.6446173179045,968.60699339924,968.67945236393,0.000454024185158839,0.00029254872289332393,Stairs Down
-0.27444186069118803,-1.3154296875,0.29553222656,0.3421732729283339,0.7744176883476237,0.40100097656,1.25317382812,0.06866264327059199,0.07862415880247524,-0.28442382812,0.51489257812,0.061831188825997495,1.0539274307925743,0.68713882018,1.44642728651,0.038831523118505816,968.7082661272406,968.6285019166,968.82915335528,0.003150141261962088,2.2264906649963828e-05,Stairs Down
-0.24262939453060003,-1.75354003906,0.28601074218,0.3439196263211379,0.6566723632783998,0.17004394531,1.18200683593,0.07494331442319627,0.017678222656,-0.99719238281,0.83630371093,0.31866546693639414,1.0571078662067999,0.52350681472,2.0150826301,0.10411739206899427,968.7794421850482,968.67033194309,969.07631139807,0.012538511105516662,0.00041421294262933224,Stairs Down
-1.0379034485440404,-1.40551757812,-0.66674804687,0.04339134248375535,0.37362270162191913,0.12866210937,0.66320800781,0.024486845257672002,0.19407823350363632,0.03051757812,0.35095214843,0.0061576551590665505,1.1303367554386867,0.68398539631,1.51074004712,0.0506422153225865,968.8586590672447,968.78729191248,968.95881430576,0.002267401438426009,0.001544573106282258,Stairs Down
-1.0106604003863,-1.27697753906,-0.66003417968,0.029191868490416405,0.32250366210560005,0.05358886718,0.59130859375,0.024726268430948006,0.2149792480437,0.02001953125,0.33251953125,0.00524171491321054,1.0925113549543999,0.68596201876,1.396396154,0.03701649159846698,968.9296831216989,968.90281418037,968.96828942369,0.00039710877267063095,0.00016405012419798716,Stairs Down
-0.9949829101524,-1.32299804687,-0.70690917968,0.02344915346075206,0.34389404296579995,0.16931152343,0.63537597656,0.014776054771170034,0.2052380371048,0.03796386718,0.40197753906,0.007784440269282534,1.0802759606988002,0.75667118371,1.44020256191,0.02922238071745812,968.9818035756974,968.91716655734,969.07390589437,0.001371138711095874,0.000521001199374278,Stairs Down
-1.0119628906201998,-1.24194335937,-0.81201171875,0.015005422360862136,0.3242761230433999,0.12915039062,0.50830078125,0.012848504099819864,0.19434814452799998,-0.009765625,0.34680175781,0.007078457811912217,1.0871411449101003,0.82474707895,1.31438296217,0.019901301744961127,969.0257926506168,968.99372346534,969.07610830982,0.0004472841008414498,-7.189354818635552e-05,Stairs Down
-1.0201708984338997,-1.1748046875,-0.79968261718,0.012101932944647384,0.3932739257769998,0.16821289062,0.60961914062,0.014787187329256398,0.21168457030839996,0.08483886718,0.34790039062,0.0071646809819680655,1.1212701988615,0.82157501068,1.27927713742,0.01685838828645169,969.0169257094785,968.96088882368,969.0978703326,0.001140421980643019,-9.838037882561694e-05,Stairs Down
-1.0070129394492,-1.17956542968,-0.84338378906,0.011404175461923568,0.2995703124966,0.14526367187,0.56311035156,0.012470350024645768,0.2422253417932,0.10070800781,0.3916015625,0.004931258642161073,1.0853517802152002,0.89961597441,1.25384723964,0.013151301035248284,969.0165615332136,968.98034397263,969.07549855915,0.00044908981192893306,0.00015493740840323217,Stairs Down
-1.0340844726533,-1.23767089843,-0.79992675781,0.014113183449112963,0.3627978515572999,0.17846679687,0.57946777343,0.014747431759931214,0.20130493163769997,0.02941894531,0.39111328125,0.008264661767011284,1.1219140120234001,0.82591064868,1.35749782102,0.01973699697923785,969.0262162487119,968.94884422429,969.08336036728,0.0011192123296085818,-0.0004237189064658975,Stairs Down
-0.9642297363252998,-1.35998535156,-0.623046875,0.030413432992693695,0.32828857421600005,-0.00048828125,0.52893066406,0.018130929247236922,0.23479370116870002,0.10388183593,0.34777832031,0.004408714522943865,1.0537491591549,0.7087607228,1.44293294344,0.035026979855566236,969.0232992736508,968.96758800013,969.08805625657,0.0011666763754493304,-1.7805266698326772e-06,Stairs Down
-1.0407788085902998,-1.40112304687,-0.74243164062,0.027798940984974627,0.3133581542933,0.03674316406,0.49072265625,0.01811586499677492,0.21768920897990005,0.05725097656,0.36804199218,0.0083331365460113,1.1190101922852,0.75623761553,1.4559194603,0.03063040974005636,969.0728827728369,969.02343041799,969.1123029367,0.0007010065056009706,0.00043885089529488577,Stairs Down
-0.9719848632779999,-1.29235839843,-0.66357421875,0.04038077156337486,0.29465820312109997,0.10339355468,0.45568847656,0.013206691669891281,0.19319458007400006,0.05969238281,0.35668945312,0.00716797642488817,1.0422194510984,0.75010602916,1.36088443678,0.04326129079862166,969.1239158003076,969.07232285506,969.17941360836,0.000765155348410369,0.0004206920615130481,Stairs Down
-1.0313382290341584,-1.38635253906,-0.68212890625,0.04829550120773006,0.32037776531188117,0.09545898437,0.49365234375,0.014027354289293059,0.20094223777564355,0.07958984375,0.34533691406,0.005535013165243131,1.105475390303564,0.71342875406,1.46941171613,0.05230629218793453,969.2091786604665,969.13648845796,969.29149122541,0.0017883010158076303,0.0005259417766286229,Stairs Down
-0.9810058593709999,-1.27380371093,-0.67443847656,0.03561674043402564,0.3089062499964,0.10339355468,0.48291015625,0.012159865408203718,0.2076391601532,0.08215332031,0.34387207031,0.005097127014926609,1.055517309703,0.69571436295,1.36919504729,0.039533123921471604,969.2836221296207,969.21439892005,969.35546267351,0.0014385467382183519,0.0007837218569709577,Stairs Down
-1.0194628906206,-1.54028320312,-0.67993164062,0.04981200150750285,0.33491943358919996,0.16918945312,0.57971191406,0.013239727844927442,0.19650878905959998,-0.00231933593,0.36108398437,0.0074575874538733095,1.0979172123455998,0.70779665198,1.67804633405,0.05502357071156434,969.3692580021396,969.31232932794,969.43609308319,0.0009940079331259737,0.0006376826321204232,Stairs Down
-1.02106514362,-1.34387207031,-0.67565917968,0.04174762847560383,0.3181818181778788,0.05554199218,0.56530761718,0.03484904318204295,0.21081666271767677,0.07751464843,0.43823242187,0.007826629188420187,1.1031297579603028,0.68368257218,1.43997967948,0.05549317668645059,969.4188678506096,969.35002979431,969.52351342846,0.0029042623298171587,0.0004483000368534909,Stairs Down
-1.0485571289024997,-1.39196777343,-0.80407714843,0.024438661029761877,0.31705688476189997,0.08972167968,0.55151367187,0.019121330812854834,0.2537023925752999,0.10400390625,0.41748046875,0.005182998064548762,1.1329106490388,0.81572474092,1.50506345641,0.029425299037776378,969.4728932825551,969.42242890332,969.53510078561,0.0008624789374859399,0.0004653280245421385,Stairs Down
-1.0096911621059999,-1.22778320312,-0.80480957031,0.019109880049490408,0.3390624999962999,0.15051269531,0.60375976562,0.015598456666998392,0.24747192382520006,0.056640625,0.33740234375,0.0053970591874703865,1.100240946591,0.82786804387,1.37726422305,0.025107248696030034,969.478469864677,969.43762451312,969.52733105259,0.0007366129795656579,-5.2035120273930185e-05,Stairs Down
-1.0061608886682,-1.14233398437,-0.82348632812,0.010176486576206751,0.32850219726139995,0.14343261718,0.53967285156,0.014190294554546855,0.2342346191378,0.125,0.36682128906,0.0038656340628997624,1.0907544632991,0.8691243288,1.30045297277,0.013478864774968525,969.4847844883569,969.43918466521,969.54406047964,0.0007713956962578726,5.237662749993724e-05,Stairs Down
-0.9926123046837,-1.18359375,-0.81909179687,0.013291359694286955,0.3232092285126999,0.17663574218,0.546875,0.012394586252260878,0.21481079101240003,0.10290527343,0.2958984375,0.0023279448516957545,1.0708924263989998,0.84723718014,1.30095905658,0.016980032031058207,969.4864269979247,969.44565992525,969.54741029922,0.0005891120812762423,0.00034569664992880266,Stairs Down
-0.9992822265593,-1.40356445312,-0.61962890625,0.04634378392265893,0.29891113280799997,0.03283691406,0.4931640625,0.017307745952785145,0.2270300292940999,0.09350585937,0.3564453125,0.004091406426992533,1.0765310007898001,0.72276905313,1.49696160087,0.0480828071849274,969.492949025479,969.43359538281,969.57020539213,0.0014114367211946516,0.0006975199166559815,Stairs Down
-0.9887011718705,-1.267578125,-0.63879394531,0.026401762504815077,0.2976599121057,0.06311035156,0.55065917968,0.018551124543397145,0.24801025390199996,0.06555175781,0.34350585937,0.005918135396092484,1.072458249033,0.76028254166,1.33234572404,0.028117305936439536,969.5597066554014,969.51632116662,969.61700424784,0.0009044865734140106,0.0007361016881841327,Stairs Down
-1.0524121093708998,-1.42492675781,-0.71948242187,0.045154113215593566,0.33773925780879993,0.02392578125,0.560546875,0.02836099330814863,0.2147949218716,0.06530761718,0.3974609375,0.007679510598219658,1.1390188767098,0.73084079223,1.50914645113,0.05130765871648568,969.6221820658694,969.54877692646,969.73165929488,0.00245661050251911,0.0012429751550134794,Stairs Down
-1.0296423339806997,-1.32299804687,-0.69201660156,0.04148852947247524,0.34728881835590003,0.07336425781,0.58337402343,0.024362619324955204,0.2376794433551,0.12377929687,0.35131835937,0.0042295492825790496,1.122858003613,0.71750696127,1.44902418737,0.04629714332879879,969.7001874846993,969.62161818855,969.77081392807,0.00200534213829029,0.0010107097455526399,Stairs Down
-0.9882111502120792,-1.29235839843,-0.66430664062,0.03692284326148625,0.29162718517613867,0.03845214843,0.48620605468,0.018201748578357893,0.2044508527968317,0.0693359375,0.37451171875,0.007212373623208276,1.0611730906163368,0.68521716674,1.36382563195,0.03942967611494928,969.7931699892721,969.72090342506,969.86558152245,0.0017555277233731075,0.0006624359021246006,Stairs Down
-1.0076635742153999,-1.46105957031,-0.66430664062,0.06360017969768321,0.35870117187139994,0.13659667968,0.58959960937,0.01677143889250535,0.2078100585904,0.00463867187,0.37121582031,0.010599614929869937,1.1018197631934001,0.68521716674,1.55832949527,0.06393147532712343,969.863560003996,969.81107406724,969.95972965998,0.0017597501694484848,0.0003207282557922341,Stairs Down
-1.0022021484339998,-1.35571289062,-0.6728515625,0.04468469785920775,0.3306054687453999,0.07873535156,0.51354980468,0.02035719724605033,0.21894042968340002,0.0830078125,0.41442871093,0.00883471975424055,1.08751704004,0.72096356284,1.47343145654,0.05261471755059087,969.9224933522422,969.84551652296,970.01279921041,0.0017470169427166872,0.0007736635674258485,Stairs Down
-1.0136523437456,-1.24194335937,-0.80493164062,0.02229486833919978,0.3068725585904,0.11901855468,0.59399414062,0.01641487909699367,0.229882812496,0.04565429687,0.34399414062,0.006443414423181659,1.0916050065807996,0.81496299134,1.31249679837,0.027886958108590564,969.956910991508,969.91454088195,970.01523978014,0.0007136819767588651,8.9361045554805e-05,Stairs Down
-1.043722133439192,-1.2197265625,-0.81591796875,0.017546430546653714,0.3149093473761616,0.12573242187,0.59399414062,0.016383482663503965,0.2215884430203031,0.03112792968,0.30639648437,0.0052945669644473455,1.119140258957273,0.84294961124,1.30683496623,0.024223260462670614,969.956089301215,969.91932084683,970.01157705156,0.0004888331381860411,4.1756355650274826e-05,Stairs Down
-1.0044396972613001,-1.23510742187,-0.79931640625,0.01660067886243543,0.32071777343389996,0.11071777343,0.6083984375,0.022623306838109366,0.24356079101109995,0.10778808593,0.35900878906,0.005003311530230861,1.0916584278164,0.81512581651,1.3172300687,0.023381571499721227,969.95683432275,969.91646382528,970.01648809849,0.0009352140950232405,-0.00010980135179662203,Stairs Down
-1.0108850097616,-1.34838867187,-0.65368652343,0.0339663588805939,0.3164428710893,0.109375,0.56616210937,0.015258621537369312,0.243432617183,0.08679199218,0.32116699218,0.0026143789291785784,1.0959726828009,0.66843235368,1.41743909648,0.03176654246754555,969.9685008610593,969.9104837444,970.04499161276,0.0011107417893284955,-7.558605312204977e-05,Stairs Down
-0.9847778320274,-1.29626464843,-0.59521484375,0.045872083065291,0.2852819824171,0.07958984375,0.455078125,0.01773765757074908,0.19648559569969998,0.05432128906,0.3330078125,0.007248608721337969,1.0526327172732999,0.62215838564,1.36923737122,0.052418086517590085,970.0285269108007,969.97514845736,970.1285639079,0.0016610151267489792,0.0007632359048408313,Stairs Down
-1.0016113281208998,-1.39001464843,-0.70080566406,0.039639699940724034,0.32127685546500007,0.07934570312,0.58947753906,0.02498897985414614,0.2340795898403,0.1220703125,0.36462402343,0.004289476913525474,1.0894025421345,0.73617173616,1.50670195977,0.04309939514203376,970.0941423918401,970.03508612488,970.17026711991,0.0008560179785416257,0.00010965917346904233,Stairs Down
-1.0210290527316,-1.33715820312,-0.66943359375,0.04293116772252636,0.3629663085896999,0.05603027343,0.6748046875,0.03552276292859035,0.20727783202769998,0.04064941406,0.40966796875,0.009242229383531718,1.1221570498449998,0.67300304817,1.4460619504,0.045244162888704836,970.1758895536545,970.11566592487,970.29407112876,0.0024309065814840155,0.0011603469899893755,Stairs Down
-1.0177966308547999,-1.31970214843,-0.63720703125,0.03447938997761449,0.24674072265110003,0.01281738281,0.49108886718,0.023107769362886735,0.21660644530979994,0.04016113281,0.35888671875,0.007884940812179778,1.0809840755678,0.64088269609,1.39194196319,0.040404167341005,970.2563677457142,970.18864582408,970.32093085669,0.001219871323820808,0.0010004758221853133,Stairs Down
-0.9893484587673267,-1.39514160156,-0.71081542968,0.03236684401463967,0.3672032120173267,0.1240234375,1.18041992187,0.0703028457350146,0.31162254408683165,0.06494140625,0.95715332031,0.048682829056010214,1.1251289441817824,0.80030193405,2.06299630609,0.09564297994261574,970.3901742428149,970.31998713459,970.79755693244,0.007407635035083784,0.0021460822084038173,Stairs Down
0.5028784179665999,-0.71081542968,0.919921875,0.11070652266181964,0.792260742184,0.31896972656,1.28015136718,0.06198317535019498,-0.1240454101548,-0.49951171875,0.18298339843,0.023013108119204602,1.0132782826108002,0.56042996293,1.56006783973,0.06359995020381183,970.3739923314973,970.19556856923,970.79755693244,0.01739945738852425,-5.297992903257556e-05,Stairs Down
0.3559985351536001,-1.70837402343,1.099609375,0.32638321717834534,0.8144311523406,0.45751953125,1.2353515625,0.05785451073263988,-0.0716552734356,-0.41491699218,0.68505859375,0.062108452270158786,1.0647253358598001,0.51168582897,1.97945104404,0.1044547623282192,970.4503996205787,970.3204775982,970.5497255462,0.006945558711583369,0.0004258228246031549,Stairs Down
-1.0887719726534002,-1.70837402343,-0.87170410156,0.030143250293124344,0.4013183593714,0.14123535156,0.83935546875,0.03224563116959778,0.3164550781212,0.033203125,0.68505859375,0.03185386308506239,1.2218188517533999,0.92184050543,1.97945104404,0.04755925360786791,970.51850091979,970.3946631326,970.58627127115,0.0023805957400561623,0.0013310081065033938,Stairs Down
-1.0374829101521998,-1.20031738281,-0.87854003906,0.008692425555717318,0.37119873046519997,0.13354492187,0.59387207031,0.017344439878631324,0.2692822265588001,0.13940429687,0.36950683593,0.0037798730772447254,1.1417801278707997,0.94911053515,1.3438314646,0.012655469318358804,970.5436884308787,970.50848202737,970.57975769825,0.0004526846566619042,-5.019571109434642e-05,Stairs Down
-1.0020068359333998,-1.2490234375,-0.81213378906,0.016190665033282533,0.34265869140199995,0.06762695312,0.640625,0.020131385934636436,0.24134277343300004,0.11291503906,0.39721679687,0.00522532959179398,1.0958445419555998,0.87282438238,1.36325441569,0.020137029254586804,970.5550467033224,970.5132920869,970.61113441563,0.0009653951022315815,-0.00022780380854447467,Stairs Down
-1.0045585246962627,-1.37268066406,-0.70874023437,0.04596983174965992,0.316788490369394,0.08337402343,0.61242675781,0.020442163654296516,0.19776623658,0.00573730468,0.34790039062,0.005911225413471476,1.0795155722798988,0.73093709364,1.47329305545,0.055402697143180725,970.549033443206,970.48660566891,970.60857343475,0.001148805654880069,0.00020113590372993704,Stairs Down
-0.9813366699178,-1.51635742187,-0.69067382812,0.03091478826304968,0.3513427734340999,0.16418457031,0.66528320312,0.01952002686655496,0.20369750976250003,0.03186035156,0.33898925781,0.006612102399795465,1.0718935672417997,0.72762030845,1.67267597031,0.03583505910594476,970.6123953139107,970.53869874726,970.72230022885,0.002292571883433033,0.0011323884383005252,Stairs Down
-1.0521533203086,-1.51635742187,-0.69702148437,0.04191437788671563,0.3483239746060999,0.04260253906,0.62170410156,0.033517244023043104,0.23816528319989996,0.06872558593,0.37414550781,0.008842355185994894,1.1473220734501999,0.70900392111,1.67267597031,0.05268909085248511,970.6737809792595,970.62385154009,970.78400897008,0.0014140259067209312,0.0006052731739004284,Stairs Down
-0.975311279293,-1.25952148437,-0.72143554687,0.027620339445807298,0.3433239746059,0.02209472656,0.55334472656,0.020068908127586816,0.20637451171510002,0.10717773437,0.3837890625,0.004780425802723166,1.0631842392959998,0.73877798253,1.40129505995,0.033614274847965225,970.7499654977807,970.66226663432,970.83421006299,0.001988222548727208,0.000826623343302372,Stairs Down
-1.0296582031211998,-1.33459472656,-0.71545410156,0.031015468944114402,0.38299926757579994,0.048828125,0.72961425781,0.03649543675943227,0.22729248046490003,0.05480957031,0.46813964843,0.011610763235494044,1.1387315654648997,0.72189251519,1.43864211549,0.040572929250753446,970.8567033633831,970.77286248173,970.99921650955,0.0021805577102832433,0.0010008012717475242,Stairs Down
-1.0327404785122998,-1.50805664062,-0.65258789062,0.053880133199764244,0.33563598632440006,0.08068847656,0.57348632812,0.026694968028212175,0.22899780273099998,0.07629394531,0.40161132812,0.006583448123229961,1.1212548375021,0.66801002999,1.63494387603,0.06133228097349524,970.9493396768361,970.86049713685,971.0786482799,0.0030115765655761954,0.0013063526662512902,Stairs Down
-0.9960671604237623,-1.541015625,-0.44213867187,0.07621476757661608,0.3460753790190098,0.0615234375,0.55383300781,0.019041337483091766,0.22657942063386138,0.07043457031,0.3779296875,0.007688990840100846,1.083229731702574,0.45192119581,1.63494387603,0.08349063668167422,971.0133710621623,970.94875345846,971.11432810864,0.0016237391064114672,0.0009842630543528187,Stairs Down
-1.0475097656218,-1.43798828125,-0.61071777343,0.06832029843639705,0.35830810546459985,0.10083007812,0.63659667968,0.02209306113025043,0.23706054687140007,0.05090332031,0.4384765625,0.010609247467605767,1.1444596261521998,0.64188499519,1.55829195336,0.07281177320151198,971.0953058998191,971.02783004832,971.1458259335,0.0012835705411728957,0.0008549969288530097,Null
-1.0026440429648,-1.3056640625,-0.75988769531,0.025015181730481565,0.31446533202759996,0.10290527343,0.490234375,0.01240870100698464,0.19864501952679997,0.02014160156,0.31848144531,0.006450579172308669,1.0761628523166,0.77431147738,1.36687548755,0.029245048794636495,971.1386347357158,971.08448275772,971.22292469138,0.0011175931641509446,-2.014186160365364e-05,Null
-1.0022753906214,-1.1083984375,-0.89416503906,0.0033102353172700517,0.2364746093714,-0.06079101562,0.46228027343,0.025131482066047046,0.31594726562100006,0.02612304687,0.62414550781,0.03483233581901674,1.1025567212421998,0.94253398888,1.26232639242,0.007382690193894802,971.1329219937782,971.0883190302,971.17224477253,0.0004369612622557752,0.00026246847991667077,Null
-0.9573071289016,-0.98669433593,-0.94226074218,7.278438167924892e-05,0.2727148437472,0.24597167968,0.32568359375,0.0005514090952389679,0.21391357421399995,0.1669921875,0.23413085937,0.00019486136507246968,1.0184700159904003,1.00442588657,1.05051583976,0.00010003343799424207,971.151337865063,971.143829553,971.16317122358,2.4314036618932995e-05,6.40196082383992e-05,Null
